"rt","url","trial_type","trial_index","time_elapsed","internal_node_id","encryptedProlificId","studyId","sessionId","expIndex","round1_outcomes","round2_outcomes","round3_outcomes","round1_o","round2_o","round3_o","round1_reward","round2_reward","round3_reward","success","view_history","stimulus","key_press","responses","question_order","j","Stage","stage","contest","round","strength_a","strength_b","effort_a","effort_b","outcome_a","outcome_b","reward","r1_strength_a","r1_strength_b","r1_effort_a","r1_effort_b","r1_outcome_a","r1_outcome_b","r1_reward","probability_a","probability_b","r2_prob_a","r2_prob_b","r2_strength_a","r2_strength_b","r2_effort_a","r2_effort_b","r2_outcome_a","r2_outcome_b","r2_reward","r3_prob_a","r3_prob_b","attention_check","count","r3_strength_a","r3_strength_b","r3_outcome_a","r3_outcome_b","r3_reward","r3_effort_a","r3_effort_b","screen","pick_contest","pick_round","pick_side","trial_probability","trial_outcome","bonus","button_pressed","attention_sum","attention","datapipe_meta.attributes.date_modified"
"9740.5","https://psyc-201.github.io/xiang2023/exp/index1.html?PROLIFIC_PID=REDACTED&STUDY_ID=691f8ca61c6b4dcbb0aeb5f4&SESSION_ID=691f923393c2e8a21cacff27","external-html",0,10602,"0.0-0.0","WOpHCwVljqWbB/datIEx/l129UweM8UFoB5/myFJFXykkN0DekzX4Q+BA4Ud6jb8tuiZ8ASRtFtuDKGUnzNqlhJyJvqKyjZA/lH0CY1jfKsfsmzCh0wmo/nE5Z1BvyaMu4T6t628HQQczyoKKdECa3t2SCRHDR70onUYJa57gsNPxJY4YyvVWdIUBqrvF3scQpET8HDZpIoaj1H8xYj3KCgibVQIpUNVmGQJXxi1+7HF4aHzIzX74fuQqzbntpCEjcqhqZwFtgH5dqNPlKDY7rJp3lKtUfIH3vXCrN1hbPeomCVsl+B3170hofffm/AbLO1xgOThAntxhnZy4mZk+w==","691f8ca61c6b4dcbb0aeb5f4","691f923393c2e8a21cacff27","index1","<span style='color:red'>Fail,<span style='color:red'>Fail,<span style='color:green'>Lift,<span style='color:green'>Lift,<span style='color:red'>Fail,<span style='color:red'>Fail,<span style='color:red'>Fail,<span style='color:red'>Fail,<span style='color:red'>Fail,<span style='color:green'>Lift,<span style='color:green'>Lift,<span style='color:red'>Fail","<span style='color:red'>Fail,<span style='color:red'>Fail,<span style='color:green'>Lift,<span style='color:green'>Lift,<span style='color:green'>Lift,<span style='color:green'>Lift,<span style='color:red'>Fail,<span style='color:green'>Lift,<span style='color:green'>Lift,<span style='color:green'>Lift,<span style='color:green'>Lift,<span style='color:red'>Fail","<span style='color:red'>Fail,<span style='color:green'>Lift,<span style='color:green'>Lift,<span style='color:red'>Fail,<span style='color:green'>Lift,<span style='color:green'>Lift","0,0,1,1,0,0,0,0,0,1,1,0","0,0,1,1,1,1,0,1,1,1,1,0","0,1,1,0,1,1",10,20,20,"","","","","","",NA,"",NA,NA,NA,NA,NA,NA,NA,NA,NA,NA,NA,NA,NA,NA,NA,NA,NA,NA,NA,NA,NA,NA,NA,NA,NA,NA,NA,NA,NA,NA,NA,NA,NA,NA,NA,NA,NA,NA,NA,"",NA,NA,NA,NA,NA,NA,NA,NA,NA,2025-11-20 22:23:16
"","https://psyc-201.github.io/xiang2023/exp/index1.html?PROLIFIC_PID=REDACTED&STUDY_ID=691f8ca61c6b4dcbb0aeb5f4&SESSION_ID=691f923393c2e8a21cacff27","fullscreen",1,30839,"0.0-1.0","WOpHCwVljqWbB/datIEx/l129UweM8UFoB5/myFJFXykkN0DekzX4Q+BA4Ud6jb8tuiZ8ASRtFtuDKGUnzNqlhJyJvqKyjZA/lH0CY1jfKsfsmzCh0wmo/nE5Z1BvyaMu4T6t628HQQczyoKKdECa3t2SCRHDR70onUYJa57gsNPxJY4YyvVWdIUBqrvF3scQpET8HDZpIoaj1H8xYj3KCgibVQIpUNVmGQJXxi1+7HF4aHzIzX74fuQqzbntpCEjcqhqZwFtgH5dqNPlKDY7rJp3lKtUfIH3vXCrN1hbPeomCVsl+B3170hofffm/AbLO1xgOThAntxhnZy4mZk+w==","691f8ca61c6b4dcbb0aeb5f4","691f923393c2e8a21cacff27","index1","<span style='color:red'>Fail,<span style='color:red'>Fail,<span style='color:green'>Lift,<span style='color:green'>Lift,<span style='color:red'>Fail,<span style='color:red'>Fail,<span style='color:red'>Fail,<span style='color:red'>Fail,<span style='color:red'>Fail,<span style='color:green'>Lift,<span style='color:green'>Lift,<span style='color:red'>Fail","<span style='color:red'>Fail,<span style='color:red'>Fail,<span style='color:green'>Lift,<span style='color:green'>Lift,<span style='color:green'>Lift,<span style='color:green'>Lift,<span style='color:red'>Fail,<span style='color:green'>Lift,<span style='color:green'>Lift,<span style='color:green'>Lift,<span style='color:green'>Lift,<span style='color:red'>Fail","<span style='color:red'>Fail,<span style='color:green'>Lift,<span style='color:green'>Lift,<span style='color:red'>Fail,<span style='color:green'>Lift,<span style='color:green'>Lift","0,0,1,1,0,0,0,0,0,1,1,0","0,0,1,1,1,1,0,1,1,1,1,0","0,1,1,0,1,1",10,20,20,"true","","","","","",NA,"",NA,NA,NA,NA,NA,NA,NA,NA,NA,NA,NA,NA,NA,NA,NA,NA,NA,NA,NA,NA,NA,NA,NA,NA,NA,NA,NA,NA,NA,NA,NA,NA,NA,NA,NA,NA,NA,NA,NA,"",NA,NA,NA,NA,NA,NA,NA,NA,NA,2025-11-20 22:23:16
"203889.40000000596","https://psyc-201.github.io/xiang2023/exp/index1.html?PROLIFIC_PID=REDACTED&STUDY_ID=691f8ca61c6b4dcbb0aeb5f4&SESSION_ID=691f923393c2e8a21cacff27","instructions",2,234731,"0.0-2.0","WOpHCwVljqWbB/datIEx/l129UweM8UFoB5/myFJFXykkN0DekzX4Q+BA4Ud6jb8tuiZ8ASRtFtuDKGUnzNqlhJyJvqKyjZA/lH0CY1jfKsfsmzCh0wmo/nE5Z1BvyaMu4T6t628HQQczyoKKdECa3t2SCRHDR70onUYJa57gsNPxJY4YyvVWdIUBqrvF3scQpET8HDZpIoaj1H8xYj3KCgibVQIpUNVmGQJXxi1+7HF4aHzIzX74fuQqzbntpCEjcqhqZwFtgH5dqNPlKDY7rJp3lKtUfIH3vXCrN1hbPeomCVsl+B3170hofffm/AbLO1xgOThAntxhnZy4mZk+w==","691f8ca61c6b4dcbb0aeb5f4","691f923393c2e8a21cacff27","index1","<span style='color:red'>Fail,<span style='color:red'>Fail,<span style='color:green'>Lift,<span style='color:green'>Lift,<span style='color:red'>Fail,<span style='color:red'>Fail,<span style='color:red'>Fail,<span style='color:red'>Fail,<span style='color:red'>Fail,<span style='color:green'>Lift,<span style='color:green'>Lift,<span style='color:red'>Fail","<span style='color:red'>Fail,<span style='color:red'>Fail,<span style='color:green'>Lift,<span style='color:green'>Lift,<span style='color:green'>Lift,<span style='color:green'>Lift,<span style='color:red'>Fail,<span style='color:green'>Lift,<span style='color:green'>Lift,<span style='color:green'>Lift,<span style='color:green'>Lift,<span style='color:red'>Fail","<span style='color:red'>Fail,<span style='color:green'>Lift,<span style='color:green'>Lift,<span style='color:red'>Fail,<span style='color:green'>Lift,<span style='color:green'>Lift","0,0,1,1,0,0,0,0,0,1,1,0","0,0,1,1,1,1,0,1,1,1,1,0","0,1,1,0,1,1",10,20,20,"","[{""page_index"":0,""viewing_time"":21024.40000000596},{""page_index"":1,""viewing_time"":35338.40000000596},{""page_index"":2,""viewing_time"":14768.59999999404},{""page_index"":3,""viewing_time"":28973.09999999404},{""page_index"":4,""viewing_time"":78143.59999999404},{""page_index"":5,""viewing_time"":16776.5},{""page_index"":6,""viewing_time"":8862}]","","","","",NA,"",NA,NA,NA,NA,NA,NA,NA,NA,NA,NA,NA,NA,NA,NA,NA,NA,NA,NA,NA,NA,NA,NA,NA,NA,NA,NA,NA,NA,NA,NA,NA,NA,NA,NA,NA,NA,NA,NA,NA,"",NA,NA,NA,NA,NA,NA,NA,NA,NA,2025-11-20 22:23:16
"null","https://psyc-201.github.io/xiang2023/exp/index1.html?PROLIFIC_PID=REDACTED&STUDY_ID=691f8ca61c6b4dcbb0aeb5f4&SESSION_ID=691f923393c2e8a21cacff27","html-keyboard-response",3,235748,"0.0-3.0","WOpHCwVljqWbB/datIEx/l129UweM8UFoB5/myFJFXykkN0DekzX4Q+BA4Ud6jb8tuiZ8ASRtFtuDKGUnzNqlhJyJvqKyjZA/lH0CY1jfKsfsmzCh0wmo/nE5Z1BvyaMu4T6t628HQQczyoKKdECa3t2SCRHDR70onUYJa57gsNPxJY4YyvVWdIUBqrvF3scQpET8HDZpIoaj1H8xYj3KCgibVQIpUNVmGQJXxi1+7HF4aHzIzX74fuQqzbntpCEjcqhqZwFtgH5dqNPlKDY7rJp3lKtUfIH3vXCrN1hbPeomCVsl+B3170hofffm/AbLO1xgOThAntxhnZy4mZk+w==","691f8ca61c6b4dcbb0aeb5f4","691f923393c2e8a21cacff27","index1","<span style='color:red'>Fail,<span style='color:red'>Fail,<span style='color:green'>Lift,<span style='color:green'>Lift,<span style='color:red'>Fail,<span style='color:red'>Fail,<span style='color:red'>Fail,<span style='color:red'>Fail,<span style='color:red'>Fail,<span style='color:green'>Lift,<span style='color:green'>Lift,<span style='color:red'>Fail","<span style='color:red'>Fail,<span style='color:red'>Fail,<span style='color:green'>Lift,<span style='color:green'>Lift,<span style='color:green'>Lift,<span style='color:green'>Lift,<span style='color:red'>Fail,<span style='color:green'>Lift,<span style='color:green'>Lift,<span style='color:green'>Lift,<span style='color:green'>Lift,<span style='color:red'>Fail","<span style='color:red'>Fail,<span style='color:green'>Lift,<span style='color:green'>Lift,<span style='color:red'>Fail,<span style='color:green'>Lift,<span style='color:green'>Lift","0,0,1,1,0,0,0,0,0,1,1,0","0,0,1,1,1,1,0,1,1,1,1,0","0,1,1,0,1,1",10,20,20,"",""," ","null","","",NA,"",NA,NA,NA,NA,NA,NA,NA,NA,NA,NA,NA,NA,NA,NA,NA,NA,NA,NA,NA,NA,NA,NA,NA,NA,NA,NA,NA,NA,NA,NA,NA,NA,NA,NA,NA,NA,NA,NA,NA,"",NA,NA,NA,NA,NA,NA,NA,NA,NA,2025-11-20 22:23:16
"19747.59999999404","https://psyc-201.github.io/xiang2023/exp/index1.html?PROLIFIC_PID=REDACTED&STUDY_ID=691f8ca61c6b4dcbb0aeb5f4&SESSION_ID=691f923393c2e8a21cacff27","survey-multi-choice",4,255504,"0.0-4.0","WOpHCwVljqWbB/datIEx/l129UweM8UFoB5/myFJFXykkN0DekzX4Q+BA4Ud6jb8tuiZ8ASRtFtuDKGUnzNqlhJyJvqKyjZA/lH0CY1jfKsfsmzCh0wmo/nE5Z1BvyaMu4T6t628HQQczyoKKdECa3t2SCRHDR70onUYJa57gsNPxJY4YyvVWdIUBqrvF3scQpET8HDZpIoaj1H8xYj3KCgibVQIpUNVmGQJXxi1+7HF4aHzIzX74fuQqzbntpCEjcqhqZwFtgH5dqNPlKDY7rJp3lKtUfIH3vXCrN1hbPeomCVsl+B3170hofffm/AbLO1xgOThAntxhnZy4mZk+w==","691f8ca61c6b4dcbb0aeb5f4","691f923393c2e8a21cacff27","index1","<span style='color:red'>Fail,<span style='color:red'>Fail,<span style='color:green'>Lift,<span style='color:green'>Lift,<span style='color:red'>Fail,<span style='color:red'>Fail,<span style='color:red'>Fail,<span style='color:red'>Fail,<span style='color:red'>Fail,<span style='color:green'>Lift,<span style='color:green'>Lift,<span style='color:red'>Fail","<span style='color:red'>Fail,<span style='color:red'>Fail,<span style='color:green'>Lift,<span style='color:green'>Lift,<span style='color:green'>Lift,<span style='color:green'>Lift,<span style='color:red'>Fail,<span style='color:green'>Lift,<span style='color:green'>Lift,<span style='color:green'>Lift,<span style='color:green'>Lift,<span style='color:red'>Fail","<span style='color:red'>Fail,<span style='color:green'>Lift,<span style='color:green'>Lift,<span style='color:red'>Fail,<span style='color:green'>Lift,<span style='color:green'>Lift","0,0,1,1,0,0,0,0,0,1,1,0","0,0,1,1,1,1,0,1,1,1,1,0","0,1,1,0,1,1",10,20,20,"","","","","{""Q0"":""It consists of multiple contests, each contest with three rounds."",""Q1"":""When a new contest begins."",""Q2"":""The box weight always stays the same (equivalent to strength of 5)."",""Q3"":""Each will get $20."",""Q4"":""How close my guesses are to the actual outcome.""}","[0,1,2,3,4]",NA,"",NA,NA,NA,NA,NA,NA,NA,NA,NA,NA,NA,NA,NA,NA,NA,NA,NA,NA,NA,NA,NA,NA,NA,NA,NA,NA,NA,NA,NA,NA,NA,NA,NA,NA,NA,NA,NA,NA,NA,"",NA,NA,NA,NA,NA,NA,NA,NA,NA,2025-11-20 22:23:16
"19069.30000001192","https://psyc-201.github.io/xiang2023/exp/index1.html?PROLIFIC_PID=REDACTED&STUDY_ID=691f8ca61c6b4dcbb0aeb5f4&SESSION_ID=691f923393c2e8a21cacff27","instructions",5,274590,"0.0-305.0","WOpHCwVljqWbB/datIEx/l129UweM8UFoB5/myFJFXykkN0DekzX4Q+BA4Ud6jb8tuiZ8ASRtFtuDKGUnzNqlhJyJvqKyjZA/lH0CY1jfKsfsmzCh0wmo/nE5Z1BvyaMu4T6t628HQQczyoKKdECa3t2SCRHDR70onUYJa57gsNPxJY4YyvVWdIUBqrvF3scQpET8HDZpIoaj1H8xYj3KCgibVQIpUNVmGQJXxi1+7HF4aHzIzX74fuQqzbntpCEjcqhqZwFtgH5dqNPlKDY7rJp3lKtUfIH3vXCrN1hbPeomCVsl+B3170hofffm/AbLO1xgOThAntxhnZy4mZk+w==","691f8ca61c6b4dcbb0aeb5f4","691f923393c2e8a21cacff27","index1","<span style='color:red'>Fail,<span style='color:red'>Fail,<span style='color:green'>Lift,<span style='color:green'>Lift,<span style='color:red'>Fail,<span style='color:red'>Fail,<span style='color:red'>Fail,<span style='color:red'>Fail,<span style='color:red'>Fail,<span style='color:green'>Lift,<span style='color:green'>Lift,<span style='color:red'>Fail","<span style='color:red'>Fail,<span style='color:red'>Fail,<span style='color:green'>Lift,<span style='color:green'>Lift,<span style='color:green'>Lift,<span style='color:green'>Lift,<span style='color:red'>Fail,<span style='color:green'>Lift,<span style='color:green'>Lift,<span style='color:green'>Lift,<span style='color:green'>Lift,<span style='color:red'>Fail","<span style='color:red'>Fail,<span style='color:green'>Lift,<span style='color:green'>Lift,<span style='color:red'>Fail,<span style='color:green'>Lift,<span style='color:green'>Lift","0,0,1,1,0,0,0,0,0,1,1,0","0,0,1,1,1,1,0,1,1,1,1,0","0,1,1,0,1,1",10,20,20,"","[{""page_index"":0,""viewing_time"":12171.800000011921},{""page_index"":1,""viewing_time"":6896.9000000059605}]","","","","",NA,"",NA,NA,NA,NA,NA,NA,NA,NA,NA,NA,NA,NA,NA,NA,NA,NA,NA,NA,NA,NA,NA,NA,NA,NA,NA,NA,NA,NA,NA,NA,NA,NA,NA,NA,NA,NA,NA,NA,NA,"",NA,NA,NA,NA,NA,NA,NA,NA,NA,2025-11-20 22:23:16
"null","https://psyc-201.github.io/xiang2023/exp/index1.html?PROLIFIC_PID=REDACTED&STUDY_ID=691f8ca61c6b4dcbb0aeb5f4&SESSION_ID=691f923393c2e8a21cacff27","html-keyboard-response",6,275602,"0.0-306.0","WOpHCwVljqWbB/datIEx/l129UweM8UFoB5/myFJFXykkN0DekzX4Q+BA4Ud6jb8tuiZ8ASRtFtuDKGUnzNqlhJyJvqKyjZA/lH0CY1jfKsfsmzCh0wmo/nE5Z1BvyaMu4T6t628HQQczyoKKdECa3t2SCRHDR70onUYJa57gsNPxJY4YyvVWdIUBqrvF3scQpET8HDZpIoaj1H8xYj3KCgibVQIpUNVmGQJXxi1+7HF4aHzIzX74fuQqzbntpCEjcqhqZwFtgH5dqNPlKDY7rJp3lKtUfIH3vXCrN1hbPeomCVsl+B3170hofffm/AbLO1xgOThAntxhnZy4mZk+w==","691f8ca61c6b4dcbb0aeb5f4","691f923393c2e8a21cacff27","index1","<span style='color:red'>Fail,<span style='color:red'>Fail,<span style='color:green'>Lift,<span style='color:green'>Lift,<span style='color:red'>Fail,<span style='color:red'>Fail,<span style='color:red'>Fail,<span style='color:red'>Fail,<span style='color:red'>Fail,<span style='color:green'>Lift,<span style='color:green'>Lift,<span style='color:red'>Fail","<span style='color:red'>Fail,<span style='color:red'>Fail,<span style='color:green'>Lift,<span style='color:green'>Lift,<span style='color:green'>Lift,<span style='color:green'>Lift,<span style='color:red'>Fail,<span style='color:green'>Lift,<span style='color:green'>Lift,<span style='color:green'>Lift,<span style='color:green'>Lift,<span style='color:red'>Fail","<span style='color:red'>Fail,<span style='color:green'>Lift,<span style='color:green'>Lift,<span style='color:red'>Fail,<span style='color:green'>Lift,<span style='color:green'>Lift","0,0,1,1,0,0,0,0,0,1,1,0","0,0,1,1,1,1,0,1,1,1,1,0","0,1,1,0,1,1",10,20,20,"",""," ","null","","",1,"",NA,NA,NA,NA,NA,NA,NA,NA,NA,NA,NA,NA,NA,NA,NA,NA,NA,NA,NA,NA,NA,NA,NA,NA,NA,NA,NA,NA,NA,NA,NA,NA,NA,NA,NA,NA,NA,NA,NA,"",NA,NA,NA,NA,NA,NA,NA,NA,NA,2025-11-20 22:23:16
"null","https://psyc-201.github.io/xiang2023/exp/index1.html?PROLIFIC_PID=REDACTED&STUDY_ID=691f8ca61c6b4dcbb0aeb5f4&SESSION_ID=691f923393c2e8a21cacff27","html-keyboard-response",7,278612,"0.0-307.0","WOpHCwVljqWbB/datIEx/l129UweM8UFoB5/myFJFXykkN0DekzX4Q+BA4Ud6jb8tuiZ8ASRtFtuDKGUnzNqlhJyJvqKyjZA/lH0CY1jfKsfsmzCh0wmo/nE5Z1BvyaMu4T6t628HQQczyoKKdECa3t2SCRHDR70onUYJa57gsNPxJY4YyvVWdIUBqrvF3scQpET8HDZpIoaj1H8xYj3KCgibVQIpUNVmGQJXxi1+7HF4aHzIzX74fuQqzbntpCEjcqhqZwFtgH5dqNPlKDY7rJp3lKtUfIH3vXCrN1hbPeomCVsl+B3170hofffm/AbLO1xgOThAntxhnZy4mZk+w==","691f8ca61c6b4dcbb0aeb5f4","691f923393c2e8a21cacff27","index1","<span style='color:red'>Fail,<span style='color:red'>Fail,<span style='color:green'>Lift,<span style='color:green'>Lift,<span style='color:red'>Fail,<span style='color:red'>Fail,<span style='color:red'>Fail,<span style='color:red'>Fail,<span style='color:red'>Fail,<span style='color:green'>Lift,<span style='color:green'>Lift,<span style='color:red'>Fail","<span style='color:red'>Fail,<span style='color:red'>Fail,<span style='color:green'>Lift,<span style='color:green'>Lift,<span style='color:green'>Lift,<span style='color:green'>Lift,<span style='color:red'>Fail,<span style='color:green'>Lift,<span style='color:green'>Lift,<span style='color:green'>Lift,<span style='color:green'>Lift,<span style='color:red'>Fail","<span style='color:red'>Fail,<span style='color:green'>Lift,<span style='color:green'>Lift,<span style='color:red'>Fail,<span style='color:green'>Lift,<span style='color:green'>Lift","0,0,1,1,0,0,0,0,0,1,1,0","0,0,1,1,1,1,0,1,1,1,1,0","0,1,1,0,1,1",10,20,20,"","","<p style='font-size:30px'><b> New Contest! </b></p>","null","","",1,"",NA,NA,NA,NA,NA,NA,NA,NA,NA,NA,NA,NA,NA,NA,NA,NA,NA,NA,NA,NA,NA,NA,NA,NA,NA,NA,NA,NA,NA,NA,NA,NA,NA,NA,NA,NA,NA,NA,NA,"",NA,NA,NA,NA,NA,NA,NA,NA,NA,2025-11-20 22:23:16
"15534.09999999404","https://psyc-201.github.io/xiang2023/exp/index1.html?PROLIFIC_PID=REDACTED&STUDY_ID=691f8ca61c6b4dcbb0aeb5f4&SESSION_ID=691f923393c2e8a21cacff27","survey-html-form",8,294154,"0.0-308.0","WOpHCwVljqWbB/datIEx/l129UweM8UFoB5/myFJFXykkN0DekzX4Q+BA4Ud6jb8tuiZ8ASRtFtuDKGUnzNqlhJyJvqKyjZA/lH0CY1jfKsfsmzCh0wmo/nE5Z1BvyaMu4T6t628HQQczyoKKdECa3t2SCRHDR70onUYJa57gsNPxJY4YyvVWdIUBqrvF3scQpET8HDZpIoaj1H8xYj3KCgibVQIpUNVmGQJXxi1+7HF4aHzIzX74fuQqzbntpCEjcqhqZwFtgH5dqNPlKDY7rJp3lKtUfIH3vXCrN1hbPeomCVsl+B3170hofffm/AbLO1xgOThAntxhnZy4mZk+w==","691f8ca61c6b4dcbb0aeb5f4","691f923393c2e8a21cacff27","index1","<span style='color:red'>Fail,<span style='color:red'>Fail,<span style='color:green'>Lift,<span style='color:green'>Lift,<span style='color:red'>Fail,<span style='color:red'>Fail,<span style='color:red'>Fail,<span style='color:red'>Fail,<span style='color:red'>Fail,<span style='color:green'>Lift,<span style='color:green'>Lift,<span style='color:red'>Fail","<span style='color:red'>Fail,<span style='color:red'>Fail,<span style='color:green'>Lift,<span style='color:green'>Lift,<span style='color:green'>Lift,<span style='color:green'>Lift,<span style='color:red'>Fail,<span style='color:green'>Lift,<span style='color:green'>Lift,<span style='color:green'>Lift,<span style='color:green'>Lift,<span style='color:red'>Fail","<span style='color:red'>Fail,<span style='color:green'>Lift,<span style='color:green'>Lift,<span style='color:red'>Fail,<span style='color:green'>Lift,<span style='color:green'>Lift","0,0,1,1,0,0,0,0,0,1,1,0","0,0,1,1,1,1,0,1,1,1,1,0","0,1,1,0,1,1",10,20,20,"","","","","{""box1"":""2"",""box2"":""3""}","",1,"round1_outcome",1,1,1,2,3,NA,NA,0,0,10,2,3,NA,NA,0,0,10,NA,NA,NA,NA,NA,NA,NA,NA,NA,NA,NA,NA,NA,NA,NA,NA,NA,NA,NA,NA,NA,NA,"",NA,NA,NA,NA,NA,NA,NA,NA,NA,2025-11-20 22:23:16
"8503.799999982119","https://psyc-201.github.io/xiang2023/exp/index1.html?PROLIFIC_PID=REDACTED&STUDY_ID=691f8ca61c6b4dcbb0aeb5f4&SESSION_ID=691f923393c2e8a21cacff27","survey-html-form",9,302669,"0.0-309.0","WOpHCwVljqWbB/datIEx/l129UweM8UFoB5/myFJFXykkN0DekzX4Q+BA4Ud6jb8tuiZ8ASRtFtuDKGUnzNqlhJyJvqKyjZA/lH0CY1jfKsfsmzCh0wmo/nE5Z1BvyaMu4T6t628HQQczyoKKdECa3t2SCRHDR70onUYJa57gsNPxJY4YyvVWdIUBqrvF3scQpET8HDZpIoaj1H8xYj3KCgibVQIpUNVmGQJXxi1+7HF4aHzIzX74fuQqzbntpCEjcqhqZwFtgH5dqNPlKDY7rJp3lKtUfIH3vXCrN1hbPeomCVsl+B3170hofffm/AbLO1xgOThAntxhnZy4mZk+w==","691f8ca61c6b4dcbb0aeb5f4","691f923393c2e8a21cacff27","index1","<span style='color:red'>Fail,<span style='color:red'>Fail,<span style='color:green'>Lift,<span style='color:green'>Lift,<span style='color:red'>Fail,<span style='color:red'>Fail,<span style='color:red'>Fail,<span style='color:red'>Fail,<span style='color:red'>Fail,<span style='color:green'>Lift,<span style='color:green'>Lift,<span style='color:red'>Fail","<span style='color:red'>Fail,<span style='color:red'>Fail,<span style='color:green'>Lift,<span style='color:green'>Lift,<span style='color:green'>Lift,<span style='color:green'>Lift,<span style='color:red'>Fail,<span style='color:green'>Lift,<span style='color:green'>Lift,<span style='color:green'>Lift,<span style='color:green'>Lift,<span style='color:red'>Fail","<span style='color:red'>Fail,<span style='color:green'>Lift,<span style='color:green'>Lift,<span style='color:red'>Fail,<span style='color:green'>Lift,<span style='color:green'>Lift","0,0,1,1,0,0,0,0,0,1,1,0","0,0,1,1,1,1,0,1,1,1,1,0","0,1,1,0,1,1",10,20,20,"","","","","{""box1"":""25"",""box2"":""25""}","",1,"round2_ready",2,1,2,NA,NA,NA,NA,NA,NA,NA,NA,NA,NA,NA,NA,NA,NA,25,25,25,25,NA,NA,NA,NA,NA,NA,NA,NA,NA,NA,NA,NA,NA,NA,NA,NA,NA,NA,"",NA,NA,NA,NA,NA,NA,NA,NA,NA,2025-11-20 22:23:16
"26494.59999999404","https://psyc-201.github.io/xiang2023/exp/index1.html?PROLIFIC_PID=REDACTED&STUDY_ID=691f8ca61c6b4dcbb0aeb5f4&SESSION_ID=691f923393c2e8a21cacff27","survey-html-form",10,329171,"0.0-310.0","WOpHCwVljqWbB/datIEx/l129UweM8UFoB5/myFJFXykkN0DekzX4Q+BA4Ud6jb8tuiZ8ASRtFtuDKGUnzNqlhJyJvqKyjZA/lH0CY1jfKsfsmzCh0wmo/nE5Z1BvyaMu4T6t628HQQczyoKKdECa3t2SCRHDR70onUYJa57gsNPxJY4YyvVWdIUBqrvF3scQpET8HDZpIoaj1H8xYj3KCgibVQIpUNVmGQJXxi1+7HF4aHzIzX74fuQqzbntpCEjcqhqZwFtgH5dqNPlKDY7rJp3lKtUfIH3vXCrN1hbPeomCVsl+B3170hofffm/AbLO1xgOThAntxhnZy4mZk+w==","691f8ca61c6b4dcbb0aeb5f4","691f923393c2e8a21cacff27","index1","<span style='color:red'>Fail,<span style='color:red'>Fail,<span style='color:green'>Lift,<span style='color:green'>Lift,<span style='color:red'>Fail,<span style='color:red'>Fail,<span style='color:red'>Fail,<span style='color:red'>Fail,<span style='color:red'>Fail,<span style='color:green'>Lift,<span style='color:green'>Lift,<span style='color:red'>Fail","<span style='color:red'>Fail,<span style='color:red'>Fail,<span style='color:green'>Lift,<span style='color:green'>Lift,<span style='color:green'>Lift,<span style='color:green'>Lift,<span style='color:red'>Fail,<span style='color:green'>Lift,<span style='color:green'>Lift,<span style='color:green'>Lift,<span style='color:green'>Lift,<span style='color:red'>Fail","<span style='color:red'>Fail,<span style='color:green'>Lift,<span style='color:green'>Lift,<span style='color:red'>Fail,<span style='color:green'>Lift,<span style='color:green'>Lift","0,0,1,1,0,0,0,0,0,1,1,0","0,0,1,1,1,1,0,1,1,1,1,0","0,1,1,0,1,1",10,20,20,"","","","","{""box1"":""1"",""box2"":""4"",""box4"":""75""}","",1,"round2_outcome",3,1,2,1,4,NA,75,0,1,20,NA,NA,NA,NA,NA,NA,NA,NA,NA,NA,NA,1,4,NA,75,0,1,20,NA,NA,NA,NA,NA,NA,NA,NA,NA,NA,NA,"",NA,NA,NA,NA,NA,NA,NA,NA,NA,2025-11-20 22:23:16
"4727.0999999940395","https://psyc-201.github.io/xiang2023/exp/index1.html?PROLIFIC_PID=REDACTED&STUDY_ID=691f8ca61c6b4dcbb0aeb5f4&SESSION_ID=691f923393c2e8a21cacff27","survey-html-form",11,333926,"0.0-311.0","WOpHCwVljqWbB/datIEx/l129UweM8UFoB5/myFJFXykkN0DekzX4Q+BA4Ud6jb8tuiZ8ASRtFtuDKGUnzNqlhJyJvqKyjZA/lH0CY1jfKsfsmzCh0wmo/nE5Z1BvyaMu4T6t628HQQczyoKKdECa3t2SCRHDR70onUYJa57gsNPxJY4YyvVWdIUBqrvF3scQpET8HDZpIoaj1H8xYj3KCgibVQIpUNVmGQJXxi1+7HF4aHzIzX74fuQqzbntpCEjcqhqZwFtgH5dqNPlKDY7rJp3lKtUfIH3vXCrN1hbPeomCVsl+B3170hofffm/AbLO1xgOThAntxhnZy4mZk+w==","691f8ca61c6b4dcbb0aeb5f4","691f923393c2e8a21cacff27","index1","<span style='color:red'>Fail,<span style='color:red'>Fail,<span style='color:green'>Lift,<span style='color:green'>Lift,<span style='color:red'>Fail,<span style='color:red'>Fail,<span style='color:red'>Fail,<span style='color:red'>Fail,<span style='color:red'>Fail,<span style='color:green'>Lift,<span style='color:green'>Lift,<span style='color:red'>Fail","<span style='color:red'>Fail,<span style='color:red'>Fail,<span style='color:green'>Lift,<span style='color:green'>Lift,<span style='color:green'>Lift,<span style='color:green'>Lift,<span style='color:red'>Fail,<span style='color:green'>Lift,<span style='color:green'>Lift,<span style='color:green'>Lift,<span style='color:green'>Lift,<span style='color:red'>Fail","<span style='color:red'>Fail,<span style='color:green'>Lift,<span style='color:green'>Lift,<span style='color:red'>Fail,<span style='color:green'>Lift,<span style='color:green'>Lift","0,0,1,1,0,0,0,0,0,1,1,0","0,0,1,1,1,1,0,1,1,1,1,0","0,1,1,0,1,1",10,20,20,"","","","","{""box1"":""100""}","",1,"round3_ready",4,1,3,NA,NA,NA,NA,NA,NA,NA,NA,NA,NA,NA,NA,NA,NA,100,100,NA,NA,NA,NA,NA,NA,NA,NA,NA,100,100,NA,NA,NA,NA,NA,NA,NA,NA,NA,"",NA,NA,NA,NA,NA,NA,NA,NA,NA,2025-11-20 22:23:16
"15841.09999999404","https://psyc-201.github.io/xiang2023/exp/index1.html?PROLIFIC_PID=REDACTED&STUDY_ID=691f8ca61c6b4dcbb0aeb5f4&SESSION_ID=691f923393c2e8a21cacff27","survey-html-form",12,349776,"0.0-313.0-0.0","WOpHCwVljqWbB/datIEx/l129UweM8UFoB5/myFJFXykkN0DekzX4Q+BA4Ud6jb8tuiZ8ASRtFtuDKGUnzNqlhJyJvqKyjZA/lH0CY1jfKsfsmzCh0wmo/nE5Z1BvyaMu4T6t628HQQczyoKKdECa3t2SCRHDR70onUYJa57gsNPxJY4YyvVWdIUBqrvF3scQpET8HDZpIoaj1H8xYj3KCgibVQIpUNVmGQJXxi1+7HF4aHzIzX74fuQqzbntpCEjcqhqZwFtgH5dqNPlKDY7rJp3lKtUfIH3vXCrN1hbPeomCVsl+B3170hofffm/AbLO1xgOThAntxhnZy4mZk+w==","691f8ca61c6b4dcbb0aeb5f4","691f923393c2e8a21cacff27","index1","<span style='color:red'>Fail,<span style='color:red'>Fail,<span style='color:green'>Lift,<span style='color:green'>Lift,<span style='color:red'>Fail,<span style='color:red'>Fail,<span style='color:red'>Fail,<span style='color:red'>Fail,<span style='color:red'>Fail,<span style='color:green'>Lift,<span style='color:green'>Lift,<span style='color:red'>Fail","<span style='color:red'>Fail,<span style='color:red'>Fail,<span style='color:green'>Lift,<span style='color:green'>Lift,<span style='color:green'>Lift,<span style='color:green'>Lift,<span style='color:red'>Fail,<span style='color:green'>Lift,<span style='color:green'>Lift,<span style='color:green'>Lift,<span style='color:green'>Lift,<span style='color:red'>Fail","<span style='color:red'>Fail,<span style='color:green'>Lift,<span style='color:green'>Lift,<span style='color:red'>Fail,<span style='color:green'>Lift,<span style='color:green'>Lift","0,0,1,1,0,0,0,0,0,1,1,0","0,0,1,1,1,1,0,1,1,1,1,0","0,1,1,0,1,1",10,20,20,"","","","","{""box1"":""1"",""box2"":""4"",""box3"":""999"",""box4"":""999""}","",2,"round3_fail",5,1,3,1,4,NA,NA,0,0,20,NA,NA,NA,NA,NA,NA,NA,NA,NA,NA,NA,NA,NA,NA,NA,NA,NA,NA,NA,NA,1,1,1,4,0,0,20,NA,NA,"",NA,NA,NA,NA,NA,NA,NA,NA,NA,2025-11-20 22:23:16
"null","https://psyc-201.github.io/xiang2023/exp/index1.html?PROLIFIC_PID=REDACTED&STUDY_ID=691f8ca61c6b4dcbb0aeb5f4&SESSION_ID=691f923393c2e8a21cacff27","html-keyboard-response",13,352782,"0.0-316.0","WOpHCwVljqWbB/datIEx/l129UweM8UFoB5/myFJFXykkN0DekzX4Q+BA4Ud6jb8tuiZ8ASRtFtuDKGUnzNqlhJyJvqKyjZA/lH0CY1jfKsfsmzCh0wmo/nE5Z1BvyaMu4T6t628HQQczyoKKdECa3t2SCRHDR70onUYJa57gsNPxJY4YyvVWdIUBqrvF3scQpET8HDZpIoaj1H8xYj3KCgibVQIpUNVmGQJXxi1+7HF4aHzIzX74fuQqzbntpCEjcqhqZwFtgH5dqNPlKDY7rJp3lKtUfIH3vXCrN1hbPeomCVsl+B3170hofffm/AbLO1xgOThAntxhnZy4mZk+w==","691f8ca61c6b4dcbb0aeb5f4","691f923393c2e8a21cacff27","index1","<span style='color:red'>Fail,<span style='color:red'>Fail,<span style='color:green'>Lift,<span style='color:green'>Lift,<span style='color:red'>Fail,<span style='color:red'>Fail,<span style='color:red'>Fail,<span style='color:red'>Fail,<span style='color:red'>Fail,<span style='color:green'>Lift,<span style='color:green'>Lift,<span style='color:red'>Fail","<span style='color:red'>Fail,<span style='color:red'>Fail,<span style='color:green'>Lift,<span style='color:green'>Lift,<span style='color:green'>Lift,<span style='color:green'>Lift,<span style='color:red'>Fail,<span style='color:green'>Lift,<span style='color:green'>Lift,<span style='color:green'>Lift,<span style='color:green'>Lift,<span style='color:red'>Fail","<span style='color:red'>Fail,<span style='color:green'>Lift,<span style='color:green'>Lift,<span style='color:red'>Fail,<span style='color:green'>Lift,<span style='color:green'>Lift","0,0,1,1,0,0,0,0,0,1,1,0","0,0,1,1,1,1,0,1,1,1,1,0","0,1,1,0,1,1",10,20,20,"","","<p style='font-size:30px'><b> New Contest! </b></p>","null","","",2,"",NA,NA,NA,NA,NA,NA,NA,NA,NA,NA,NA,NA,NA,NA,NA,NA,NA,NA,NA,NA,NA,NA,NA,NA,NA,NA,NA,NA,NA,NA,NA,NA,NA,NA,NA,NA,NA,NA,NA,"",NA,NA,NA,NA,NA,NA,NA,NA,NA,2025-11-20 22:23:16
"8057.5","https://psyc-201.github.io/xiang2023/exp/index1.html?PROLIFIC_PID=REDACTED&STUDY_ID=691f8ca61c6b4dcbb0aeb5f4&SESSION_ID=691f923393c2e8a21cacff27","survey-html-form",14,360846,"0.0-317.0","WOpHCwVljqWbB/datIEx/l129UweM8UFoB5/myFJFXykkN0DekzX4Q+BA4Ud6jb8tuiZ8ASRtFtuDKGUnzNqlhJyJvqKyjZA/lH0CY1jfKsfsmzCh0wmo/nE5Z1BvyaMu4T6t628HQQczyoKKdECa3t2SCRHDR70onUYJa57gsNPxJY4YyvVWdIUBqrvF3scQpET8HDZpIoaj1H8xYj3KCgibVQIpUNVmGQJXxi1+7HF4aHzIzX74fuQqzbntpCEjcqhqZwFtgH5dqNPlKDY7rJp3lKtUfIH3vXCrN1hbPeomCVsl+B3170hofffm/AbLO1xgOThAntxhnZy4mZk+w==","691f8ca61c6b4dcbb0aeb5f4","691f923393c2e8a21cacff27","index1","<span style='color:red'>Fail,<span style='color:red'>Fail,<span style='color:green'>Lift,<span style='color:green'>Lift,<span style='color:red'>Fail,<span style='color:red'>Fail,<span style='color:red'>Fail,<span style='color:red'>Fail,<span style='color:red'>Fail,<span style='color:green'>Lift,<span style='color:green'>Lift,<span style='color:red'>Fail","<span style='color:red'>Fail,<span style='color:red'>Fail,<span style='color:green'>Lift,<span style='color:green'>Lift,<span style='color:green'>Lift,<span style='color:green'>Lift,<span style='color:red'>Fail,<span style='color:green'>Lift,<span style='color:green'>Lift,<span style='color:green'>Lift,<span style='color:green'>Lift,<span style='color:red'>Fail","<span style='color:red'>Fail,<span style='color:green'>Lift,<span style='color:green'>Lift,<span style='color:red'>Fail,<span style='color:green'>Lift,<span style='color:green'>Lift","0,0,1,1,0,0,0,0,0,1,1,0","0,0,1,1,1,1,0,1,1,1,1,0","0,1,1,0,1,1",10,20,20,"","","","","{""box1"":""2"",""box2"":""2""}","",2,"round1_outcome",1,2,1,2,2,NA,NA,0,0,10,2,2,NA,NA,0,0,10,NA,NA,NA,NA,NA,NA,NA,NA,NA,NA,NA,NA,NA,NA,NA,NA,NA,NA,NA,NA,NA,NA,"",NA,NA,NA,NA,NA,NA,NA,NA,NA,2025-11-20 22:23:16
"6265.4000000059605","https://psyc-201.github.io/xiang2023/exp/index1.html?PROLIFIC_PID=REDACTED&STUDY_ID=691f8ca61c6b4dcbb0aeb5f4&SESSION_ID=691f923393c2e8a21cacff27","survey-html-form",15,367118,"0.0-318.0","WOpHCwVljqWbB/datIEx/l129UweM8UFoB5/myFJFXykkN0DekzX4Q+BA4Ud6jb8tuiZ8ASRtFtuDKGUnzNqlhJyJvqKyjZA/lH0CY1jfKsfsmzCh0wmo/nE5Z1BvyaMu4T6t628HQQczyoKKdECa3t2SCRHDR70onUYJa57gsNPxJY4YyvVWdIUBqrvF3scQpET8HDZpIoaj1H8xYj3KCgibVQIpUNVmGQJXxi1+7HF4aHzIzX74fuQqzbntpCEjcqhqZwFtgH5dqNPlKDY7rJp3lKtUfIH3vXCrN1hbPeomCVsl+B3170hofffm/AbLO1xgOThAntxhnZy4mZk+w==","691f8ca61c6b4dcbb0aeb5f4","691f923393c2e8a21cacff27","index1","<span style='color:red'>Fail,<span style='color:red'>Fail,<span style='color:green'>Lift,<span style='color:green'>Lift,<span style='color:red'>Fail,<span style='color:red'>Fail,<span style='color:red'>Fail,<span style='color:red'>Fail,<span style='color:red'>Fail,<span style='color:green'>Lift,<span style='color:green'>Lift,<span style='color:red'>Fail","<span style='color:red'>Fail,<span style='color:red'>Fail,<span style='color:green'>Lift,<span style='color:green'>Lift,<span style='color:green'>Lift,<span style='color:green'>Lift,<span style='color:red'>Fail,<span style='color:green'>Lift,<span style='color:green'>Lift,<span style='color:green'>Lift,<span style='color:green'>Lift,<span style='color:red'>Fail","<span style='color:red'>Fail,<span style='color:green'>Lift,<span style='color:green'>Lift,<span style='color:red'>Fail,<span style='color:green'>Lift,<span style='color:green'>Lift","0,0,1,1,0,0,0,0,0,1,1,0","0,0,1,1,1,1,0,1,1,1,1,0","0,1,1,0,1,1",10,20,20,"","","","","{""box1"":""25"",""box2"":""40""}","",2,"round2_ready",2,2,2,NA,NA,NA,NA,NA,NA,NA,NA,NA,NA,NA,NA,NA,NA,25,40,25,40,NA,NA,NA,NA,NA,NA,NA,NA,NA,NA,NA,NA,NA,NA,NA,NA,NA,NA,"",NA,NA,NA,NA,NA,NA,NA,NA,NA,2025-11-20 22:23:16
"11420.90000000596","https://psyc-201.github.io/xiang2023/exp/index1.html?PROLIFIC_PID=REDACTED&STUDY_ID=691f8ca61c6b4dcbb0aeb5f4&SESSION_ID=691f923393c2e8a21cacff27","survey-html-form",16,378545,"0.0-319.0","WOpHCwVljqWbB/datIEx/l129UweM8UFoB5/myFJFXykkN0DekzX4Q+BA4Ud6jb8tuiZ8ASRtFtuDKGUnzNqlhJyJvqKyjZA/lH0CY1jfKsfsmzCh0wmo/nE5Z1BvyaMu4T6t628HQQczyoKKdECa3t2SCRHDR70onUYJa57gsNPxJY4YyvVWdIUBqrvF3scQpET8HDZpIoaj1H8xYj3KCgibVQIpUNVmGQJXxi1+7HF4aHzIzX74fuQqzbntpCEjcqhqZwFtgH5dqNPlKDY7rJp3lKtUfIH3vXCrN1hbPeomCVsl+B3170hofffm/AbLO1xgOThAntxhnZy4mZk+w==","691f8ca61c6b4dcbb0aeb5f4","691f923393c2e8a21cacff27","index1","<span style='color:red'>Fail,<span style='color:red'>Fail,<span style='color:green'>Lift,<span style='color:green'>Lift,<span style='color:red'>Fail,<span style='color:red'>Fail,<span style='color:red'>Fail,<span style='color:red'>Fail,<span style='color:red'>Fail,<span style='color:green'>Lift,<span style='color:green'>Lift,<span style='color:red'>Fail","<span style='color:red'>Fail,<span style='color:red'>Fail,<span style='color:green'>Lift,<span style='color:green'>Lift,<span style='color:green'>Lift,<span style='color:green'>Lift,<span style='color:red'>Fail,<span style='color:green'>Lift,<span style='color:green'>Lift,<span style='color:green'>Lift,<span style='color:green'>Lift,<span style='color:red'>Fail","<span style='color:red'>Fail,<span style='color:green'>Lift,<span style='color:green'>Lift,<span style='color:red'>Fail,<span style='color:green'>Lift,<span style='color:green'>Lift","0,0,1,1,0,0,0,0,0,1,1,0","0,0,1,1,1,1,0,1,1,1,1,0","0,1,1,0,1,1",10,20,20,"","","","","{""box1"":""1"",""box2"":""1""}","",2,"round2_outcome",3,2,2,1,1,NA,NA,0,0,20,NA,NA,NA,NA,NA,NA,NA,NA,NA,NA,NA,1,1,NA,NA,0,0,20,NA,NA,NA,NA,NA,NA,NA,NA,NA,NA,NA,"",NA,NA,NA,NA,NA,NA,NA,NA,NA,2025-11-20 22:23:16
"2146.800000011921","https://psyc-201.github.io/xiang2023/exp/index1.html?PROLIFIC_PID=REDACTED&STUDY_ID=691f8ca61c6b4dcbb0aeb5f4&SESSION_ID=691f923393c2e8a21cacff27","survey-html-form",17,380699,"0.0-320.0","WOpHCwVljqWbB/datIEx/l129UweM8UFoB5/myFJFXykkN0DekzX4Q+BA4Ud6jb8tuiZ8ASRtFtuDKGUnzNqlhJyJvqKyjZA/lH0CY1jfKsfsmzCh0wmo/nE5Z1BvyaMu4T6t628HQQczyoKKdECa3t2SCRHDR70onUYJa57gsNPxJY4YyvVWdIUBqrvF3scQpET8HDZpIoaj1H8xYj3KCgibVQIpUNVmGQJXxi1+7HF4aHzIzX74fuQqzbntpCEjcqhqZwFtgH5dqNPlKDY7rJp3lKtUfIH3vXCrN1hbPeomCVsl+B3170hofffm/AbLO1xgOThAntxhnZy4mZk+w==","691f8ca61c6b4dcbb0aeb5f4","691f923393c2e8a21cacff27","index1","<span style='color:red'>Fail,<span style='color:red'>Fail,<span style='color:green'>Lift,<span style='color:green'>Lift,<span style='color:red'>Fail,<span style='color:red'>Fail,<span style='color:red'>Fail,<span style='color:red'>Fail,<span style='color:red'>Fail,<span style='color:green'>Lift,<span style='color:green'>Lift,<span style='color:red'>Fail","<span style='color:red'>Fail,<span style='color:red'>Fail,<span style='color:green'>Lift,<span style='color:green'>Lift,<span style='color:green'>Lift,<span style='color:green'>Lift,<span style='color:red'>Fail,<span style='color:green'>Lift,<span style='color:green'>Lift,<span style='color:green'>Lift,<span style='color:green'>Lift,<span style='color:red'>Fail","<span style='color:red'>Fail,<span style='color:green'>Lift,<span style='color:green'>Lift,<span style='color:red'>Fail,<span style='color:green'>Lift,<span style='color:green'>Lift","0,0,1,1,0,0,0,0,0,1,1,0","0,0,1,1,1,1,0,1,1,1,1,0","0,1,1,0,1,1",10,20,20,"","","","","{""box1"":""50""}","",2,"round3_ready",4,2,3,NA,NA,NA,NA,NA,NA,NA,NA,NA,NA,NA,NA,NA,NA,50,50,NA,NA,NA,NA,NA,NA,NA,NA,NA,50,50,NA,NA,NA,NA,NA,NA,NA,NA,NA,"",NA,NA,NA,NA,NA,NA,NA,NA,NA,2025-11-20 22:23:16
"8175.4000000059605","https://psyc-201.github.io/xiang2023/exp/index1.html?PROLIFIC_PID=REDACTED&STUDY_ID=691f8ca61c6b4dcbb0aeb5f4&SESSION_ID=691f923393c2e8a21cacff27","survey-html-form",18,388889,"0.0-322.0-0.0","WOpHCwVljqWbB/datIEx/l129UweM8UFoB5/myFJFXykkN0DekzX4Q+BA4Ud6jb8tuiZ8ASRtFtuDKGUnzNqlhJyJvqKyjZA/lH0CY1jfKsfsmzCh0wmo/nE5Z1BvyaMu4T6t628HQQczyoKKdECa3t2SCRHDR70onUYJa57gsNPxJY4YyvVWdIUBqrvF3scQpET8HDZpIoaj1H8xYj3KCgibVQIpUNVmGQJXxi1+7HF4aHzIzX74fuQqzbntpCEjcqhqZwFtgH5dqNPlKDY7rJp3lKtUfIH3vXCrN1hbPeomCVsl+B3170hofffm/AbLO1xgOThAntxhnZy4mZk+w==","691f8ca61c6b4dcbb0aeb5f4","691f923393c2e8a21cacff27","index1","<span style='color:red'>Fail,<span style='color:red'>Fail,<span style='color:green'>Lift,<span style='color:green'>Lift,<span style='color:red'>Fail,<span style='color:red'>Fail,<span style='color:red'>Fail,<span style='color:red'>Fail,<span style='color:red'>Fail,<span style='color:green'>Lift,<span style='color:green'>Lift,<span style='color:red'>Fail","<span style='color:red'>Fail,<span style='color:red'>Fail,<span style='color:green'>Lift,<span style='color:green'>Lift,<span style='color:green'>Lift,<span style='color:green'>Lift,<span style='color:red'>Fail,<span style='color:green'>Lift,<span style='color:green'>Lift,<span style='color:green'>Lift,<span style='color:green'>Lift,<span style='color:red'>Fail","<span style='color:red'>Fail,<span style='color:green'>Lift,<span style='color:green'>Lift,<span style='color:red'>Fail,<span style='color:green'>Lift,<span style='color:green'>Lift","0,0,1,1,0,0,0,0,0,1,1,0","0,0,1,1,1,1,0,1,1,1,1,0","0,1,1,0,1,1",10,20,20,"","","","","{""box1"":""1"",""box2"":""1"",""box3"":""999"",""box4"":""999""}","",3,"round3_fail",5,2,3,1,1,NA,NA,0,0,20,NA,NA,NA,NA,NA,NA,NA,NA,NA,NA,NA,NA,NA,NA,NA,NA,NA,NA,NA,NA,1,1,1,1,0,0,20,NA,NA,"",NA,NA,NA,NA,NA,NA,NA,NA,NA,2025-11-20 22:23:16
"null","https://psyc-201.github.io/xiang2023/exp/index1.html?PROLIFIC_PID=REDACTED&STUDY_ID=691f8ca61c6b4dcbb0aeb5f4&SESSION_ID=691f923393c2e8a21cacff27","html-keyboard-response",19,391904,"0.0-325.0","WOpHCwVljqWbB/datIEx/l129UweM8UFoB5/myFJFXykkN0DekzX4Q+BA4Ud6jb8tuiZ8ASRtFtuDKGUnzNqlhJyJvqKyjZA/lH0CY1jfKsfsmzCh0wmo/nE5Z1BvyaMu4T6t628HQQczyoKKdECa3t2SCRHDR70onUYJa57gsNPxJY4YyvVWdIUBqrvF3scQpET8HDZpIoaj1H8xYj3KCgibVQIpUNVmGQJXxi1+7HF4aHzIzX74fuQqzbntpCEjcqhqZwFtgH5dqNPlKDY7rJp3lKtUfIH3vXCrN1hbPeomCVsl+B3170hofffm/AbLO1xgOThAntxhnZy4mZk+w==","691f8ca61c6b4dcbb0aeb5f4","691f923393c2e8a21cacff27","index1","<span style='color:red'>Fail,<span style='color:red'>Fail,<span style='color:green'>Lift,<span style='color:green'>Lift,<span style='color:red'>Fail,<span style='color:red'>Fail,<span style='color:red'>Fail,<span style='color:red'>Fail,<span style='color:red'>Fail,<span style='color:green'>Lift,<span style='color:green'>Lift,<span style='color:red'>Fail","<span style='color:red'>Fail,<span style='color:red'>Fail,<span style='color:green'>Lift,<span style='color:green'>Lift,<span style='color:green'>Lift,<span style='color:green'>Lift,<span style='color:red'>Fail,<span style='color:green'>Lift,<span style='color:green'>Lift,<span style='color:green'>Lift,<span style='color:green'>Lift,<span style='color:red'>Fail","<span style='color:red'>Fail,<span style='color:green'>Lift,<span style='color:green'>Lift,<span style='color:red'>Fail,<span style='color:green'>Lift,<span style='color:green'>Lift","0,0,1,1,0,0,0,0,0,1,1,0","0,0,1,1,1,1,0,1,1,1,1,0","0,1,1,0,1,1",10,20,20,"","","<p style='font-size:30px'><b> New Contest! </b></p>","null","","",3,"",NA,NA,NA,NA,NA,NA,NA,NA,NA,NA,NA,NA,NA,NA,NA,NA,NA,NA,NA,NA,NA,NA,NA,NA,NA,NA,NA,NA,NA,NA,NA,NA,NA,NA,NA,NA,NA,NA,NA,"",NA,NA,NA,NA,NA,NA,NA,NA,NA,2025-11-20 22:23:16
"17002.40000000596","https://psyc-201.github.io/xiang2023/exp/index1.html?PROLIFIC_PID=REDACTED&STUDY_ID=691f8ca61c6b4dcbb0aeb5f4&SESSION_ID=691f923393c2e8a21cacff27","survey-html-form",20,408914,"0.0-326.0","WOpHCwVljqWbB/datIEx/l129UweM8UFoB5/myFJFXykkN0DekzX4Q+BA4Ud6jb8tuiZ8ASRtFtuDKGUnzNqlhJyJvqKyjZA/lH0CY1jfKsfsmzCh0wmo/nE5Z1BvyaMu4T6t628HQQczyoKKdECa3t2SCRHDR70onUYJa57gsNPxJY4YyvVWdIUBqrvF3scQpET8HDZpIoaj1H8xYj3KCgibVQIpUNVmGQJXxi1+7HF4aHzIzX74fuQqzbntpCEjcqhqZwFtgH5dqNPlKDY7rJp3lKtUfIH3vXCrN1hbPeomCVsl+B3170hofffm/AbLO1xgOThAntxhnZy4mZk+w==","691f8ca61c6b4dcbb0aeb5f4","691f923393c2e8a21cacff27","index1","<span style='color:red'>Fail,<span style='color:red'>Fail,<span style='color:green'>Lift,<span style='color:green'>Lift,<span style='color:red'>Fail,<span style='color:red'>Fail,<span style='color:red'>Fail,<span style='color:red'>Fail,<span style='color:red'>Fail,<span style='color:green'>Lift,<span style='color:green'>Lift,<span style='color:red'>Fail","<span style='color:red'>Fail,<span style='color:red'>Fail,<span style='color:green'>Lift,<span style='color:green'>Lift,<span style='color:green'>Lift,<span style='color:green'>Lift,<span style='color:red'>Fail,<span style='color:green'>Lift,<span style='color:green'>Lift,<span style='color:green'>Lift,<span style='color:green'>Lift,<span style='color:red'>Fail","<span style='color:red'>Fail,<span style='color:green'>Lift,<span style='color:green'>Lift,<span style='color:red'>Fail,<span style='color:green'>Lift,<span style='color:green'>Lift","0,0,1,1,0,0,0,0,0,1,1,0","0,0,1,1,1,1,0,1,1,1,1,0","0,1,1,0,1,1",10,20,20,"","","","","{""box1"":""1"",""box2"":""5"",""box4"":""75""}","",3,"round1_outcome",1,3,1,1,5,NA,75,0,1,10,1,5,NA,75,0,1,10,NA,NA,NA,NA,NA,NA,NA,NA,NA,NA,NA,NA,NA,NA,NA,NA,NA,NA,NA,NA,NA,NA,"",NA,NA,NA,NA,NA,NA,NA,NA,NA,2025-11-20 22:23:16
"7742.199999988079","https://psyc-201.github.io/xiang2023/exp/index1.html?PROLIFIC_PID=REDACTED&STUDY_ID=691f8ca61c6b4dcbb0aeb5f4&SESSION_ID=691f923393c2e8a21cacff27","survey-html-form",21,416661,"0.0-327.0","WOpHCwVljqWbB/datIEx/l129UweM8UFoB5/myFJFXykkN0DekzX4Q+BA4Ud6jb8tuiZ8ASRtFtuDKGUnzNqlhJyJvqKyjZA/lH0CY1jfKsfsmzCh0wmo/nE5Z1BvyaMu4T6t628HQQczyoKKdECa3t2SCRHDR70onUYJa57gsNPxJY4YyvVWdIUBqrvF3scQpET8HDZpIoaj1H8xYj3KCgibVQIpUNVmGQJXxi1+7HF4aHzIzX74fuQqzbntpCEjcqhqZwFtgH5dqNPlKDY7rJp3lKtUfIH3vXCrN1hbPeomCVsl+B3170hofffm/AbLO1xgOThAntxhnZy4mZk+w==","691f8ca61c6b4dcbb0aeb5f4","691f923393c2e8a21cacff27","index1","<span style='color:red'>Fail,<span style='color:red'>Fail,<span style='color:green'>Lift,<span style='color:green'>Lift,<span style='color:red'>Fail,<span style='color:red'>Fail,<span style='color:red'>Fail,<span style='color:red'>Fail,<span style='color:red'>Fail,<span style='color:green'>Lift,<span style='color:green'>Lift,<span style='color:red'>Fail","<span style='color:red'>Fail,<span style='color:red'>Fail,<span style='color:green'>Lift,<span style='color:green'>Lift,<span style='color:green'>Lift,<span style='color:green'>Lift,<span style='color:red'>Fail,<span style='color:green'>Lift,<span style='color:green'>Lift,<span style='color:green'>Lift,<span style='color:green'>Lift,<span style='color:red'>Fail","<span style='color:red'>Fail,<span style='color:green'>Lift,<span style='color:green'>Lift,<span style='color:red'>Fail,<span style='color:green'>Lift,<span style='color:green'>Lift","0,0,1,1,0,0,0,0,0,1,1,0","0,0,1,1,1,1,0,1,1,1,1,0","0,1,1,0,1,1",10,20,20,"","","","","{""box1"":""20"",""box2"":""75""}","",3,"round2_ready",2,3,2,NA,NA,NA,NA,NA,NA,NA,NA,NA,NA,NA,NA,NA,NA,20,75,20,75,NA,NA,NA,NA,NA,NA,NA,NA,NA,NA,NA,NA,NA,NA,NA,NA,NA,NA,"",NA,NA,NA,NA,NA,NA,NA,NA,NA,2025-11-20 22:23:16
"20515.80000001192","https://psyc-201.github.io/xiang2023/exp/index1.html?PROLIFIC_PID=REDACTED&STUDY_ID=691f8ca61c6b4dcbb0aeb5f4&SESSION_ID=691f923393c2e8a21cacff27","survey-html-form",22,437183,"0.0-328.0","WOpHCwVljqWbB/datIEx/l129UweM8UFoB5/myFJFXykkN0DekzX4Q+BA4Ud6jb8tuiZ8ASRtFtuDKGUnzNqlhJyJvqKyjZA/lH0CY1jfKsfsmzCh0wmo/nE5Z1BvyaMu4T6t628HQQczyoKKdECa3t2SCRHDR70onUYJa57gsNPxJY4YyvVWdIUBqrvF3scQpET8HDZpIoaj1H8xYj3KCgibVQIpUNVmGQJXxi1+7HF4aHzIzX74fuQqzbntpCEjcqhqZwFtgH5dqNPlKDY7rJp3lKtUfIH3vXCrN1hbPeomCVsl+B3170hofffm/AbLO1xgOThAntxhnZy4mZk+w==","691f8ca61c6b4dcbb0aeb5f4","691f923393c2e8a21cacff27","index1","<span style='color:red'>Fail,<span style='color:red'>Fail,<span style='color:green'>Lift,<span style='color:green'>Lift,<span style='color:red'>Fail,<span style='color:red'>Fail,<span style='color:red'>Fail,<span style='color:red'>Fail,<span style='color:red'>Fail,<span style='color:green'>Lift,<span style='color:green'>Lift,<span style='color:red'>Fail","<span style='color:red'>Fail,<span style='color:red'>Fail,<span style='color:green'>Lift,<span style='color:green'>Lift,<span style='color:green'>Lift,<span style='color:green'>Lift,<span style='color:red'>Fail,<span style='color:green'>Lift,<span style='color:green'>Lift,<span style='color:green'>Lift,<span style='color:green'>Lift,<span style='color:red'>Fail","<span style='color:red'>Fail,<span style='color:green'>Lift,<span style='color:green'>Lift,<span style='color:red'>Fail,<span style='color:green'>Lift,<span style='color:green'>Lift","0,0,1,1,0,0,0,0,0,1,1,0","0,0,1,1,1,1,0,1,1,1,1,0","0,1,1,0,1,1",10,20,20,"","","","","{""box1"":""5"",""box2"":""7"",""box3"":""100"",""box4"":""50""}","",3,"round2_outcome",3,3,2,5,7,100,50,1,1,20,NA,NA,NA,NA,NA,NA,NA,NA,NA,NA,NA,5,7,100,50,1,1,20,NA,NA,NA,NA,NA,NA,NA,NA,NA,NA,NA,"",NA,NA,NA,NA,NA,NA,NA,NA,NA,2025-11-20 22:23:16
"2200","https://psyc-201.github.io/xiang2023/exp/index1.html?PROLIFIC_PID=REDACTED&STUDY_ID=691f8ca61c6b4dcbb0aeb5f4&SESSION_ID=691f923393c2e8a21cacff27","survey-html-form",23,439391,"0.0-329.0","WOpHCwVljqWbB/datIEx/l129UweM8UFoB5/myFJFXykkN0DekzX4Q+BA4Ud6jb8tuiZ8ASRtFtuDKGUnzNqlhJyJvqKyjZA/lH0CY1jfKsfsmzCh0wmo/nE5Z1BvyaMu4T6t628HQQczyoKKdECa3t2SCRHDR70onUYJa57gsNPxJY4YyvVWdIUBqrvF3scQpET8HDZpIoaj1H8xYj3KCgibVQIpUNVmGQJXxi1+7HF4aHzIzX74fuQqzbntpCEjcqhqZwFtgH5dqNPlKDY7rJp3lKtUfIH3vXCrN1hbPeomCVsl+B3170hofffm/AbLO1xgOThAntxhnZy4mZk+w==","691f8ca61c6b4dcbb0aeb5f4","691f923393c2e8a21cacff27","index1","<span style='color:red'>Fail,<span style='color:red'>Fail,<span style='color:green'>Lift,<span style='color:green'>Lift,<span style='color:red'>Fail,<span style='color:red'>Fail,<span style='color:red'>Fail,<span style='color:red'>Fail,<span style='color:red'>Fail,<span style='color:green'>Lift,<span style='color:green'>Lift,<span style='color:red'>Fail","<span style='color:red'>Fail,<span style='color:red'>Fail,<span style='color:green'>Lift,<span style='color:green'>Lift,<span style='color:green'>Lift,<span style='color:green'>Lift,<span style='color:red'>Fail,<span style='color:green'>Lift,<span style='color:green'>Lift,<span style='color:green'>Lift,<span style='color:green'>Lift,<span style='color:red'>Fail","<span style='color:red'>Fail,<span style='color:green'>Lift,<span style='color:green'>Lift,<span style='color:red'>Fail,<span style='color:green'>Lift,<span style='color:green'>Lift","0,0,1,1,0,0,0,0,0,1,1,0","0,0,1,1,1,1,0,1,1,1,1,0","0,1,1,0,1,1",10,20,20,"","","","","{""box1"":""100""}","",3,"round3_ready",4,3,3,NA,NA,NA,NA,NA,NA,NA,NA,NA,NA,NA,NA,NA,NA,100,100,NA,NA,NA,NA,NA,NA,NA,NA,NA,100,100,NA,NA,NA,NA,NA,NA,NA,NA,NA,"",NA,NA,NA,NA,NA,NA,NA,NA,NA,2025-11-20 22:23:16
"15561.300000011921","https://psyc-201.github.io/xiang2023/exp/index1.html?PROLIFIC_PID=REDACTED&STUDY_ID=691f8ca61c6b4dcbb0aeb5f4&SESSION_ID=691f923393c2e8a21cacff27","survey-html-form",24,454965,"0.0-330.0-0.0","WOpHCwVljqWbB/datIEx/l129UweM8UFoB5/myFJFXykkN0DekzX4Q+BA4Ud6jb8tuiZ8ASRtFtuDKGUnzNqlhJyJvqKyjZA/lH0CY1jfKsfsmzCh0wmo/nE5Z1BvyaMu4T6t628HQQczyoKKdECa3t2SCRHDR70onUYJa57gsNPxJY4YyvVWdIUBqrvF3scQpET8HDZpIoaj1H8xYj3KCgibVQIpUNVmGQJXxi1+7HF4aHzIzX74fuQqzbntpCEjcqhqZwFtgH5dqNPlKDY7rJp3lKtUfIH3vXCrN1hbPeomCVsl+B3170hofffm/AbLO1xgOThAntxhnZy4mZk+w==","691f8ca61c6b4dcbb0aeb5f4","691f923393c2e8a21cacff27","index1","<span style='color:red'>Fail,<span style='color:red'>Fail,<span style='color:green'>Lift,<span style='color:green'>Lift,<span style='color:red'>Fail,<span style='color:red'>Fail,<span style='color:red'>Fail,<span style='color:red'>Fail,<span style='color:red'>Fail,<span style='color:green'>Lift,<span style='color:green'>Lift,<span style='color:red'>Fail","<span style='color:red'>Fail,<span style='color:red'>Fail,<span style='color:green'>Lift,<span style='color:green'>Lift,<span style='color:green'>Lift,<span style='color:green'>Lift,<span style='color:red'>Fail,<span style='color:green'>Lift,<span style='color:green'>Lift,<span style='color:green'>Lift,<span style='color:green'>Lift,<span style='color:red'>Fail","<span style='color:red'>Fail,<span style='color:green'>Lift,<span style='color:green'>Lift,<span style='color:red'>Fail,<span style='color:green'>Lift,<span style='color:green'>Lift","0,0,1,1,0,0,0,0,0,1,1,0","0,0,1,1,1,1,0,1,1,1,1,0","0,1,1,0,1,1",10,20,20,"","","","","{""box1"":""5"",""box2"":""7"",""box3"":""100"",""box4"":""75""}","",4,"round3_lift",5,3,3,5,7,100,75,1,1,20,NA,NA,NA,NA,NA,NA,NA,NA,NA,NA,NA,NA,NA,NA,NA,NA,NA,NA,NA,NA,NA,NA,5,7,1,1,20,100,75,"",NA,NA,NA,NA,NA,NA,NA,NA,NA,2025-11-20 22:23:16
"null","https://psyc-201.github.io/xiang2023/exp/index1.html?PROLIFIC_PID=REDACTED&STUDY_ID=691f8ca61c6b4dcbb0aeb5f4&SESSION_ID=691f923393c2e8a21cacff27","html-keyboard-response",25,457986,"0.0-334.0","WOpHCwVljqWbB/datIEx/l129UweM8UFoB5/myFJFXykkN0DekzX4Q+BA4Ud6jb8tuiZ8ASRtFtuDKGUnzNqlhJyJvqKyjZA/lH0CY1jfKsfsmzCh0wmo/nE5Z1BvyaMu4T6t628HQQczyoKKdECa3t2SCRHDR70onUYJa57gsNPxJY4YyvVWdIUBqrvF3scQpET8HDZpIoaj1H8xYj3KCgibVQIpUNVmGQJXxi1+7HF4aHzIzX74fuQqzbntpCEjcqhqZwFtgH5dqNPlKDY7rJp3lKtUfIH3vXCrN1hbPeomCVsl+B3170hofffm/AbLO1xgOThAntxhnZy4mZk+w==","691f8ca61c6b4dcbb0aeb5f4","691f923393c2e8a21cacff27","index1","<span style='color:red'>Fail,<span style='color:red'>Fail,<span style='color:green'>Lift,<span style='color:green'>Lift,<span style='color:red'>Fail,<span style='color:red'>Fail,<span style='color:red'>Fail,<span style='color:red'>Fail,<span style='color:red'>Fail,<span style='color:green'>Lift,<span style='color:green'>Lift,<span style='color:red'>Fail","<span style='color:red'>Fail,<span style='color:red'>Fail,<span style='color:green'>Lift,<span style='color:green'>Lift,<span style='color:green'>Lift,<span style='color:green'>Lift,<span style='color:red'>Fail,<span style='color:green'>Lift,<span style='color:green'>Lift,<span style='color:green'>Lift,<span style='color:green'>Lift,<span style='color:red'>Fail","<span style='color:red'>Fail,<span style='color:green'>Lift,<span style='color:green'>Lift,<span style='color:red'>Fail,<span style='color:green'>Lift,<span style='color:green'>Lift","0,0,1,1,0,0,0,0,0,1,1,0","0,0,1,1,1,1,0,1,1,1,1,0","0,1,1,0,1,1",10,20,20,"","","<p style='font-size:30px'><b> New Contest! </b></p>","null","","",4,"",NA,NA,NA,NA,NA,NA,NA,NA,NA,NA,NA,NA,NA,NA,NA,NA,NA,NA,NA,NA,NA,NA,NA,NA,NA,NA,NA,NA,NA,NA,NA,NA,NA,NA,NA,NA,NA,NA,NA,"",NA,NA,NA,NA,NA,NA,NA,NA,NA,2025-11-20 22:23:16
"8198.09999999404","https://psyc-201.github.io/xiang2023/exp/index1.html?PROLIFIC_PID=REDACTED&STUDY_ID=691f8ca61c6b4dcbb0aeb5f4&SESSION_ID=691f923393c2e8a21cacff27","survey-html-form",26,466190,"0.0-335.0","WOpHCwVljqWbB/datIEx/l129UweM8UFoB5/myFJFXykkN0DekzX4Q+BA4Ud6jb8tuiZ8ASRtFtuDKGUnzNqlhJyJvqKyjZA/lH0CY1jfKsfsmzCh0wmo/nE5Z1BvyaMu4T6t628HQQczyoKKdECa3t2SCRHDR70onUYJa57gsNPxJY4YyvVWdIUBqrvF3scQpET8HDZpIoaj1H8xYj3KCgibVQIpUNVmGQJXxi1+7HF4aHzIzX74fuQqzbntpCEjcqhqZwFtgH5dqNPlKDY7rJp3lKtUfIH3vXCrN1hbPeomCVsl+B3170hofffm/AbLO1xgOThAntxhnZy4mZk+w==","691f8ca61c6b4dcbb0aeb5f4","691f923393c2e8a21cacff27","index1","<span style='color:red'>Fail,<span style='color:red'>Fail,<span style='color:green'>Lift,<span style='color:green'>Lift,<span style='color:red'>Fail,<span style='color:red'>Fail,<span style='color:red'>Fail,<span style='color:red'>Fail,<span style='color:red'>Fail,<span style='color:green'>Lift,<span style='color:green'>Lift,<span style='color:red'>Fail","<span style='color:red'>Fail,<span style='color:red'>Fail,<span style='color:green'>Lift,<span style='color:green'>Lift,<span style='color:green'>Lift,<span style='color:green'>Lift,<span style='color:red'>Fail,<span style='color:green'>Lift,<span style='color:green'>Lift,<span style='color:green'>Lift,<span style='color:green'>Lift,<span style='color:red'>Fail","<span style='color:red'>Fail,<span style='color:green'>Lift,<span style='color:green'>Lift,<span style='color:red'>Fail,<span style='color:green'>Lift,<span style='color:green'>Lift","0,0,1,1,0,0,0,0,0,1,1,0","0,0,1,1,1,1,0,1,1,1,1,0","0,1,1,0,1,1",10,20,20,"","","","","{""box1"":""2"",""box2"":""1""}","",4,"round1_outcome",1,4,1,2,1,NA,NA,0,0,10,2,1,NA,NA,0,0,10,NA,NA,NA,NA,NA,NA,NA,NA,NA,NA,NA,NA,NA,NA,NA,NA,NA,NA,NA,NA,NA,NA,"",NA,NA,NA,NA,NA,NA,NA,NA,NA,2025-11-20 22:23:16
"5117.299999982119","https://psyc-201.github.io/xiang2023/exp/index1.html?PROLIFIC_PID=REDACTED&STUDY_ID=691f8ca61c6b4dcbb0aeb5f4&SESSION_ID=691f923393c2e8a21cacff27","survey-html-form",27,471319,"0.0-336.0","WOpHCwVljqWbB/datIEx/l129UweM8UFoB5/myFJFXykkN0DekzX4Q+BA4Ud6jb8tuiZ8ASRtFtuDKGUnzNqlhJyJvqKyjZA/lH0CY1jfKsfsmzCh0wmo/nE5Z1BvyaMu4T6t628HQQczyoKKdECa3t2SCRHDR70onUYJa57gsNPxJY4YyvVWdIUBqrvF3scQpET8HDZpIoaj1H8xYj3KCgibVQIpUNVmGQJXxi1+7HF4aHzIzX74fuQqzbntpCEjcqhqZwFtgH5dqNPlKDY7rJp3lKtUfIH3vXCrN1hbPeomCVsl+B3170hofffm/AbLO1xgOThAntxhnZy4mZk+w==","691f8ca61c6b4dcbb0aeb5f4","691f923393c2e8a21cacff27","index1","<span style='color:red'>Fail,<span style='color:red'>Fail,<span style='color:green'>Lift,<span style='color:green'>Lift,<span style='color:red'>Fail,<span style='color:red'>Fail,<span style='color:red'>Fail,<span style='color:red'>Fail,<span style='color:red'>Fail,<span style='color:green'>Lift,<span style='color:green'>Lift,<span style='color:red'>Fail","<span style='color:red'>Fail,<span style='color:red'>Fail,<span style='color:green'>Lift,<span style='color:green'>Lift,<span style='color:green'>Lift,<span style='color:green'>Lift,<span style='color:red'>Fail,<span style='color:green'>Lift,<span style='color:green'>Lift,<span style='color:green'>Lift,<span style='color:green'>Lift,<span style='color:red'>Fail","<span style='color:red'>Fail,<span style='color:green'>Lift,<span style='color:green'>Lift,<span style='color:red'>Fail,<span style='color:green'>Lift,<span style='color:green'>Lift","0,0,1,1,0,0,0,0,0,1,1,0","0,0,1,1,1,1,0,1,1,1,1,0","0,1,1,0,1,1",10,20,20,"","","","","{""box1"":""30"",""box2"":""25""}","",4,"round2_ready",2,4,2,NA,NA,NA,NA,NA,NA,NA,NA,NA,NA,NA,NA,NA,NA,30,25,30,25,NA,NA,NA,NA,NA,NA,NA,NA,NA,NA,NA,NA,NA,NA,NA,NA,NA,NA,"",NA,NA,NA,NA,NA,NA,NA,NA,NA,2025-11-20 22:23:16
"8292","https://psyc-201.github.io/xiang2023/exp/index1.html?PROLIFIC_PID=REDACTED&STUDY_ID=691f8ca61c6b4dcbb0aeb5f4&SESSION_ID=691f923393c2e8a21cacff27","survey-html-form",28,479618,"0.0-337.0","WOpHCwVljqWbB/datIEx/l129UweM8UFoB5/myFJFXykkN0DekzX4Q+BA4Ud6jb8tuiZ8ASRtFtuDKGUnzNqlhJyJvqKyjZA/lH0CY1jfKsfsmzCh0wmo/nE5Z1BvyaMu4T6t628HQQczyoKKdECa3t2SCRHDR70onUYJa57gsNPxJY4YyvVWdIUBqrvF3scQpET8HDZpIoaj1H8xYj3KCgibVQIpUNVmGQJXxi1+7HF4aHzIzX74fuQqzbntpCEjcqhqZwFtgH5dqNPlKDY7rJp3lKtUfIH3vXCrN1hbPeomCVsl+B3170hofffm/AbLO1xgOThAntxhnZy4mZk+w==","691f8ca61c6b4dcbb0aeb5f4","691f923393c2e8a21cacff27","index1","<span style='color:red'>Fail,<span style='color:red'>Fail,<span style='color:green'>Lift,<span style='color:green'>Lift,<span style='color:red'>Fail,<span style='color:red'>Fail,<span style='color:red'>Fail,<span style='color:red'>Fail,<span style='color:red'>Fail,<span style='color:green'>Lift,<span style='color:green'>Lift,<span style='color:red'>Fail","<span style='color:red'>Fail,<span style='color:red'>Fail,<span style='color:green'>Lift,<span style='color:green'>Lift,<span style='color:green'>Lift,<span style='color:green'>Lift,<span style='color:red'>Fail,<span style='color:green'>Lift,<span style='color:green'>Lift,<span style='color:green'>Lift,<span style='color:green'>Lift,<span style='color:red'>Fail","<span style='color:red'>Fail,<span style='color:green'>Lift,<span style='color:green'>Lift,<span style='color:red'>Fail,<span style='color:green'>Lift,<span style='color:green'>Lift","0,0,1,1,0,0,0,0,0,1,1,0","0,0,1,1,1,1,0,1,1,1,1,0","0,1,1,0,1,1",10,20,20,"","","","","{""box1"":""5"",""box2"":""5"",""box3"":""100"",""box4"":""100""}","",4,"round2_outcome",3,4,2,5,5,100,100,1,1,20,NA,NA,NA,NA,NA,NA,NA,NA,NA,NA,NA,5,5,100,100,1,1,20,NA,NA,NA,NA,NA,NA,NA,NA,NA,NA,NA,"",NA,NA,NA,NA,NA,NA,NA,NA,NA,2025-11-20 22:23:16
"2883.9000000059605","https://psyc-201.github.io/xiang2023/exp/index1.html?PROLIFIC_PID=REDACTED&STUDY_ID=691f8ca61c6b4dcbb0aeb5f4&SESSION_ID=691f923393c2e8a21cacff27","survey-html-form",29,482507,"0.0-338.0","WOpHCwVljqWbB/datIEx/l129UweM8UFoB5/myFJFXykkN0DekzX4Q+BA4Ud6jb8tuiZ8ASRtFtuDKGUnzNqlhJyJvqKyjZA/lH0CY1jfKsfsmzCh0wmo/nE5Z1BvyaMu4T6t628HQQczyoKKdECa3t2SCRHDR70onUYJa57gsNPxJY4YyvVWdIUBqrvF3scQpET8HDZpIoaj1H8xYj3KCgibVQIpUNVmGQJXxi1+7HF4aHzIzX74fuQqzbntpCEjcqhqZwFtgH5dqNPlKDY7rJp3lKtUfIH3vXCrN1hbPeomCVsl+B3170hofffm/AbLO1xgOThAntxhnZy4mZk+w==","691f8ca61c6b4dcbb0aeb5f4","691f923393c2e8a21cacff27","index1","<span style='color:red'>Fail,<span style='color:red'>Fail,<span style='color:green'>Lift,<span style='color:green'>Lift,<span style='color:red'>Fail,<span style='color:red'>Fail,<span style='color:red'>Fail,<span style='color:red'>Fail,<span style='color:red'>Fail,<span style='color:green'>Lift,<span style='color:green'>Lift,<span style='color:red'>Fail","<span style='color:red'>Fail,<span style='color:red'>Fail,<span style='color:green'>Lift,<span style='color:green'>Lift,<span style='color:green'>Lift,<span style='color:green'>Lift,<span style='color:red'>Fail,<span style='color:green'>Lift,<span style='color:green'>Lift,<span style='color:green'>Lift,<span style='color:green'>Lift,<span style='color:red'>Fail","<span style='color:red'>Fail,<span style='color:green'>Lift,<span style='color:green'>Lift,<span style='color:red'>Fail,<span style='color:green'>Lift,<span style='color:green'>Lift","0,0,1,1,0,0,0,0,0,1,1,0","0,0,1,1,1,1,0,1,1,1,1,0","0,1,1,0,1,1",10,20,20,"","","","","{""box1"":""75""}","",4,"round3_ready",4,4,3,NA,NA,NA,NA,NA,NA,NA,NA,NA,NA,NA,NA,NA,NA,75,75,NA,NA,NA,NA,NA,NA,NA,NA,NA,75,75,NA,NA,NA,NA,NA,NA,NA,NA,NA,"",NA,NA,NA,NA,NA,NA,NA,NA,NA,2025-11-20 22:23:16
"9409.800000011921","https://psyc-201.github.io/xiang2023/exp/index1.html?PROLIFIC_PID=REDACTED&STUDY_ID=691f8ca61c6b4dcbb0aeb5f4&SESSION_ID=691f923393c2e8a21cacff27","survey-html-form",30,491929,"0.0-339.0-0.0","WOpHCwVljqWbB/datIEx/l129UweM8UFoB5/myFJFXykkN0DekzX4Q+BA4Ud6jb8tuiZ8ASRtFtuDKGUnzNqlhJyJvqKyjZA/lH0CY1jfKsfsmzCh0wmo/nE5Z1BvyaMu4T6t628HQQczyoKKdECa3t2SCRHDR70onUYJa57gsNPxJY4YyvVWdIUBqrvF3scQpET8HDZpIoaj1H8xYj3KCgibVQIpUNVmGQJXxi1+7HF4aHzIzX74fuQqzbntpCEjcqhqZwFtgH5dqNPlKDY7rJp3lKtUfIH3vXCrN1hbPeomCVsl+B3170hofffm/AbLO1xgOThAntxhnZy4mZk+w==","691f8ca61c6b4dcbb0aeb5f4","691f923393c2e8a21cacff27","index1","<span style='color:red'>Fail,<span style='color:red'>Fail,<span style='color:green'>Lift,<span style='color:green'>Lift,<span style='color:red'>Fail,<span style='color:red'>Fail,<span style='color:red'>Fail,<span style='color:red'>Fail,<span style='color:red'>Fail,<span style='color:green'>Lift,<span style='color:green'>Lift,<span style='color:red'>Fail","<span style='color:red'>Fail,<span style='color:red'>Fail,<span style='color:green'>Lift,<span style='color:green'>Lift,<span style='color:green'>Lift,<span style='color:green'>Lift,<span style='color:red'>Fail,<span style='color:green'>Lift,<span style='color:green'>Lift,<span style='color:green'>Lift,<span style='color:green'>Lift,<span style='color:red'>Fail","<span style='color:red'>Fail,<span style='color:green'>Lift,<span style='color:green'>Lift,<span style='color:red'>Fail,<span style='color:green'>Lift,<span style='color:green'>Lift","0,0,1,1,0,0,0,0,0,1,1,0","0,0,1,1,1,1,0,1,1,1,1,0","0,1,1,0,1,1",10,20,20,"","","","","{""box1"":""5"",""box2"":""5"",""box3"":""50"",""box4"":""50""}","",5,"round3_lift",5,4,3,5,5,50,50,1,1,20,NA,NA,NA,NA,NA,NA,NA,NA,NA,NA,NA,NA,NA,NA,NA,NA,NA,NA,NA,NA,NA,NA,5,5,1,1,20,50,50,"",NA,NA,NA,NA,NA,NA,NA,NA,NA,2025-11-20 22:23:16
"null","https://psyc-201.github.io/xiang2023/exp/index1.html?PROLIFIC_PID=REDACTED&STUDY_ID=691f8ca61c6b4dcbb0aeb5f4&SESSION_ID=691f923393c2e8a21cacff27","html-keyboard-response",31,494938,"0.0-343.0","WOpHCwVljqWbB/datIEx/l129UweM8UFoB5/myFJFXykkN0DekzX4Q+BA4Ud6jb8tuiZ8ASRtFtuDKGUnzNqlhJyJvqKyjZA/lH0CY1jfKsfsmzCh0wmo/nE5Z1BvyaMu4T6t628HQQczyoKKdECa3t2SCRHDR70onUYJa57gsNPxJY4YyvVWdIUBqrvF3scQpET8HDZpIoaj1H8xYj3KCgibVQIpUNVmGQJXxi1+7HF4aHzIzX74fuQqzbntpCEjcqhqZwFtgH5dqNPlKDY7rJp3lKtUfIH3vXCrN1hbPeomCVsl+B3170hofffm/AbLO1xgOThAntxhnZy4mZk+w==","691f8ca61c6b4dcbb0aeb5f4","691f923393c2e8a21cacff27","index1","<span style='color:red'>Fail,<span style='color:red'>Fail,<span style='color:green'>Lift,<span style='color:green'>Lift,<span style='color:red'>Fail,<span style='color:red'>Fail,<span style='color:red'>Fail,<span style='color:red'>Fail,<span style='color:red'>Fail,<span style='color:green'>Lift,<span style='color:green'>Lift,<span style='color:red'>Fail","<span style='color:red'>Fail,<span style='color:red'>Fail,<span style='color:green'>Lift,<span style='color:green'>Lift,<span style='color:green'>Lift,<span style='color:green'>Lift,<span style='color:red'>Fail,<span style='color:green'>Lift,<span style='color:green'>Lift,<span style='color:green'>Lift,<span style='color:green'>Lift,<span style='color:red'>Fail","<span style='color:red'>Fail,<span style='color:green'>Lift,<span style='color:green'>Lift,<span style='color:red'>Fail,<span style='color:green'>Lift,<span style='color:green'>Lift","0,0,1,1,0,0,0,0,0,1,1,0","0,0,1,1,1,1,0,1,1,1,1,0","0,1,1,0,1,1",10,20,20,"","","<p style='font-size:30px'><b> New Contest! </b></p>","null","","",5,"",NA,NA,NA,NA,NA,NA,NA,NA,NA,NA,NA,NA,NA,NA,NA,NA,NA,NA,NA,NA,NA,NA,NA,NA,NA,NA,NA,NA,NA,NA,NA,NA,NA,NA,NA,NA,NA,NA,NA,"",NA,NA,NA,NA,NA,NA,NA,NA,NA,2025-11-20 22:23:16
"9014.300000011921","https://psyc-201.github.io/xiang2023/exp/index1.html?PROLIFIC_PID=REDACTED&STUDY_ID=691f8ca61c6b4dcbb0aeb5f4&SESSION_ID=691f923393c2e8a21cacff27","survey-html-form",32,503967,"0.0-344.0","WOpHCwVljqWbB/datIEx/l129UweM8UFoB5/myFJFXykkN0DekzX4Q+BA4Ud6jb8tuiZ8ASRtFtuDKGUnzNqlhJyJvqKyjZA/lH0CY1jfKsfsmzCh0wmo/nE5Z1BvyaMu4T6t628HQQczyoKKdECa3t2SCRHDR70onUYJa57gsNPxJY4YyvVWdIUBqrvF3scQpET8HDZpIoaj1H8xYj3KCgibVQIpUNVmGQJXxi1+7HF4aHzIzX74fuQqzbntpCEjcqhqZwFtgH5dqNPlKDY7rJp3lKtUfIH3vXCrN1hbPeomCVsl+B3170hofffm/AbLO1xgOThAntxhnZy4mZk+w==","691f8ca61c6b4dcbb0aeb5f4","691f923393c2e8a21cacff27","index1","<span style='color:red'>Fail,<span style='color:red'>Fail,<span style='color:green'>Lift,<span style='color:green'>Lift,<span style='color:red'>Fail,<span style='color:red'>Fail,<span style='color:red'>Fail,<span style='color:red'>Fail,<span style='color:red'>Fail,<span style='color:green'>Lift,<span style='color:green'>Lift,<span style='color:red'>Fail","<span style='color:red'>Fail,<span style='color:red'>Fail,<span style='color:green'>Lift,<span style='color:green'>Lift,<span style='color:green'>Lift,<span style='color:green'>Lift,<span style='color:red'>Fail,<span style='color:green'>Lift,<span style='color:green'>Lift,<span style='color:green'>Lift,<span style='color:green'>Lift,<span style='color:red'>Fail","<span style='color:red'>Fail,<span style='color:green'>Lift,<span style='color:green'>Lift,<span style='color:red'>Fail,<span style='color:green'>Lift,<span style='color:green'>Lift","0,0,1,1,0,0,0,0,0,1,1,0","0,0,1,1,1,1,0,1,1,1,1,0","0,1,1,0,1,1",10,20,20,"","","","","{""box1"":""8"",""box2"":""8"",""box3"":""75"",""box4"":""75""}","",5,"round1_outcome",1,5,1,8,8,75,75,1,1,10,8,8,75,75,1,1,10,NA,NA,NA,NA,NA,NA,NA,NA,NA,NA,NA,NA,NA,NA,NA,NA,NA,NA,NA,NA,NA,NA,"",NA,NA,NA,NA,NA,NA,NA,NA,NA,2025-11-20 22:23:16
"7035.5","https://psyc-201.github.io/xiang2023/exp/index1.html?PROLIFIC_PID=REDACTED&STUDY_ID=691f8ca61c6b4dcbb0aeb5f4&SESSION_ID=691f923393c2e8a21cacff27","survey-html-form",33,511012,"0.0-345.0","WOpHCwVljqWbB/datIEx/l129UweM8UFoB5/myFJFXykkN0DekzX4Q+BA4Ud6jb8tuiZ8ASRtFtuDKGUnzNqlhJyJvqKyjZA/lH0CY1jfKsfsmzCh0wmo/nE5Z1BvyaMu4T6t628HQQczyoKKdECa3t2SCRHDR70onUYJa57gsNPxJY4YyvVWdIUBqrvF3scQpET8HDZpIoaj1H8xYj3KCgibVQIpUNVmGQJXxi1+7HF4aHzIzX74fuQqzbntpCEjcqhqZwFtgH5dqNPlKDY7rJp3lKtUfIH3vXCrN1hbPeomCVsl+B3170hofffm/AbLO1xgOThAntxhnZy4mZk+w==","691f8ca61c6b4dcbb0aeb5f4","691f923393c2e8a21cacff27","index1","<span style='color:red'>Fail,<span style='color:red'>Fail,<span style='color:green'>Lift,<span style='color:green'>Lift,<span style='color:red'>Fail,<span style='color:red'>Fail,<span style='color:red'>Fail,<span style='color:red'>Fail,<span style='color:red'>Fail,<span style='color:green'>Lift,<span style='color:green'>Lift,<span style='color:red'>Fail","<span style='color:red'>Fail,<span style='color:red'>Fail,<span style='color:green'>Lift,<span style='color:green'>Lift,<span style='color:green'>Lift,<span style='color:green'>Lift,<span style='color:red'>Fail,<span style='color:green'>Lift,<span style='color:green'>Lift,<span style='color:green'>Lift,<span style='color:green'>Lift,<span style='color:red'>Fail","<span style='color:red'>Fail,<span style='color:green'>Lift,<span style='color:green'>Lift,<span style='color:red'>Fail,<span style='color:green'>Lift,<span style='color:green'>Lift","0,0,1,1,0,0,0,0,0,1,1,0","0,0,1,1,1,1,0,1,1,1,1,0","0,1,1,0,1,1",10,20,20,"","","","","{""box1"":""90"",""box2"":""90""}","",5,"round2_ready",2,5,2,NA,NA,NA,NA,NA,NA,NA,NA,NA,NA,NA,NA,NA,NA,90,90,90,90,NA,NA,NA,NA,NA,NA,NA,NA,NA,NA,NA,NA,NA,NA,NA,NA,NA,NA,"",NA,NA,NA,NA,NA,NA,NA,NA,NA,2025-11-20 22:23:16
"8830.699999988079","https://psyc-201.github.io/xiang2023/exp/index1.html?PROLIFIC_PID=REDACTED&STUDY_ID=691f8ca61c6b4dcbb0aeb5f4&SESSION_ID=691f923393c2e8a21cacff27","survey-html-form",34,519847,"0.0-346.0","WOpHCwVljqWbB/datIEx/l129UweM8UFoB5/myFJFXykkN0DekzX4Q+BA4Ud6jb8tuiZ8ASRtFtuDKGUnzNqlhJyJvqKyjZA/lH0CY1jfKsfsmzCh0wmo/nE5Z1BvyaMu4T6t628HQQczyoKKdECa3t2SCRHDR70onUYJa57gsNPxJY4YyvVWdIUBqrvF3scQpET8HDZpIoaj1H8xYj3KCgibVQIpUNVmGQJXxi1+7HF4aHzIzX74fuQqzbntpCEjcqhqZwFtgH5dqNPlKDY7rJp3lKtUfIH3vXCrN1hbPeomCVsl+B3170hofffm/AbLO1xgOThAntxhnZy4mZk+w==","691f8ca61c6b4dcbb0aeb5f4","691f923393c2e8a21cacff27","index1","<span style='color:red'>Fail,<span style='color:red'>Fail,<span style='color:green'>Lift,<span style='color:green'>Lift,<span style='color:red'>Fail,<span style='color:red'>Fail,<span style='color:red'>Fail,<span style='color:red'>Fail,<span style='color:red'>Fail,<span style='color:green'>Lift,<span style='color:green'>Lift,<span style='color:red'>Fail","<span style='color:red'>Fail,<span style='color:red'>Fail,<span style='color:green'>Lift,<span style='color:green'>Lift,<span style='color:green'>Lift,<span style='color:green'>Lift,<span style='color:red'>Fail,<span style='color:green'>Lift,<span style='color:green'>Lift,<span style='color:green'>Lift,<span style='color:green'>Lift,<span style='color:red'>Fail","<span style='color:red'>Fail,<span style='color:green'>Lift,<span style='color:green'>Lift,<span style='color:red'>Fail,<span style='color:green'>Lift,<span style='color:green'>Lift","0,0,1,1,0,0,0,0,0,1,1,0","0,0,1,1,1,1,0,1,1,1,1,0","0,1,1,0,1,1",10,20,20,"","","","","{""box1"":""8"",""box2"":""8"",""box3"":""50"",""box4"":""50""}","",5,"round2_outcome",3,5,2,8,8,50,50,1,1,20,NA,NA,NA,NA,NA,NA,NA,NA,NA,NA,NA,8,8,50,50,1,1,20,NA,NA,NA,NA,NA,NA,NA,NA,NA,NA,NA,"",NA,NA,NA,NA,NA,NA,NA,NA,NA,2025-11-20 22:23:16
"3317","https://psyc-201.github.io/xiang2023/exp/index1.html?PROLIFIC_PID=REDACTED&STUDY_ID=691f8ca61c6b4dcbb0aeb5f4&SESSION_ID=691f923393c2e8a21cacff27","survey-html-form",35,523169,"0.0-347.0","WOpHCwVljqWbB/datIEx/l129UweM8UFoB5/myFJFXykkN0DekzX4Q+BA4Ud6jb8tuiZ8ASRtFtuDKGUnzNqlhJyJvqKyjZA/lH0CY1jfKsfsmzCh0wmo/nE5Z1BvyaMu4T6t628HQQczyoKKdECa3t2SCRHDR70onUYJa57gsNPxJY4YyvVWdIUBqrvF3scQpET8HDZpIoaj1H8xYj3KCgibVQIpUNVmGQJXxi1+7HF4aHzIzX74fuQqzbntpCEjcqhqZwFtgH5dqNPlKDY7rJp3lKtUfIH3vXCrN1hbPeomCVsl+B3170hofffm/AbLO1xgOThAntxhnZy4mZk+w==","691f8ca61c6b4dcbb0aeb5f4","691f923393c2e8a21cacff27","index1","<span style='color:red'>Fail,<span style='color:red'>Fail,<span style='color:green'>Lift,<span style='color:green'>Lift,<span style='color:red'>Fail,<span style='color:red'>Fail,<span style='color:red'>Fail,<span style='color:red'>Fail,<span style='color:red'>Fail,<span style='color:green'>Lift,<span style='color:green'>Lift,<span style='color:red'>Fail","<span style='color:red'>Fail,<span style='color:red'>Fail,<span style='color:green'>Lift,<span style='color:green'>Lift,<span style='color:green'>Lift,<span style='color:green'>Lift,<span style='color:red'>Fail,<span style='color:green'>Lift,<span style='color:green'>Lift,<span style='color:green'>Lift,<span style='color:green'>Lift,<span style='color:red'>Fail","<span style='color:red'>Fail,<span style='color:green'>Lift,<span style='color:green'>Lift,<span style='color:red'>Fail,<span style='color:green'>Lift,<span style='color:green'>Lift","0,0,1,1,0,0,0,0,0,1,1,0","0,0,1,1,1,1,0,1,1,1,1,0","0,1,1,0,1,1",10,20,20,"","","","","{""box1"":""100""}","",5,"round3_ready",4,5,3,NA,NA,NA,NA,NA,NA,NA,NA,NA,NA,NA,NA,NA,NA,100,100,NA,NA,NA,NA,NA,NA,NA,NA,NA,100,100,NA,NA,NA,NA,NA,NA,NA,NA,NA,"",NA,NA,NA,NA,NA,NA,NA,NA,NA,2025-11-20 22:23:16
"7247.199999988079","https://psyc-201.github.io/xiang2023/exp/index1.html?PROLIFIC_PID=REDACTED&STUDY_ID=691f8ca61c6b4dcbb0aeb5f4&SESSION_ID=691f923393c2e8a21cacff27","survey-html-form",36,530421,"0.0-348.0-0.0","WOpHCwVljqWbB/datIEx/l129UweM8UFoB5/myFJFXykkN0DekzX4Q+BA4Ud6jb8tuiZ8ASRtFtuDKGUnzNqlhJyJvqKyjZA/lH0CY1jfKsfsmzCh0wmo/nE5Z1BvyaMu4T6t628HQQczyoKKdECa3t2SCRHDR70onUYJa57gsNPxJY4YyvVWdIUBqrvF3scQpET8HDZpIoaj1H8xYj3KCgibVQIpUNVmGQJXxi1+7HF4aHzIzX74fuQqzbntpCEjcqhqZwFtgH5dqNPlKDY7rJp3lKtUfIH3vXCrN1hbPeomCVsl+B3170hofffm/AbLO1xgOThAntxhnZy4mZk+w==","691f8ca61c6b4dcbb0aeb5f4","691f923393c2e8a21cacff27","index1","<span style='color:red'>Fail,<span style='color:red'>Fail,<span style='color:green'>Lift,<span style='color:green'>Lift,<span style='color:red'>Fail,<span style='color:red'>Fail,<span style='color:red'>Fail,<span style='color:red'>Fail,<span style='color:red'>Fail,<span style='color:green'>Lift,<span style='color:green'>Lift,<span style='color:red'>Fail","<span style='color:red'>Fail,<span style='color:red'>Fail,<span style='color:green'>Lift,<span style='color:green'>Lift,<span style='color:green'>Lift,<span style='color:green'>Lift,<span style='color:red'>Fail,<span style='color:green'>Lift,<span style='color:green'>Lift,<span style='color:green'>Lift,<span style='color:green'>Lift,<span style='color:red'>Fail","<span style='color:red'>Fail,<span style='color:green'>Lift,<span style='color:green'>Lift,<span style='color:red'>Fail,<span style='color:green'>Lift,<span style='color:green'>Lift","0,0,1,1,0,0,0,0,0,1,1,0","0,0,1,1,1,1,0,1,1,1,1,0","0,1,1,0,1,1",10,20,20,"","","","","{""box1"":""8"",""box2"":""8"",""box3"":""50"",""box4"":""50""}","",6,"round3_lift",5,5,3,8,8,50,50,1,1,20,NA,NA,NA,NA,NA,NA,NA,NA,NA,NA,NA,NA,NA,NA,NA,NA,NA,NA,NA,NA,NA,NA,8,8,1,1,20,50,50,"",NA,NA,NA,NA,NA,NA,NA,NA,NA,2025-11-20 22:23:16
"null","https://psyc-201.github.io/xiang2023/exp/index1.html?PROLIFIC_PID=REDACTED&STUDY_ID=691f8ca61c6b4dcbb0aeb5f4&SESSION_ID=691f923393c2e8a21cacff27","html-keyboard-response",37,533433,"0.0-352.0","WOpHCwVljqWbB/datIEx/l129UweM8UFoB5/myFJFXykkN0DekzX4Q+BA4Ud6jb8tuiZ8ASRtFtuDKGUnzNqlhJyJvqKyjZA/lH0CY1jfKsfsmzCh0wmo/nE5Z1BvyaMu4T6t628HQQczyoKKdECa3t2SCRHDR70onUYJa57gsNPxJY4YyvVWdIUBqrvF3scQpET8HDZpIoaj1H8xYj3KCgibVQIpUNVmGQJXxi1+7HF4aHzIzX74fuQqzbntpCEjcqhqZwFtgH5dqNPlKDY7rJp3lKtUfIH3vXCrN1hbPeomCVsl+B3170hofffm/AbLO1xgOThAntxhnZy4mZk+w==","691f8ca61c6b4dcbb0aeb5f4","691f923393c2e8a21cacff27","index1","<span style='color:red'>Fail,<span style='color:red'>Fail,<span style='color:green'>Lift,<span style='color:green'>Lift,<span style='color:red'>Fail,<span style='color:red'>Fail,<span style='color:red'>Fail,<span style='color:red'>Fail,<span style='color:red'>Fail,<span style='color:green'>Lift,<span style='color:green'>Lift,<span style='color:red'>Fail","<span style='color:red'>Fail,<span style='color:red'>Fail,<span style='color:green'>Lift,<span style='color:green'>Lift,<span style='color:green'>Lift,<span style='color:green'>Lift,<span style='color:red'>Fail,<span style='color:green'>Lift,<span style='color:green'>Lift,<span style='color:green'>Lift,<span style='color:green'>Lift,<span style='color:red'>Fail","<span style='color:red'>Fail,<span style='color:green'>Lift,<span style='color:green'>Lift,<span style='color:red'>Fail,<span style='color:green'>Lift,<span style='color:green'>Lift","0,0,1,1,0,0,0,0,0,1,1,0","0,0,1,1,1,1,0,1,1,1,1,0","0,1,1,0,1,1",10,20,20,"","","<p style='font-size:30px'><b> New Contest! </b></p>","null","","",6,"",NA,NA,NA,NA,NA,NA,NA,NA,NA,NA,NA,NA,NA,NA,NA,NA,NA,NA,NA,NA,NA,NA,NA,NA,NA,NA,NA,NA,NA,NA,NA,NA,NA,NA,NA,NA,NA,NA,NA,"",NA,NA,NA,NA,NA,NA,NA,NA,NA,2025-11-20 22:23:16
"10585.90000000596","https://psyc-201.github.io/xiang2023/exp/index1.html?PROLIFIC_PID=REDACTED&STUDY_ID=691f8ca61c6b4dcbb0aeb5f4&SESSION_ID=691f923393c2e8a21cacff27","survey-html-form",38,544023,"0.0-353.0","WOpHCwVljqWbB/datIEx/l129UweM8UFoB5/myFJFXykkN0DekzX4Q+BA4Ud6jb8tuiZ8ASRtFtuDKGUnzNqlhJyJvqKyjZA/lH0CY1jfKsfsmzCh0wmo/nE5Z1BvyaMu4T6t628HQQczyoKKdECa3t2SCRHDR70onUYJa57gsNPxJY4YyvVWdIUBqrvF3scQpET8HDZpIoaj1H8xYj3KCgibVQIpUNVmGQJXxi1+7HF4aHzIzX74fuQqzbntpCEjcqhqZwFtgH5dqNPlKDY7rJp3lKtUfIH3vXCrN1hbPeomCVsl+B3170hofffm/AbLO1xgOThAntxhnZy4mZk+w==","691f8ca61c6b4dcbb0aeb5f4","691f923393c2e8a21cacff27","index1","<span style='color:red'>Fail,<span style='color:red'>Fail,<span style='color:green'>Lift,<span style='color:green'>Lift,<span style='color:red'>Fail,<span style='color:red'>Fail,<span style='color:red'>Fail,<span style='color:red'>Fail,<span style='color:red'>Fail,<span style='color:green'>Lift,<span style='color:green'>Lift,<span style='color:red'>Fail","<span style='color:red'>Fail,<span style='color:red'>Fail,<span style='color:green'>Lift,<span style='color:green'>Lift,<span style='color:green'>Lift,<span style='color:green'>Lift,<span style='color:red'>Fail,<span style='color:green'>Lift,<span style='color:green'>Lift,<span style='color:green'>Lift,<span style='color:green'>Lift,<span style='color:red'>Fail","<span style='color:red'>Fail,<span style='color:green'>Lift,<span style='color:green'>Lift,<span style='color:red'>Fail,<span style='color:green'>Lift,<span style='color:green'>Lift","0,0,1,1,0,0,0,0,0,1,1,0","0,0,1,1,1,1,0,1,1,1,1,0","0,1,1,0,1,1",10,20,20,"","","","","{""box1"":""5"",""box2"":""2"",""box3"":""100""}","",6,"round1_outcome",1,6,1,5,2,100,NA,1,0,10,5,2,100,NA,1,0,10,NA,NA,NA,NA,NA,NA,NA,NA,NA,NA,NA,NA,NA,NA,NA,NA,NA,NA,NA,NA,NA,NA,"",NA,NA,NA,NA,NA,NA,NA,NA,NA,2025-11-20 22:23:16
"5088.600000023842","https://psyc-201.github.io/xiang2023/exp/index1.html?PROLIFIC_PID=REDACTED&STUDY_ID=691f8ca61c6b4dcbb0aeb5f4&SESSION_ID=691f923393c2e8a21cacff27","survey-html-form",39,549122,"0.0-354.0","WOpHCwVljqWbB/datIEx/l129UweM8UFoB5/myFJFXykkN0DekzX4Q+BA4Ud6jb8tuiZ8ASRtFtuDKGUnzNqlhJyJvqKyjZA/lH0CY1jfKsfsmzCh0wmo/nE5Z1BvyaMu4T6t628HQQczyoKKdECa3t2SCRHDR70onUYJa57gsNPxJY4YyvVWdIUBqrvF3scQpET8HDZpIoaj1H8xYj3KCgibVQIpUNVmGQJXxi1+7HF4aHzIzX74fuQqzbntpCEjcqhqZwFtgH5dqNPlKDY7rJp3lKtUfIH3vXCrN1hbPeomCVsl+B3170hofffm/AbLO1xgOThAntxhnZy4mZk+w==","691f8ca61c6b4dcbb0aeb5f4","691f923393c2e8a21cacff27","index1","<span style='color:red'>Fail,<span style='color:red'>Fail,<span style='color:green'>Lift,<span style='color:green'>Lift,<span style='color:red'>Fail,<span style='color:red'>Fail,<span style='color:red'>Fail,<span style='color:red'>Fail,<span style='color:red'>Fail,<span style='color:green'>Lift,<span style='color:green'>Lift,<span style='color:red'>Fail","<span style='color:red'>Fail,<span style='color:red'>Fail,<span style='color:green'>Lift,<span style='color:green'>Lift,<span style='color:green'>Lift,<span style='color:green'>Lift,<span style='color:red'>Fail,<span style='color:green'>Lift,<span style='color:green'>Lift,<span style='color:green'>Lift,<span style='color:green'>Lift,<span style='color:red'>Fail","<span style='color:red'>Fail,<span style='color:green'>Lift,<span style='color:green'>Lift,<span style='color:red'>Fail,<span style='color:green'>Lift,<span style='color:green'>Lift","0,0,1,1,0,0,0,0,0,1,1,0","0,0,1,1,1,1,0,1,1,1,1,0","0,1,1,0,1,1",10,20,20,"","","","","{""box1"":""75"",""box2"":""20""}","",6,"round2_ready",2,6,2,NA,NA,NA,NA,NA,NA,NA,NA,NA,NA,NA,NA,NA,NA,75,20,75,20,NA,NA,NA,NA,NA,NA,NA,NA,NA,NA,NA,NA,NA,NA,NA,NA,NA,NA,"",NA,NA,NA,NA,NA,NA,NA,NA,NA,2025-11-20 22:23:16
"8904.40000000596","https://psyc-201.github.io/xiang2023/exp/index1.html?PROLIFIC_PID=REDACTED&STUDY_ID=691f8ca61c6b4dcbb0aeb5f4&SESSION_ID=691f923393c2e8a21cacff27","survey-html-form",40,558035,"0.0-355.0","WOpHCwVljqWbB/datIEx/l129UweM8UFoB5/myFJFXykkN0DekzX4Q+BA4Ud6jb8tuiZ8ASRtFtuDKGUnzNqlhJyJvqKyjZA/lH0CY1jfKsfsmzCh0wmo/nE5Z1BvyaMu4T6t628HQQczyoKKdECa3t2SCRHDR70onUYJa57gsNPxJY4YyvVWdIUBqrvF3scQpET8HDZpIoaj1H8xYj3KCgibVQIpUNVmGQJXxi1+7HF4aHzIzX74fuQqzbntpCEjcqhqZwFtgH5dqNPlKDY7rJp3lKtUfIH3vXCrN1hbPeomCVsl+B3170hofffm/AbLO1xgOThAntxhnZy4mZk+w==","691f8ca61c6b4dcbb0aeb5f4","691f923393c2e8a21cacff27","index1","<span style='color:red'>Fail,<span style='color:red'>Fail,<span style='color:green'>Lift,<span style='color:green'>Lift,<span style='color:red'>Fail,<span style='color:red'>Fail,<span style='color:red'>Fail,<span style='color:red'>Fail,<span style='color:red'>Fail,<span style='color:green'>Lift,<span style='color:green'>Lift,<span style='color:red'>Fail","<span style='color:red'>Fail,<span style='color:red'>Fail,<span style='color:green'>Lift,<span style='color:green'>Lift,<span style='color:green'>Lift,<span style='color:green'>Lift,<span style='color:red'>Fail,<span style='color:green'>Lift,<span style='color:green'>Lift,<span style='color:green'>Lift,<span style='color:green'>Lift,<span style='color:red'>Fail","<span style='color:red'>Fail,<span style='color:green'>Lift,<span style='color:green'>Lift,<span style='color:red'>Fail,<span style='color:green'>Lift,<span style='color:green'>Lift","0,0,1,1,0,0,0,0,0,1,1,0","0,0,1,1,1,1,0,1,1,1,1,0","0,1,1,0,1,1",10,20,20,"","","","","{""box1"":""6"",""box2"":""2"",""box3"":""90""}","",6,"round2_outcome",3,6,2,6,2,90,NA,1,0,20,NA,NA,NA,NA,NA,NA,NA,NA,NA,NA,NA,6,2,90,NA,1,0,20,NA,NA,NA,NA,NA,NA,NA,NA,NA,NA,NA,"",NA,NA,NA,NA,NA,NA,NA,NA,NA,2025-11-20 22:23:16
"3877.5","https://psyc-201.github.io/xiang2023/exp/index1.html?PROLIFIC_PID=REDACTED&STUDY_ID=691f8ca61c6b4dcbb0aeb5f4&SESSION_ID=691f923393c2e8a21cacff27","survey-html-form",41,561919,"0.0-356.0","WOpHCwVljqWbB/datIEx/l129UweM8UFoB5/myFJFXykkN0DekzX4Q+BA4Ud6jb8tuiZ8ASRtFtuDKGUnzNqlhJyJvqKyjZA/lH0CY1jfKsfsmzCh0wmo/nE5Z1BvyaMu4T6t628HQQczyoKKdECa3t2SCRHDR70onUYJa57gsNPxJY4YyvVWdIUBqrvF3scQpET8HDZpIoaj1H8xYj3KCgibVQIpUNVmGQJXxi1+7HF4aHzIzX74fuQqzbntpCEjcqhqZwFtgH5dqNPlKDY7rJp3lKtUfIH3vXCrN1hbPeomCVsl+B3170hofffm/AbLO1xgOThAntxhnZy4mZk+w==","691f8ca61c6b4dcbb0aeb5f4","691f923393c2e8a21cacff27","index1","<span style='color:red'>Fail,<span style='color:red'>Fail,<span style='color:green'>Lift,<span style='color:green'>Lift,<span style='color:red'>Fail,<span style='color:red'>Fail,<span style='color:red'>Fail,<span style='color:red'>Fail,<span style='color:red'>Fail,<span style='color:green'>Lift,<span style='color:green'>Lift,<span style='color:red'>Fail","<span style='color:red'>Fail,<span style='color:red'>Fail,<span style='color:green'>Lift,<span style='color:green'>Lift,<span style='color:green'>Lift,<span style='color:green'>Lift,<span style='color:red'>Fail,<span style='color:green'>Lift,<span style='color:green'>Lift,<span style='color:green'>Lift,<span style='color:green'>Lift,<span style='color:red'>Fail","<span style='color:red'>Fail,<span style='color:green'>Lift,<span style='color:green'>Lift,<span style='color:red'>Fail,<span style='color:green'>Lift,<span style='color:green'>Lift","0,0,1,1,0,0,0,0,0,1,1,0","0,0,1,1,1,1,0,1,1,1,1,0","0,1,1,0,1,1",10,20,20,"","","","","{""box1"":""70""}","",6,"round3_ready",4,6,3,NA,NA,NA,NA,NA,NA,NA,NA,NA,NA,NA,NA,NA,NA,70,70,NA,NA,NA,NA,NA,NA,NA,NA,NA,70,70,NA,NA,NA,NA,NA,NA,NA,NA,NA,"",NA,NA,NA,NA,NA,NA,NA,NA,NA,2025-11-20 22:23:16
"9619.40000000596","https://psyc-201.github.io/xiang2023/exp/index1.html?PROLIFIC_PID=REDACTED&STUDY_ID=691f8ca61c6b4dcbb0aeb5f4&SESSION_ID=691f923393c2e8a21cacff27","survey-html-form",42,571543,"0.0-357.0-0.0","WOpHCwVljqWbB/datIEx/l129UweM8UFoB5/myFJFXykkN0DekzX4Q+BA4Ud6jb8tuiZ8ASRtFtuDKGUnzNqlhJyJvqKyjZA/lH0CY1jfKsfsmzCh0wmo/nE5Z1BvyaMu4T6t628HQQczyoKKdECa3t2SCRHDR70onUYJa57gsNPxJY4YyvVWdIUBqrvF3scQpET8HDZpIoaj1H8xYj3KCgibVQIpUNVmGQJXxi1+7HF4aHzIzX74fuQqzbntpCEjcqhqZwFtgH5dqNPlKDY7rJp3lKtUfIH3vXCrN1hbPeomCVsl+B3170hofffm/AbLO1xgOThAntxhnZy4mZk+w==","691f8ca61c6b4dcbb0aeb5f4","691f923393c2e8a21cacff27","index1","<span style='color:red'>Fail,<span style='color:red'>Fail,<span style='color:green'>Lift,<span style='color:green'>Lift,<span style='color:red'>Fail,<span style='color:red'>Fail,<span style='color:red'>Fail,<span style='color:red'>Fail,<span style='color:red'>Fail,<span style='color:green'>Lift,<span style='color:green'>Lift,<span style='color:red'>Fail","<span style='color:red'>Fail,<span style='color:red'>Fail,<span style='color:green'>Lift,<span style='color:green'>Lift,<span style='color:green'>Lift,<span style='color:green'>Lift,<span style='color:red'>Fail,<span style='color:green'>Lift,<span style='color:green'>Lift,<span style='color:green'>Lift,<span style='color:green'>Lift,<span style='color:red'>Fail","<span style='color:red'>Fail,<span style='color:green'>Lift,<span style='color:green'>Lift,<span style='color:red'>Fail,<span style='color:green'>Lift,<span style='color:green'>Lift","0,0,1,1,0,0,0,0,0,1,1,0","0,0,1,1,1,1,0,1,1,1,1,0","0,1,1,0,1,1",10,20,20,"","","","","{""box1"":""6"",""box2"":""2"",""box3"":""75"",""box4"":""70""}","",6,"round3_lift",5,6,3,6,2,75,70,1,1,20,NA,NA,NA,NA,NA,NA,NA,NA,NA,NA,NA,NA,NA,NA,NA,NA,NA,NA,NA,NA,NA,NA,6,2,1,1,20,75,70,"",NA,NA,NA,NA,NA,NA,NA,NA,NA,2025-11-20 22:23:16
"48416.09999999404","https://psyc-201.github.io/xiang2023/exp/index1.html?PROLIFIC_PID=REDACTED&STUDY_ID=691f8ca61c6b4dcbb0aeb5f4&SESSION_ID=691f923393c2e8a21cacff27","survey-text",43,619970,"0.0-361.0","WOpHCwVljqWbB/datIEx/l129UweM8UFoB5/myFJFXykkN0DekzX4Q+BA4Ud6jb8tuiZ8ASRtFtuDKGUnzNqlhJyJvqKyjZA/lH0CY1jfKsfsmzCh0wmo/nE5Z1BvyaMu4T6t628HQQczyoKKdECa3t2SCRHDR70onUYJa57gsNPxJY4YyvVWdIUBqrvF3scQpET8HDZpIoaj1H8xYj3KCgibVQIpUNVmGQJXxi1+7HF4aHzIzX74fuQqzbntpCEjcqhqZwFtgH5dqNPlKDY7rJp3lKtUfIH3vXCrN1hbPeomCVsl+B3170hofffm/AbLO1xgOThAntxhnZy4mZk+w==","691f8ca61c6b4dcbb0aeb5f4","691f923393c2e8a21cacff27","index1","<span style='color:red'>Fail,<span style='color:red'>Fail,<span style='color:green'>Lift,<span style='color:green'>Lift,<span style='color:red'>Fail,<span style='color:red'>Fail,<span style='color:red'>Fail,<span style='color:red'>Fail,<span style='color:red'>Fail,<span style='color:green'>Lift,<span style='color:green'>Lift,<span style='color:red'>Fail","<span style='color:red'>Fail,<span style='color:red'>Fail,<span style='color:green'>Lift,<span style='color:green'>Lift,<span style='color:green'>Lift,<span style='color:green'>Lift,<span style='color:red'>Fail,<span style='color:green'>Lift,<span style='color:green'>Lift,<span style='color:green'>Lift,<span style='color:green'>Lift,<span style='color:red'>Fail","<span style='color:red'>Fail,<span style='color:green'>Lift,<span style='color:green'>Lift,<span style='color:red'>Fail,<span style='color:green'>Lift,<span style='color:green'>Lift","0,0,1,1,0,0,0,0,0,1,1,0","0,0,1,1,1,1,0,1,1,1,1,0","0,1,1,0,1,1",10,20,20,"","","","","{""Q0"":""I had to guess the likelihood of participants lifting a box in a fake gameshow, and also things like what I thought their strength and effort levels were.""}","",NA,"",NA,NA,NA,NA,NA,NA,NA,NA,NA,NA,NA,NA,NA,NA,NA,NA,NA,NA,NA,NA,NA,NA,NA,NA,NA,NA,NA,NA,NA,NA,NA,NA,NA,NA,NA,NA,NA,NA,NA,"",NA,NA,NA,NA,NA,NA,NA,NA,NA,2025-11-20 22:23:16
"2685.800000011921","https://psyc-201.github.io/xiang2023/exp/index1.html?PROLIFIC_PID=REDACTED&STUDY_ID=691f8ca61c6b4dcbb0aeb5f4&SESSION_ID=691f923393c2e8a21cacff27","survey-text",44,622674,"0.0-362.0","WOpHCwVljqWbB/datIEx/l129UweM8UFoB5/myFJFXykkN0DekzX4Q+BA4Ud6jb8tuiZ8ASRtFtuDKGUnzNqlhJyJvqKyjZA/lH0CY1jfKsfsmzCh0wmo/nE5Z1BvyaMu4T6t628HQQczyoKKdECa3t2SCRHDR70onUYJa57gsNPxJY4YyvVWdIUBqrvF3scQpET8HDZpIoaj1H8xYj3KCgibVQIpUNVmGQJXxi1+7HF4aHzIzX74fuQqzbntpCEjcqhqZwFtgH5dqNPlKDY7rJp3lKtUfIH3vXCrN1hbPeomCVsl+B3170hofffm/AbLO1xgOThAntxhnZy4mZk+w==","691f8ca61c6b4dcbb0aeb5f4","691f923393c2e8a21cacff27","index1","<span style='color:red'>Fail,<span style='color:red'>Fail,<span style='color:green'>Lift,<span style='color:green'>Lift,<span style='color:red'>Fail,<span style='color:red'>Fail,<span style='color:red'>Fail,<span style='color:red'>Fail,<span style='color:red'>Fail,<span style='color:green'>Lift,<span style='color:green'>Lift,<span style='color:red'>Fail","<span style='color:red'>Fail,<span style='color:red'>Fail,<span style='color:green'>Lift,<span style='color:green'>Lift,<span style='color:green'>Lift,<span style='color:green'>Lift,<span style='color:red'>Fail,<span style='color:green'>Lift,<span style='color:green'>Lift,<span style='color:green'>Lift,<span style='color:green'>Lift,<span style='color:red'>Fail","<span style='color:red'>Fail,<span style='color:green'>Lift,<span style='color:green'>Lift,<span style='color:red'>Fail,<span style='color:green'>Lift,<span style='color:green'>Lift","0,0,1,1,0,0,0,0,0,1,1,0","0,0,1,1,1,1,0,1,1,1,1,0","0,1,1,0,1,1",10,20,20,"","","","","{""Q0"":""""}","",NA,"",NA,NA,NA,NA,NA,NA,NA,NA,NA,NA,NA,NA,NA,NA,NA,NA,NA,NA,NA,NA,NA,NA,NA,NA,NA,NA,NA,NA,NA,NA,NA,NA,NA,NA,NA,NA,NA,NA,NA,"[{""event"":""blur"",""trial"":1,""time"":15888},{""event"":""focus"",""trial"":1,""time"":21178},{""event"":""fullscreenenter"",""trial"":1,""time"":29893}]",6,2,0,75,1,0.75,NA,NA,NA,2025-11-20 22:23:16
"5263","https://psyc-201.github.io/xiang2023/exp/index1.html?PROLIFIC_PID=REDACTED&STUDY_ID=691f8ca61c6b4dcbb0aeb5f4&SESSION_ID=691f923393c2e8a21cacff27","html-button-response",45,627942,"0.0-363.0","WOpHCwVljqWbB/datIEx/l129UweM8UFoB5/myFJFXykkN0DekzX4Q+BA4Ud6jb8tuiZ8ASRtFtuDKGUnzNqlhJyJvqKyjZA/lH0CY1jfKsfsmzCh0wmo/nE5Z1BvyaMu4T6t628HQQczyoKKdECa3t2SCRHDR70onUYJa57gsNPxJY4YyvVWdIUBqrvF3scQpET8HDZpIoaj1H8xYj3KCgibVQIpUNVmGQJXxi1+7HF4aHzIzX74fuQqzbntpCEjcqhqZwFtgH5dqNPlKDY7rJp3lKtUfIH3vXCrN1hbPeomCVsl+B3170hofffm/AbLO1xgOThAntxhnZy4mZk+w==","691f8ca61c6b4dcbb0aeb5f4","691f923393c2e8a21cacff27","index1","<span style='color:red'>Fail,<span style='color:red'>Fail,<span style='color:green'>Lift,<span style='color:green'>Lift,<span style='color:red'>Fail,<span style='color:red'>Fail,<span style='color:red'>Fail,<span style='color:red'>Fail,<span style='color:red'>Fail,<span style='color:green'>Lift,<span style='color:green'>Lift,<span style='color:red'>Fail","<span style='color:red'>Fail,<span style='color:red'>Fail,<span style='color:green'>Lift,<span style='color:green'>Lift,<span style='color:green'>Lift,<span style='color:green'>Lift,<span style='color:red'>Fail,<span style='color:green'>Lift,<span style='color:green'>Lift,<span style='color:green'>Lift,<span style='color:green'>Lift,<span style='color:red'>Fail","<span style='color:red'>Fail,<span style='color:green'>Lift,<span style='color:green'>Lift,<span style='color:red'>Fail,<span style='color:green'>Lift,<span style='color:green'>Lift","0,0,1,1,0,0,0,0,0,1,1,0","0,0,1,1,1,1,0,1,1,1,1,0","0,1,1,0,1,1",10,20,20,"","","<p> We randomly picked <b>Contest 6, Round 2</b> to calculate your bonus. </p><p> The outcome of Contestant K on that round is <span style='color:green'>Lift</span>. </p><p> The probability you entered was 75. </p><p><b> You won a bonus of $0.75!</b></p><p> IMPORTANT: Please click 'Next' to complete the game.</p>","","","",NA,"",NA,NA,NA,NA,NA,NA,NA,NA,NA,NA,NA,NA,NA,NA,NA,NA,NA,NA,NA,NA,NA,NA,NA,NA,NA,NA,NA,NA,NA,NA,NA,NA,NA,NA,NA,NA,NA,NA,NA,"",NA,NA,NA,NA,NA,NA,0,2,1,2025-11-20 22:23:16
