"rt","url","trial_type","trial_index","time_elapsed","internal_node_id","encryptedProlificId","studyId","sessionId","expIndex","round1_outcomes","round2_outcomes","round3_outcomes","round1_o","round2_o","round3_o","round1_reward","round2_reward","round3_reward","success","view_history","stimulus","key_press","responses","question_order","button_pressed","j","Stage","stage","contest","round","strength_a","strength_b","effort_a","effort_b","outcome_a","outcome_b","reward","r1_strength_a","r1_strength_b","r1_effort_a","r1_effort_b","r1_outcome_a","r1_outcome_b","r1_reward","probability_a","probability_b","r2_prob_a","r2_prob_b","r2_strength_a","r2_strength_b","r2_effort_a","r2_effort_b","r2_outcome_a","r2_outcome_b","r2_reward","r3_prob_a","r3_prob_b","r3_strength_a","r3_strength_b","r3_effort_a","r3_effort_b","r3_outcome_a","r3_outcome_b","r3_reward","attention_check","count","already","screen","pick_contest","pick_round","pick_side","trial_probability","trial_outcome","bonus","attention_sum","attention","datapipe_meta.attributes.date_modified"
"13084.199999988079","https://psyc-201.github.io/xiang2023/exp/index1.html?PROLIFIC_PID=REDACTED&STUDY_ID=691f8ca61c6b4dcbb0aeb5f4&SESSION_ID=691f926bf65796ccca4c19a0","external-html",0,13277,"0.0-0.0","Ex4ENYLj1Smk8bYNULMsdGxuams1v09cKfX/TsMWBlghNP4FhNDBt40ZyFxSrobipWpV9ShKTjwOqEapJ91dvwjH+IFcZZ6rc6Kf3CC7AaArPO83r1LbapR/p/CiBNAMhphwFa7MRPKFGkpETgZaQjRn560tuWAp5/h8FlZjR5cHOFcwSoBRERNsUcemurZCD3rH6A02OjrRbvxN85ki2lliJfl8iaYPoYiv1nR8WEy1xV+hDqzsfgX8uvDKnkb4YWh/rwe6WRzi/uzg6cc+NP/6UYeY0RjaL6XNXURg3o61D1/891lSj6MBqIY1ycf8aguKFxq3RAFidvIbHsG4lg==","691f8ca61c6b4dcbb0aeb5f4","691f926bf65796ccca4c19a0","index1","<span style='color:red'>Fail,<span style='color:red'>Fail,<span style='color:green'>Lift,<span style='color:green'>Lift,<span style='color:red'>Fail,<span style='color:red'>Fail,<span style='color:red'>Fail,<span style='color:red'>Fail,<span style='color:green'>Lift,<span style='color:red'>Fail,<span style='color:red'>Fail,<span style='color:green'>Lift","<span style='color:red'>Fail,<span style='color:red'>Fail,<span style='color:green'>Lift,<span style='color:green'>Lift,<span style='color:green'>Lift,<span style='color:green'>Lift,<span style='color:green'>Lift,<span style='color:red'>Fail,<span style='color:green'>Lift,<span style='color:green'>Lift,<span style='color:red'>Fail,<span style='color:green'>Lift","<span style='color:red'>Fail,<span style='color:green'>Lift,<span style='color:green'>Lift,<span style='color:red'>Fail,<span style='color:green'>Lift,<span style='color:green'>Lift","0,0,1,1,0,0,0,0,1,0,0,1","0,0,1,1,1,1,1,0,1,1,0,1","0,1,1,0,1,1",10,20,20,"","","","","","",NA,NA,"",NA,NA,NA,NA,NA,NA,NA,NA,NA,NA,NA,NA,NA,NA,NA,NA,NA,NA,NA,NA,NA,NA,NA,NA,NA,NA,NA,NA,NA,NA,NA,NA,NA,NA,NA,NA,NA,NA,NA,NA,"",NA,NA,NA,NA,NA,NA,NA,NA,2025-11-20 22:26:09
"","https://psyc-201.github.io/xiang2023/exp/index1.html?PROLIFIC_PID=REDACTED&STUDY_ID=691f8ca61c6b4dcbb0aeb5f4&SESSION_ID=691f926bf65796ccca4c19a0","fullscreen",1,15990,"0.0-1.0","Ex4ENYLj1Smk8bYNULMsdGxuams1v09cKfX/TsMWBlghNP4FhNDBt40ZyFxSrobipWpV9ShKTjwOqEapJ91dvwjH+IFcZZ6rc6Kf3CC7AaArPO83r1LbapR/p/CiBNAMhphwFa7MRPKFGkpETgZaQjRn560tuWAp5/h8FlZjR5cHOFcwSoBRERNsUcemurZCD3rH6A02OjrRbvxN85ki2lliJfl8iaYPoYiv1nR8WEy1xV+hDqzsfgX8uvDKnkb4YWh/rwe6WRzi/uzg6cc+NP/6UYeY0RjaL6XNXURg3o61D1/891lSj6MBqIY1ycf8aguKFxq3RAFidvIbHsG4lg==","691f8ca61c6b4dcbb0aeb5f4","691f926bf65796ccca4c19a0","index1","<span style='color:red'>Fail,<span style='color:red'>Fail,<span style='color:green'>Lift,<span style='color:green'>Lift,<span style='color:red'>Fail,<span style='color:red'>Fail,<span style='color:red'>Fail,<span style='color:red'>Fail,<span style='color:green'>Lift,<span style='color:red'>Fail,<span style='color:red'>Fail,<span style='color:green'>Lift","<span style='color:red'>Fail,<span style='color:red'>Fail,<span style='color:green'>Lift,<span style='color:green'>Lift,<span style='color:green'>Lift,<span style='color:green'>Lift,<span style='color:green'>Lift,<span style='color:red'>Fail,<span style='color:green'>Lift,<span style='color:green'>Lift,<span style='color:red'>Fail,<span style='color:green'>Lift","<span style='color:red'>Fail,<span style='color:green'>Lift,<span style='color:green'>Lift,<span style='color:red'>Fail,<span style='color:green'>Lift,<span style='color:green'>Lift","0,0,1,1,0,0,0,0,1,0,0,1","0,0,1,1,1,1,1,0,1,1,0,1","0,1,1,0,1,1",10,20,20,"true","","","","","",NA,NA,"",NA,NA,NA,NA,NA,NA,NA,NA,NA,NA,NA,NA,NA,NA,NA,NA,NA,NA,NA,NA,NA,NA,NA,NA,NA,NA,NA,NA,NA,NA,NA,NA,NA,NA,NA,NA,NA,NA,NA,NA,"",NA,NA,NA,NA,NA,NA,NA,NA,2025-11-20 22:26:09
"200500.70000001788","https://psyc-201.github.io/xiang2023/exp/index1.html?PROLIFIC_PID=REDACTED&STUDY_ID=691f8ca61c6b4dcbb0aeb5f4&SESSION_ID=691f926bf65796ccca4c19a0","instructions",2,216491,"0.0-2.0","Ex4ENYLj1Smk8bYNULMsdGxuams1v09cKfX/TsMWBlghNP4FhNDBt40ZyFxSrobipWpV9ShKTjwOqEapJ91dvwjH+IFcZZ6rc6Kf3CC7AaArPO83r1LbapR/p/CiBNAMhphwFa7MRPKFGkpETgZaQjRn560tuWAp5/h8FlZjR5cHOFcwSoBRERNsUcemurZCD3rH6A02OjrRbvxN85ki2lliJfl8iaYPoYiv1nR8WEy1xV+hDqzsfgX8uvDKnkb4YWh/rwe6WRzi/uzg6cc+NP/6UYeY0RjaL6XNXURg3o61D1/891lSj6MBqIY1ycf8aguKFxq3RAFidvIbHsG4lg==","691f8ca61c6b4dcbb0aeb5f4","691f926bf65796ccca4c19a0","index1","<span style='color:red'>Fail,<span style='color:red'>Fail,<span style='color:green'>Lift,<span style='color:green'>Lift,<span style='color:red'>Fail,<span style='color:red'>Fail,<span style='color:red'>Fail,<span style='color:red'>Fail,<span style='color:green'>Lift,<span style='color:red'>Fail,<span style='color:red'>Fail,<span style='color:green'>Lift","<span style='color:red'>Fail,<span style='color:red'>Fail,<span style='color:green'>Lift,<span style='color:green'>Lift,<span style='color:green'>Lift,<span style='color:green'>Lift,<span style='color:green'>Lift,<span style='color:red'>Fail,<span style='color:green'>Lift,<span style='color:green'>Lift,<span style='color:red'>Fail,<span style='color:green'>Lift","<span style='color:red'>Fail,<span style='color:green'>Lift,<span style='color:green'>Lift,<span style='color:red'>Fail,<span style='color:green'>Lift,<span style='color:green'>Lift","0,0,1,1,0,0,0,0,1,0,0,1","0,0,1,1,1,1,1,0,1,1,0,1","0,1,1,0,1,1",10,20,20,"","[{""page_index"":0,""viewing_time"":27349.20000001788},{""page_index"":1,""viewing_time"":87287.59999999404},{""page_index"":2,""viewing_time"":17743.80000001192},{""page_index"":3,""viewing_time"":25768.09999999404},{""page_index"":4,""viewing_time"":13551.90000000596},{""page_index"":5,""viewing_time"":18991.899999976158},{""page_index"":6,""viewing_time"":9807.90000000596}]","","","","",NA,NA,"",NA,NA,NA,NA,NA,NA,NA,NA,NA,NA,NA,NA,NA,NA,NA,NA,NA,NA,NA,NA,NA,NA,NA,NA,NA,NA,NA,NA,NA,NA,NA,NA,NA,NA,NA,NA,NA,NA,NA,NA,"",NA,NA,NA,NA,NA,NA,NA,NA,2025-11-20 22:26:09
"null","https://psyc-201.github.io/xiang2023/exp/index1.html?PROLIFIC_PID=REDACTED&STUDY_ID=691f8ca61c6b4dcbb0aeb5f4&SESSION_ID=691f926bf65796ccca4c19a0","html-keyboard-response",3,217494,"0.0-3.0","Ex4ENYLj1Smk8bYNULMsdGxuams1v09cKfX/TsMWBlghNP4FhNDBt40ZyFxSrobipWpV9ShKTjwOqEapJ91dvwjH+IFcZZ6rc6Kf3CC7AaArPO83r1LbapR/p/CiBNAMhphwFa7MRPKFGkpETgZaQjRn560tuWAp5/h8FlZjR5cHOFcwSoBRERNsUcemurZCD3rH6A02OjrRbvxN85ki2lliJfl8iaYPoYiv1nR8WEy1xV+hDqzsfgX8uvDKnkb4YWh/rwe6WRzi/uzg6cc+NP/6UYeY0RjaL6XNXURg3o61D1/891lSj6MBqIY1ycf8aguKFxq3RAFidvIbHsG4lg==","691f8ca61c6b4dcbb0aeb5f4","691f926bf65796ccca4c19a0","index1","<span style='color:red'>Fail,<span style='color:red'>Fail,<span style='color:green'>Lift,<span style='color:green'>Lift,<span style='color:red'>Fail,<span style='color:red'>Fail,<span style='color:red'>Fail,<span style='color:red'>Fail,<span style='color:green'>Lift,<span style='color:red'>Fail,<span style='color:red'>Fail,<span style='color:green'>Lift","<span style='color:red'>Fail,<span style='color:red'>Fail,<span style='color:green'>Lift,<span style='color:green'>Lift,<span style='color:green'>Lift,<span style='color:green'>Lift,<span style='color:green'>Lift,<span style='color:red'>Fail,<span style='color:green'>Lift,<span style='color:green'>Lift,<span style='color:red'>Fail,<span style='color:green'>Lift","<span style='color:red'>Fail,<span style='color:green'>Lift,<span style='color:green'>Lift,<span style='color:red'>Fail,<span style='color:green'>Lift,<span style='color:green'>Lift","0,0,1,1,0,0,0,0,1,0,0,1","0,0,1,1,1,1,1,0,1,1,0,1","0,1,1,0,1,1",10,20,20,"",""," ","null","","",NA,NA,"",NA,NA,NA,NA,NA,NA,NA,NA,NA,NA,NA,NA,NA,NA,NA,NA,NA,NA,NA,NA,NA,NA,NA,NA,NA,NA,NA,NA,NA,NA,NA,NA,NA,NA,NA,NA,NA,NA,NA,NA,"",NA,NA,NA,NA,NA,NA,NA,NA,2025-11-20 22:26:09
"45045.70000001788","https://psyc-201.github.io/xiang2023/exp/index1.html?PROLIFIC_PID=REDACTED&STUDY_ID=691f8ca61c6b4dcbb0aeb5f4&SESSION_ID=691f926bf65796ccca4c19a0","survey-multi-choice",4,262541,"0.0-4.0","Ex4ENYLj1Smk8bYNULMsdGxuams1v09cKfX/TsMWBlghNP4FhNDBt40ZyFxSrobipWpV9ShKTjwOqEapJ91dvwjH+IFcZZ6rc6Kf3CC7AaArPO83r1LbapR/p/CiBNAMhphwFa7MRPKFGkpETgZaQjRn560tuWAp5/h8FlZjR5cHOFcwSoBRERNsUcemurZCD3rH6A02OjrRbvxN85ki2lliJfl8iaYPoYiv1nR8WEy1xV+hDqzsfgX8uvDKnkb4YWh/rwe6WRzi/uzg6cc+NP/6UYeY0RjaL6XNXURg3o61D1/891lSj6MBqIY1ycf8aguKFxq3RAFidvIbHsG4lg==","691f8ca61c6b4dcbb0aeb5f4","691f926bf65796ccca4c19a0","index1","<span style='color:red'>Fail,<span style='color:red'>Fail,<span style='color:green'>Lift,<span style='color:green'>Lift,<span style='color:red'>Fail,<span style='color:red'>Fail,<span style='color:red'>Fail,<span style='color:red'>Fail,<span style='color:green'>Lift,<span style='color:red'>Fail,<span style='color:red'>Fail,<span style='color:green'>Lift","<span style='color:red'>Fail,<span style='color:red'>Fail,<span style='color:green'>Lift,<span style='color:green'>Lift,<span style='color:green'>Lift,<span style='color:green'>Lift,<span style='color:green'>Lift,<span style='color:red'>Fail,<span style='color:green'>Lift,<span style='color:green'>Lift,<span style='color:red'>Fail,<span style='color:green'>Lift","<span style='color:red'>Fail,<span style='color:green'>Lift,<span style='color:green'>Lift,<span style='color:red'>Fail,<span style='color:green'>Lift,<span style='color:green'>Lift","0,0,1,1,0,0,0,0,1,0,0,1","0,0,1,1,1,1,1,0,1,1,0,1","0,1,1,0,1,1",10,20,20,"","","","","{""Q0"":""It consists of multiple contests, each contest with three rounds."",""Q1"":""When a new contest begins."",""Q2"":""The box weight always stays the same (equivalent to strength of 5)."",""Q3"":""Each will get $20."",""Q4"":""There is no bonus payment at all.""}","[0,1,2,3,4]",NA,NA,"",NA,NA,NA,NA,NA,NA,NA,NA,NA,NA,NA,NA,NA,NA,NA,NA,NA,NA,NA,NA,NA,NA,NA,NA,NA,NA,NA,NA,NA,NA,NA,NA,NA,NA,NA,NA,NA,NA,NA,NA,"",NA,NA,NA,NA,NA,NA,NA,NA,2025-11-20 22:26:09
"4045.5","https://psyc-201.github.io/xiang2023/exp/index1.html?PROLIFIC_PID=REDACTED&STUDY_ID=691f8ca61c6b4dcbb0aeb5f4&SESSION_ID=691f926bf65796ccca4c19a0","html-button-response",5,266588,"0.0-5.0-1.0","Ex4ENYLj1Smk8bYNULMsdGxuams1v09cKfX/TsMWBlghNP4FhNDBt40ZyFxSrobipWpV9ShKTjwOqEapJ91dvwjH+IFcZZ6rc6Kf3CC7AaArPO83r1LbapR/p/CiBNAMhphwFa7MRPKFGkpETgZaQjRn560tuWAp5/h8FlZjR5cHOFcwSoBRERNsUcemurZCD3rH6A02OjrRbvxN85ki2lliJfl8iaYPoYiv1nR8WEy1xV+hDqzsfgX8uvDKnkb4YWh/rwe6WRzi/uzg6cc+NP/6UYeY0RjaL6XNXURg3o61D1/891lSj6MBqIY1ycf8aguKFxq3RAFidvIbHsG4lg==","691f8ca61c6b4dcbb0aeb5f4","691f926bf65796ccca4c19a0","index1","<span style='color:red'>Fail,<span style='color:red'>Fail,<span style='color:green'>Lift,<span style='color:green'>Lift,<span style='color:red'>Fail,<span style='color:red'>Fail,<span style='color:red'>Fail,<span style='color:red'>Fail,<span style='color:green'>Lift,<span style='color:red'>Fail,<span style='color:red'>Fail,<span style='color:green'>Lift","<span style='color:red'>Fail,<span style='color:red'>Fail,<span style='color:green'>Lift,<span style='color:green'>Lift,<span style='color:green'>Lift,<span style='color:green'>Lift,<span style='color:green'>Lift,<span style='color:red'>Fail,<span style='color:green'>Lift,<span style='color:green'>Lift,<span style='color:red'>Fail,<span style='color:green'>Lift","<span style='color:red'>Fail,<span style='color:green'>Lift,<span style='color:green'>Lift,<span style='color:red'>Fail,<span style='color:green'>Lift,<span style='color:green'>Lift","0,0,1,1,0,0,0,0,1,0,0,1","0,0,1,1,1,1,1,0,1,1,0,1","0,1,1,0,1,1",10,20,20,"","","<p> Oops! You did not pass the comprehension check. <b>Please note that you have only 1 attempt(s) left.</b> </p>","","","",1,NA,"",NA,NA,NA,NA,NA,NA,NA,NA,NA,NA,NA,NA,NA,NA,NA,NA,NA,NA,NA,NA,NA,NA,NA,NA,NA,NA,NA,NA,NA,NA,NA,NA,NA,NA,NA,NA,NA,NA,NA,NA,"",NA,NA,NA,NA,NA,NA,NA,NA,2025-11-20 22:26:09
"18422.90000000596","https://psyc-201.github.io/xiang2023/exp/index1.html?PROLIFIC_PID=REDACTED&STUDY_ID=691f8ca61c6b4dcbb0aeb5f4&SESSION_ID=691f926bf65796ccca4c19a0","instructions",6,285011,"0.0-6.0-0.0","Ex4ENYLj1Smk8bYNULMsdGxuams1v09cKfX/TsMWBlghNP4FhNDBt40ZyFxSrobipWpV9ShKTjwOqEapJ91dvwjH+IFcZZ6rc6Kf3CC7AaArPO83r1LbapR/p/CiBNAMhphwFa7MRPKFGkpETgZaQjRn560tuWAp5/h8FlZjR5cHOFcwSoBRERNsUcemurZCD3rH6A02OjrRbvxN85ki2lliJfl8iaYPoYiv1nR8WEy1xV+hDqzsfgX8uvDKnkb4YWh/rwe6WRzi/uzg6cc+NP/6UYeY0RjaL6XNXURg3o61D1/891lSj6MBqIY1ycf8aguKFxq3RAFidvIbHsG4lg==","691f8ca61c6b4dcbb0aeb5f4","691f926bf65796ccca4c19a0","index1","<span style='color:red'>Fail,<span style='color:red'>Fail,<span style='color:green'>Lift,<span style='color:green'>Lift,<span style='color:red'>Fail,<span style='color:red'>Fail,<span style='color:red'>Fail,<span style='color:red'>Fail,<span style='color:green'>Lift,<span style='color:red'>Fail,<span style='color:red'>Fail,<span style='color:green'>Lift","<span style='color:red'>Fail,<span style='color:red'>Fail,<span style='color:green'>Lift,<span style='color:green'>Lift,<span style='color:green'>Lift,<span style='color:green'>Lift,<span style='color:green'>Lift,<span style='color:red'>Fail,<span style='color:green'>Lift,<span style='color:green'>Lift,<span style='color:red'>Fail,<span style='color:green'>Lift","<span style='color:red'>Fail,<span style='color:green'>Lift,<span style='color:green'>Lift,<span style='color:red'>Fail,<span style='color:green'>Lift,<span style='color:green'>Lift","0,0,1,1,0,0,0,0,1,0,0,1","0,0,1,1,1,1,1,0,1,1,0,1","0,1,1,0,1,1",10,20,20,"","[{""page_index"":0,""viewing_time"":2286.800000011921},{""page_index"":1,""viewing_time"":3608.0999999940395},{""page_index"":2,""viewing_time"":5615.9000000059605},{""page_index"":3,""viewing_time"":3536},{""page_index"":4,""viewing_time"":1632.0999999940395},{""page_index"":5,""viewing_time"":600},{""page_index"":6,""viewing_time"":1143.800000011921}]","","","","",NA,NA,"",NA,NA,NA,NA,NA,NA,NA,NA,NA,NA,NA,NA,NA,NA,NA,NA,NA,NA,NA,NA,NA,NA,NA,NA,NA,NA,NA,NA,NA,NA,NA,NA,NA,NA,NA,NA,NA,NA,NA,NA,"",NA,NA,NA,NA,NA,NA,NA,NA,2025-11-20 22:26:09
"null","https://psyc-201.github.io/xiang2023/exp/index1.html?PROLIFIC_PID=REDACTED&STUDY_ID=691f8ca61c6b4dcbb0aeb5f4&SESSION_ID=691f926bf65796ccca4c19a0","html-keyboard-response",7,286012,"0.0-6.0-1.0","Ex4ENYLj1Smk8bYNULMsdGxuams1v09cKfX/TsMWBlghNP4FhNDBt40ZyFxSrobipWpV9ShKTjwOqEapJ91dvwjH+IFcZZ6rc6Kf3CC7AaArPO83r1LbapR/p/CiBNAMhphwFa7MRPKFGkpETgZaQjRn560tuWAp5/h8FlZjR5cHOFcwSoBRERNsUcemurZCD3rH6A02OjrRbvxN85ki2lliJfl8iaYPoYiv1nR8WEy1xV+hDqzsfgX8uvDKnkb4YWh/rwe6WRzi/uzg6cc+NP/6UYeY0RjaL6XNXURg3o61D1/891lSj6MBqIY1ycf8aguKFxq3RAFidvIbHsG4lg==","691f8ca61c6b4dcbb0aeb5f4","691f926bf65796ccca4c19a0","index1","<span style='color:red'>Fail,<span style='color:red'>Fail,<span style='color:green'>Lift,<span style='color:green'>Lift,<span style='color:red'>Fail,<span style='color:red'>Fail,<span style='color:red'>Fail,<span style='color:red'>Fail,<span style='color:green'>Lift,<span style='color:red'>Fail,<span style='color:red'>Fail,<span style='color:green'>Lift","<span style='color:red'>Fail,<span style='color:red'>Fail,<span style='color:green'>Lift,<span style='color:green'>Lift,<span style='color:green'>Lift,<span style='color:green'>Lift,<span style='color:green'>Lift,<span style='color:red'>Fail,<span style='color:green'>Lift,<span style='color:green'>Lift,<span style='color:red'>Fail,<span style='color:green'>Lift","<span style='color:red'>Fail,<span style='color:green'>Lift,<span style='color:green'>Lift,<span style='color:red'>Fail,<span style='color:green'>Lift,<span style='color:green'>Lift","0,0,1,1,0,0,0,0,1,0,0,1","0,0,1,1,1,1,1,0,1,1,0,1","0,1,1,0,1,1",10,20,20,"",""," ","null","","",NA,NA,"",NA,NA,NA,NA,NA,NA,NA,NA,NA,NA,NA,NA,NA,NA,NA,NA,NA,NA,NA,NA,NA,NA,NA,NA,NA,NA,NA,NA,NA,NA,NA,NA,NA,NA,NA,NA,NA,NA,NA,NA,"",NA,NA,NA,NA,NA,NA,NA,NA,2025-11-20 22:26:09
"20775.29999998212","https://psyc-201.github.io/xiang2023/exp/index1.html?PROLIFIC_PID=REDACTED&STUDY_ID=691f8ca61c6b4dcbb0aeb5f4&SESSION_ID=691f926bf65796ccca4c19a0","survey-multi-choice",8,306788,"0.0-7.0-0.0","Ex4ENYLj1Smk8bYNULMsdGxuams1v09cKfX/TsMWBlghNP4FhNDBt40ZyFxSrobipWpV9ShKTjwOqEapJ91dvwjH+IFcZZ6rc6Kf3CC7AaArPO83r1LbapR/p/CiBNAMhphwFa7MRPKFGkpETgZaQjRn560tuWAp5/h8FlZjR5cHOFcwSoBRERNsUcemurZCD3rH6A02OjrRbvxN85ki2lliJfl8iaYPoYiv1nR8WEy1xV+hDqzsfgX8uvDKnkb4YWh/rwe6WRzi/uzg6cc+NP/6UYeY0RjaL6XNXURg3o61D1/891lSj6MBqIY1ycf8aguKFxq3RAFidvIbHsG4lg==","691f8ca61c6b4dcbb0aeb5f4","691f926bf65796ccca4c19a0","index1","<span style='color:red'>Fail,<span style='color:red'>Fail,<span style='color:green'>Lift,<span style='color:green'>Lift,<span style='color:red'>Fail,<span style='color:red'>Fail,<span style='color:red'>Fail,<span style='color:red'>Fail,<span style='color:green'>Lift,<span style='color:red'>Fail,<span style='color:red'>Fail,<span style='color:green'>Lift","<span style='color:red'>Fail,<span style='color:red'>Fail,<span style='color:green'>Lift,<span style='color:green'>Lift,<span style='color:green'>Lift,<span style='color:green'>Lift,<span style='color:green'>Lift,<span style='color:red'>Fail,<span style='color:green'>Lift,<span style='color:green'>Lift,<span style='color:red'>Fail,<span style='color:green'>Lift","<span style='color:red'>Fail,<span style='color:green'>Lift,<span style='color:green'>Lift,<span style='color:red'>Fail,<span style='color:green'>Lift,<span style='color:green'>Lift","0,0,1,1,0,0,0,0,1,0,0,1","0,0,1,1,1,1,1,0,1,1,0,1","0,1,1,0,1,1",10,20,20,"","","","","{""Q0"":""It consists of multiple contests, each contest with three rounds."",""Q1"":""When a new contest begins."",""Q2"":""The box weight always stays the same (equivalent to strength of 5)."",""Q3"":""Each will get $20."",""Q4"":""How close my guesses are to the actual outcome.""}","[0,1,2,3,4]",NA,NA,"",NA,NA,NA,NA,NA,NA,NA,NA,NA,NA,NA,NA,NA,NA,NA,NA,NA,NA,NA,NA,NA,NA,NA,NA,NA,NA,NA,NA,NA,NA,NA,NA,NA,NA,NA,NA,NA,NA,NA,NA,"",NA,NA,NA,NA,NA,NA,NA,NA,2025-11-20 22:26:09
"11155.90000000596","https://psyc-201.github.io/xiang2023/exp/index1.html?PROLIFIC_PID=REDACTED&STUDY_ID=691f8ca61c6b4dcbb0aeb5f4&SESSION_ID=691f926bf65796ccca4c19a0","instructions",9,317947,"0.0-305.0","Ex4ENYLj1Smk8bYNULMsdGxuams1v09cKfX/TsMWBlghNP4FhNDBt40ZyFxSrobipWpV9ShKTjwOqEapJ91dvwjH+IFcZZ6rc6Kf3CC7AaArPO83r1LbapR/p/CiBNAMhphwFa7MRPKFGkpETgZaQjRn560tuWAp5/h8FlZjR5cHOFcwSoBRERNsUcemurZCD3rH6A02OjrRbvxN85ki2lliJfl8iaYPoYiv1nR8WEy1xV+hDqzsfgX8uvDKnkb4YWh/rwe6WRzi/uzg6cc+NP/6UYeY0RjaL6XNXURg3o61D1/891lSj6MBqIY1ycf8aguKFxq3RAFidvIbHsG4lg==","691f8ca61c6b4dcbb0aeb5f4","691f926bf65796ccca4c19a0","index1","<span style='color:red'>Fail,<span style='color:red'>Fail,<span style='color:green'>Lift,<span style='color:green'>Lift,<span style='color:red'>Fail,<span style='color:red'>Fail,<span style='color:red'>Fail,<span style='color:red'>Fail,<span style='color:green'>Lift,<span style='color:red'>Fail,<span style='color:red'>Fail,<span style='color:green'>Lift","<span style='color:red'>Fail,<span style='color:red'>Fail,<span style='color:green'>Lift,<span style='color:green'>Lift,<span style='color:green'>Lift,<span style='color:green'>Lift,<span style='color:green'>Lift,<span style='color:red'>Fail,<span style='color:green'>Lift,<span style='color:green'>Lift,<span style='color:red'>Fail,<span style='color:green'>Lift","<span style='color:red'>Fail,<span style='color:green'>Lift,<span style='color:green'>Lift,<span style='color:red'>Fail,<span style='color:green'>Lift,<span style='color:green'>Lift","0,0,1,1,0,0,0,0,1,0,0,1","0,0,1,1,1,1,1,0,1,1,0,1","0,1,1,0,1,1",10,20,20,"","[{""page_index"":0,""viewing_time"":5803.4000000059605},{""page_index"":1,""viewing_time"":5352.199999988079}]","","","","",NA,NA,"",NA,NA,NA,NA,NA,NA,NA,NA,NA,NA,NA,NA,NA,NA,NA,NA,NA,NA,NA,NA,NA,NA,NA,NA,NA,NA,NA,NA,NA,NA,NA,NA,NA,NA,NA,NA,NA,NA,NA,NA,"",NA,NA,NA,NA,NA,NA,NA,NA,2025-11-20 22:26:09
"null","https://psyc-201.github.io/xiang2023/exp/index1.html?PROLIFIC_PID=REDACTED&STUDY_ID=691f8ca61c6b4dcbb0aeb5f4&SESSION_ID=691f926bf65796ccca4c19a0","html-keyboard-response",10,318948,"0.0-306.0","Ex4ENYLj1Smk8bYNULMsdGxuams1v09cKfX/TsMWBlghNP4FhNDBt40ZyFxSrobipWpV9ShKTjwOqEapJ91dvwjH+IFcZZ6rc6Kf3CC7AaArPO83r1LbapR/p/CiBNAMhphwFa7MRPKFGkpETgZaQjRn560tuWAp5/h8FlZjR5cHOFcwSoBRERNsUcemurZCD3rH6A02OjrRbvxN85ki2lliJfl8iaYPoYiv1nR8WEy1xV+hDqzsfgX8uvDKnkb4YWh/rwe6WRzi/uzg6cc+NP/6UYeY0RjaL6XNXURg3o61D1/891lSj6MBqIY1ycf8aguKFxq3RAFidvIbHsG4lg==","691f8ca61c6b4dcbb0aeb5f4","691f926bf65796ccca4c19a0","index1","<span style='color:red'>Fail,<span style='color:red'>Fail,<span style='color:green'>Lift,<span style='color:green'>Lift,<span style='color:red'>Fail,<span style='color:red'>Fail,<span style='color:red'>Fail,<span style='color:red'>Fail,<span style='color:green'>Lift,<span style='color:red'>Fail,<span style='color:red'>Fail,<span style='color:green'>Lift","<span style='color:red'>Fail,<span style='color:red'>Fail,<span style='color:green'>Lift,<span style='color:green'>Lift,<span style='color:green'>Lift,<span style='color:green'>Lift,<span style='color:green'>Lift,<span style='color:red'>Fail,<span style='color:green'>Lift,<span style='color:green'>Lift,<span style='color:red'>Fail,<span style='color:green'>Lift","<span style='color:red'>Fail,<span style='color:green'>Lift,<span style='color:green'>Lift,<span style='color:red'>Fail,<span style='color:green'>Lift,<span style='color:green'>Lift","0,0,1,1,0,0,0,0,1,0,0,1","0,0,1,1,1,1,1,0,1,1,0,1","0,1,1,0,1,1",10,20,20,"",""," ","null","","",NA,1,"",NA,NA,NA,NA,NA,NA,NA,NA,NA,NA,NA,NA,NA,NA,NA,NA,NA,NA,NA,NA,NA,NA,NA,NA,NA,NA,NA,NA,NA,NA,NA,NA,NA,NA,NA,NA,NA,NA,NA,NA,"",NA,NA,NA,NA,NA,NA,NA,NA,2025-11-20 22:26:09
"null","https://psyc-201.github.io/xiang2023/exp/index1.html?PROLIFIC_PID=REDACTED&STUDY_ID=691f8ca61c6b4dcbb0aeb5f4&SESSION_ID=691f926bf65796ccca4c19a0","html-keyboard-response",11,321956,"0.0-307.0","Ex4ENYLj1Smk8bYNULMsdGxuams1v09cKfX/TsMWBlghNP4FhNDBt40ZyFxSrobipWpV9ShKTjwOqEapJ91dvwjH+IFcZZ6rc6Kf3CC7AaArPO83r1LbapR/p/CiBNAMhphwFa7MRPKFGkpETgZaQjRn560tuWAp5/h8FlZjR5cHOFcwSoBRERNsUcemurZCD3rH6A02OjrRbvxN85ki2lliJfl8iaYPoYiv1nR8WEy1xV+hDqzsfgX8uvDKnkb4YWh/rwe6WRzi/uzg6cc+NP/6UYeY0RjaL6XNXURg3o61D1/891lSj6MBqIY1ycf8aguKFxq3RAFidvIbHsG4lg==","691f8ca61c6b4dcbb0aeb5f4","691f926bf65796ccca4c19a0","index1","<span style='color:red'>Fail,<span style='color:red'>Fail,<span style='color:green'>Lift,<span style='color:green'>Lift,<span style='color:red'>Fail,<span style='color:red'>Fail,<span style='color:red'>Fail,<span style='color:red'>Fail,<span style='color:green'>Lift,<span style='color:red'>Fail,<span style='color:red'>Fail,<span style='color:green'>Lift","<span style='color:red'>Fail,<span style='color:red'>Fail,<span style='color:green'>Lift,<span style='color:green'>Lift,<span style='color:green'>Lift,<span style='color:green'>Lift,<span style='color:green'>Lift,<span style='color:red'>Fail,<span style='color:green'>Lift,<span style='color:green'>Lift,<span style='color:red'>Fail,<span style='color:green'>Lift","<span style='color:red'>Fail,<span style='color:green'>Lift,<span style='color:green'>Lift,<span style='color:red'>Fail,<span style='color:green'>Lift,<span style='color:green'>Lift","0,0,1,1,0,0,0,0,1,0,0,1","0,0,1,1,1,1,1,0,1,1,0,1","0,1,1,0,1,1",10,20,20,"","","<p style='font-size:30px'><b> New Contest! </b></p>","null","","",NA,1,"",NA,NA,NA,NA,NA,NA,NA,NA,NA,NA,NA,NA,NA,NA,NA,NA,NA,NA,NA,NA,NA,NA,NA,NA,NA,NA,NA,NA,NA,NA,NA,NA,NA,NA,NA,NA,NA,NA,NA,NA,"",NA,NA,NA,NA,NA,NA,NA,NA,2025-11-20 22:26:09
"17662.09999999404","https://psyc-201.github.io/xiang2023/exp/index1.html?PROLIFIC_PID=REDACTED&STUDY_ID=691f8ca61c6b4dcbb0aeb5f4&SESSION_ID=691f926bf65796ccca4c19a0","survey-html-form",12,339619,"0.0-308.0","Ex4ENYLj1Smk8bYNULMsdGxuams1v09cKfX/TsMWBlghNP4FhNDBt40ZyFxSrobipWpV9ShKTjwOqEapJ91dvwjH+IFcZZ6rc6Kf3CC7AaArPO83r1LbapR/p/CiBNAMhphwFa7MRPKFGkpETgZaQjRn560tuWAp5/h8FlZjR5cHOFcwSoBRERNsUcemurZCD3rH6A02OjrRbvxN85ki2lliJfl8iaYPoYiv1nR8WEy1xV+hDqzsfgX8uvDKnkb4YWh/rwe6WRzi/uzg6cc+NP/6UYeY0RjaL6XNXURg3o61D1/891lSj6MBqIY1ycf8aguKFxq3RAFidvIbHsG4lg==","691f8ca61c6b4dcbb0aeb5f4","691f926bf65796ccca4c19a0","index1","<span style='color:red'>Fail,<span style='color:red'>Fail,<span style='color:green'>Lift,<span style='color:green'>Lift,<span style='color:red'>Fail,<span style='color:red'>Fail,<span style='color:red'>Fail,<span style='color:red'>Fail,<span style='color:green'>Lift,<span style='color:red'>Fail,<span style='color:red'>Fail,<span style='color:green'>Lift","<span style='color:red'>Fail,<span style='color:red'>Fail,<span style='color:green'>Lift,<span style='color:green'>Lift,<span style='color:green'>Lift,<span style='color:green'>Lift,<span style='color:green'>Lift,<span style='color:red'>Fail,<span style='color:green'>Lift,<span style='color:green'>Lift,<span style='color:red'>Fail,<span style='color:green'>Lift","<span style='color:red'>Fail,<span style='color:green'>Lift,<span style='color:green'>Lift,<span style='color:red'>Fail,<span style='color:green'>Lift,<span style='color:green'>Lift","0,0,1,1,0,0,0,0,1,0,0,1","0,0,1,1,1,1,1,0,1,1,0,1","0,1,1,0,1,1",10,20,20,"","","","","{""box1"":""1"",""box2"":""1""}","",NA,1,"round1_outcome",1,1,1,1,1,NA,NA,0,0,10,1,1,NA,NA,0,0,10,NA,NA,NA,NA,NA,NA,NA,NA,NA,NA,NA,NA,NA,NA,NA,NA,NA,NA,NA,NA,NA,NA,NA,"",NA,NA,NA,NA,NA,NA,NA,NA,2025-11-20 22:26:09
"10166.59999999404","https://psyc-201.github.io/xiang2023/exp/index1.html?PROLIFIC_PID=REDACTED&STUDY_ID=691f8ca61c6b4dcbb0aeb5f4&SESSION_ID=691f926bf65796ccca4c19a0","survey-html-form",13,349787,"0.0-309.0","Ex4ENYLj1Smk8bYNULMsdGxuams1v09cKfX/TsMWBlghNP4FhNDBt40ZyFxSrobipWpV9ShKTjwOqEapJ91dvwjH+IFcZZ6rc6Kf3CC7AaArPO83r1LbapR/p/CiBNAMhphwFa7MRPKFGkpETgZaQjRn560tuWAp5/h8FlZjR5cHOFcwSoBRERNsUcemurZCD3rH6A02OjrRbvxN85ki2lliJfl8iaYPoYiv1nR8WEy1xV+hDqzsfgX8uvDKnkb4YWh/rwe6WRzi/uzg6cc+NP/6UYeY0RjaL6XNXURg3o61D1/891lSj6MBqIY1ycf8aguKFxq3RAFidvIbHsG4lg==","691f8ca61c6b4dcbb0aeb5f4","691f926bf65796ccca4c19a0","index1","<span style='color:red'>Fail,<span style='color:red'>Fail,<span style='color:green'>Lift,<span style='color:green'>Lift,<span style='color:red'>Fail,<span style='color:red'>Fail,<span style='color:red'>Fail,<span style='color:red'>Fail,<span style='color:green'>Lift,<span style='color:red'>Fail,<span style='color:red'>Fail,<span style='color:green'>Lift","<span style='color:red'>Fail,<span style='color:red'>Fail,<span style='color:green'>Lift,<span style='color:green'>Lift,<span style='color:green'>Lift,<span style='color:green'>Lift,<span style='color:green'>Lift,<span style='color:red'>Fail,<span style='color:green'>Lift,<span style='color:green'>Lift,<span style='color:red'>Fail,<span style='color:green'>Lift","<span style='color:red'>Fail,<span style='color:green'>Lift,<span style='color:green'>Lift,<span style='color:red'>Fail,<span style='color:green'>Lift,<span style='color:green'>Lift","0,0,1,1,0,0,0,0,1,0,0,1","0,0,1,1,1,1,1,0,1,1,0,1","0,1,1,0,1,1",10,20,20,"","","","","{""box1"":""0"",""box2"":""0""}","",NA,1,"round2_ready",2,1,2,NA,NA,NA,NA,NA,NA,NA,NA,NA,NA,NA,NA,NA,NA,0,0,0,0,NA,NA,NA,NA,NA,NA,NA,NA,NA,NA,NA,NA,NA,NA,NA,NA,NA,NA,NA,"",NA,NA,NA,NA,NA,NA,NA,NA,2025-11-20 22:26:09
"19646.40000000596","https://psyc-201.github.io/xiang2023/exp/index1.html?PROLIFIC_PID=REDACTED&STUDY_ID=691f8ca61c6b4dcbb0aeb5f4&SESSION_ID=691f926bf65796ccca4c19a0","survey-html-form",14,369435,"0.0-310.0","Ex4ENYLj1Smk8bYNULMsdGxuams1v09cKfX/TsMWBlghNP4FhNDBt40ZyFxSrobipWpV9ShKTjwOqEapJ91dvwjH+IFcZZ6rc6Kf3CC7AaArPO83r1LbapR/p/CiBNAMhphwFa7MRPKFGkpETgZaQjRn560tuWAp5/h8FlZjR5cHOFcwSoBRERNsUcemurZCD3rH6A02OjrRbvxN85ki2lliJfl8iaYPoYiv1nR8WEy1xV+hDqzsfgX8uvDKnkb4YWh/rwe6WRzi/uzg6cc+NP/6UYeY0RjaL6XNXURg3o61D1/891lSj6MBqIY1ycf8aguKFxq3RAFidvIbHsG4lg==","691f8ca61c6b4dcbb0aeb5f4","691f926bf65796ccca4c19a0","index1","<span style='color:red'>Fail,<span style='color:red'>Fail,<span style='color:green'>Lift,<span style='color:green'>Lift,<span style='color:red'>Fail,<span style='color:red'>Fail,<span style='color:red'>Fail,<span style='color:red'>Fail,<span style='color:green'>Lift,<span style='color:red'>Fail,<span style='color:red'>Fail,<span style='color:green'>Lift","<span style='color:red'>Fail,<span style='color:red'>Fail,<span style='color:green'>Lift,<span style='color:green'>Lift,<span style='color:green'>Lift,<span style='color:green'>Lift,<span style='color:green'>Lift,<span style='color:red'>Fail,<span style='color:green'>Lift,<span style='color:green'>Lift,<span style='color:red'>Fail,<span style='color:green'>Lift","<span style='color:red'>Fail,<span style='color:green'>Lift,<span style='color:green'>Lift,<span style='color:red'>Fail,<span style='color:green'>Lift,<span style='color:green'>Lift","0,0,1,1,0,0,0,0,1,0,0,1","0,0,1,1,1,1,1,0,1,1,0,1","0,1,1,0,1,1",10,20,20,"","","","","{""box1"":""5"",""box2"":""5"",""box3"":""100"",""box4"":""100""}","",NA,1,"round2_outcome",3,1,2,5,5,100,100,1,1,20,NA,NA,NA,NA,NA,NA,NA,NA,NA,NA,NA,5,5,100,100,1,1,20,NA,NA,NA,NA,NA,NA,NA,NA,NA,NA,NA,NA,"",NA,NA,NA,NA,NA,NA,NA,NA,2025-11-20 22:26:09
"8742.5","https://psyc-201.github.io/xiang2023/exp/index1.html?PROLIFIC_PID=REDACTED&STUDY_ID=691f8ca61c6b4dcbb0aeb5f4&SESSION_ID=691f926bf65796ccca4c19a0","survey-html-form",15,378179,"0.0-311.0","Ex4ENYLj1Smk8bYNULMsdGxuams1v09cKfX/TsMWBlghNP4FhNDBt40ZyFxSrobipWpV9ShKTjwOqEapJ91dvwjH+IFcZZ6rc6Kf3CC7AaArPO83r1LbapR/p/CiBNAMhphwFa7MRPKFGkpETgZaQjRn560tuWAp5/h8FlZjR5cHOFcwSoBRERNsUcemurZCD3rH6A02OjrRbvxN85ki2lliJfl8iaYPoYiv1nR8WEy1xV+hDqzsfgX8uvDKnkb4YWh/rwe6WRzi/uzg6cc+NP/6UYeY0RjaL6XNXURg3o61D1/891lSj6MBqIY1ycf8aguKFxq3RAFidvIbHsG4lg==","691f8ca61c6b4dcbb0aeb5f4","691f926bf65796ccca4c19a0","index1","<span style='color:red'>Fail,<span style='color:red'>Fail,<span style='color:green'>Lift,<span style='color:green'>Lift,<span style='color:red'>Fail,<span style='color:red'>Fail,<span style='color:red'>Fail,<span style='color:red'>Fail,<span style='color:green'>Lift,<span style='color:red'>Fail,<span style='color:red'>Fail,<span style='color:green'>Lift","<span style='color:red'>Fail,<span style='color:red'>Fail,<span style='color:green'>Lift,<span style='color:green'>Lift,<span style='color:green'>Lift,<span style='color:green'>Lift,<span style='color:green'>Lift,<span style='color:red'>Fail,<span style='color:green'>Lift,<span style='color:green'>Lift,<span style='color:red'>Fail,<span style='color:green'>Lift","<span style='color:red'>Fail,<span style='color:green'>Lift,<span style='color:green'>Lift,<span style='color:red'>Fail,<span style='color:green'>Lift,<span style='color:green'>Lift","0,0,1,1,0,0,0,0,1,0,0,1","0,0,1,1,1,1,1,0,1,1,0,1","0,1,1,0,1,1",10,20,20,"","","","","{""box1"":""100""}","",NA,1,"round3_ready",4,1,3,NA,NA,NA,NA,NA,NA,NA,NA,NA,NA,NA,NA,NA,NA,100,100,NA,NA,NA,NA,NA,NA,NA,NA,NA,100,100,NA,NA,NA,NA,NA,NA,NA,NA,NA,NA,"",NA,NA,NA,NA,NA,NA,NA,NA,2025-11-20 22:26:09
"13606.300000011921","https://psyc-201.github.io/xiang2023/exp/index1.html?PROLIFIC_PID=REDACTED&STUDY_ID=691f8ca61c6b4dcbb0aeb5f4&SESSION_ID=691f926bf65796ccca4c19a0","survey-html-form",16,391787,"0.0-312.0-0.0","Ex4ENYLj1Smk8bYNULMsdGxuams1v09cKfX/TsMWBlghNP4FhNDBt40ZyFxSrobipWpV9ShKTjwOqEapJ91dvwjH+IFcZZ6rc6Kf3CC7AaArPO83r1LbapR/p/CiBNAMhphwFa7MRPKFGkpETgZaQjRn560tuWAp5/h8FlZjR5cHOFcwSoBRERNsUcemurZCD3rH6A02OjrRbvxN85ki2lliJfl8iaYPoYiv1nR8WEy1xV+hDqzsfgX8uvDKnkb4YWh/rwe6WRzi/uzg6cc+NP/6UYeY0RjaL6XNXURg3o61D1/891lSj6MBqIY1ycf8aguKFxq3RAFidvIbHsG4lg==","691f8ca61c6b4dcbb0aeb5f4","691f926bf65796ccca4c19a0","index1","<span style='color:red'>Fail,<span style='color:red'>Fail,<span style='color:green'>Lift,<span style='color:green'>Lift,<span style='color:red'>Fail,<span style='color:red'>Fail,<span style='color:red'>Fail,<span style='color:red'>Fail,<span style='color:green'>Lift,<span style='color:red'>Fail,<span style='color:red'>Fail,<span style='color:green'>Lift","<span style='color:red'>Fail,<span style='color:red'>Fail,<span style='color:green'>Lift,<span style='color:green'>Lift,<span style='color:green'>Lift,<span style='color:green'>Lift,<span style='color:green'>Lift,<span style='color:red'>Fail,<span style='color:green'>Lift,<span style='color:green'>Lift,<span style='color:red'>Fail,<span style='color:green'>Lift","<span style='color:red'>Fail,<span style='color:green'>Lift,<span style='color:green'>Lift,<span style='color:red'>Fail,<span style='color:green'>Lift,<span style='color:green'>Lift","0,0,1,1,0,0,0,0,1,0,0,1","0,0,1,1,1,1,1,0,1,1,0,1","0,1,1,0,1,1",10,20,20,"","","","","{""box1"":""5"",""box2"":""5"",""box3"":""100"",""box4"":""100""}","",NA,2,"round3_lift",5,1,3,5,5,100,100,1,1,20,NA,NA,NA,NA,NA,NA,NA,NA,NA,NA,NA,NA,NA,NA,NA,NA,NA,NA,NA,NA,5,5,100,100,1,1,20,NA,NA,NA,"",NA,NA,NA,NA,NA,NA,NA,NA,2025-11-20 22:26:09
"null","https://psyc-201.github.io/xiang2023/exp/index1.html?PROLIFIC_PID=REDACTED&STUDY_ID=691f8ca61c6b4dcbb0aeb5f4&SESSION_ID=691f926bf65796ccca4c19a0","html-keyboard-response",17,394799,"0.0-316.0","Ex4ENYLj1Smk8bYNULMsdGxuams1v09cKfX/TsMWBlghNP4FhNDBt40ZyFxSrobipWpV9ShKTjwOqEapJ91dvwjH+IFcZZ6rc6Kf3CC7AaArPO83r1LbapR/p/CiBNAMhphwFa7MRPKFGkpETgZaQjRn560tuWAp5/h8FlZjR5cHOFcwSoBRERNsUcemurZCD3rH6A02OjrRbvxN85ki2lliJfl8iaYPoYiv1nR8WEy1xV+hDqzsfgX8uvDKnkb4YWh/rwe6WRzi/uzg6cc+NP/6UYeY0RjaL6XNXURg3o61D1/891lSj6MBqIY1ycf8aguKFxq3RAFidvIbHsG4lg==","691f8ca61c6b4dcbb0aeb5f4","691f926bf65796ccca4c19a0","index1","<span style='color:red'>Fail,<span style='color:red'>Fail,<span style='color:green'>Lift,<span style='color:green'>Lift,<span style='color:red'>Fail,<span style='color:red'>Fail,<span style='color:red'>Fail,<span style='color:red'>Fail,<span style='color:green'>Lift,<span style='color:red'>Fail,<span style='color:red'>Fail,<span style='color:green'>Lift","<span style='color:red'>Fail,<span style='color:red'>Fail,<span style='color:green'>Lift,<span style='color:green'>Lift,<span style='color:green'>Lift,<span style='color:green'>Lift,<span style='color:green'>Lift,<span style='color:red'>Fail,<span style='color:green'>Lift,<span style='color:green'>Lift,<span style='color:red'>Fail,<span style='color:green'>Lift","<span style='color:red'>Fail,<span style='color:green'>Lift,<span style='color:green'>Lift,<span style='color:red'>Fail,<span style='color:green'>Lift,<span style='color:green'>Lift","0,0,1,1,0,0,0,0,1,0,0,1","0,0,1,1,1,1,1,0,1,1,0,1","0,1,1,0,1,1",10,20,20,"","","<p style='font-size:30px'><b> New Contest! </b></p>","null","","",NA,2,"",NA,NA,NA,NA,NA,NA,NA,NA,NA,NA,NA,NA,NA,NA,NA,NA,NA,NA,NA,NA,NA,NA,NA,NA,NA,NA,NA,NA,NA,NA,NA,NA,NA,NA,NA,NA,NA,NA,NA,NA,"",NA,NA,NA,NA,NA,NA,NA,NA,2025-11-20 22:26:09
"18371.20000001788","https://psyc-201.github.io/xiang2023/exp/index1.html?PROLIFIC_PID=REDACTED&STUDY_ID=691f8ca61c6b4dcbb0aeb5f4&SESSION_ID=691f926bf65796ccca4c19a0","survey-html-form",18,413171,"0.0-317.0","Ex4ENYLj1Smk8bYNULMsdGxuams1v09cKfX/TsMWBlghNP4FhNDBt40ZyFxSrobipWpV9ShKTjwOqEapJ91dvwjH+IFcZZ6rc6Kf3CC7AaArPO83r1LbapR/p/CiBNAMhphwFa7MRPKFGkpETgZaQjRn560tuWAp5/h8FlZjR5cHOFcwSoBRERNsUcemurZCD3rH6A02OjrRbvxN85ki2lliJfl8iaYPoYiv1nR8WEy1xV+hDqzsfgX8uvDKnkb4YWh/rwe6WRzi/uzg6cc+NP/6UYeY0RjaL6XNXURg3o61D1/891lSj6MBqIY1ycf8aguKFxq3RAFidvIbHsG4lg==","691f8ca61c6b4dcbb0aeb5f4","691f926bf65796ccca4c19a0","index1","<span style='color:red'>Fail,<span style='color:red'>Fail,<span style='color:green'>Lift,<span style='color:green'>Lift,<span style='color:red'>Fail,<span style='color:red'>Fail,<span style='color:red'>Fail,<span style='color:red'>Fail,<span style='color:green'>Lift,<span style='color:red'>Fail,<span style='color:red'>Fail,<span style='color:green'>Lift","<span style='color:red'>Fail,<span style='color:red'>Fail,<span style='color:green'>Lift,<span style='color:green'>Lift,<span style='color:green'>Lift,<span style='color:green'>Lift,<span style='color:green'>Lift,<span style='color:red'>Fail,<span style='color:green'>Lift,<span style='color:green'>Lift,<span style='color:red'>Fail,<span style='color:green'>Lift","<span style='color:red'>Fail,<span style='color:green'>Lift,<span style='color:green'>Lift,<span style='color:red'>Fail,<span style='color:green'>Lift,<span style='color:green'>Lift","0,0,1,1,0,0,0,0,1,0,0,1","0,0,1,1,1,1,1,0,1,1,0,1","0,1,1,0,1,1",10,20,20,"","","","","{""box1"":""5"",""box2"":""1"",""box3"":""50""}","",NA,2,"round1_outcome",1,2,1,5,1,50,NA,1,0,10,5,1,50,NA,1,0,10,NA,NA,NA,NA,NA,NA,NA,NA,NA,NA,NA,NA,NA,NA,NA,NA,NA,NA,NA,NA,NA,NA,NA,"",NA,NA,NA,NA,NA,NA,NA,NA,2025-11-20 22:26:09
"10550.59999999404","https://psyc-201.github.io/xiang2023/exp/index1.html?PROLIFIC_PID=REDACTED&STUDY_ID=691f8ca61c6b4dcbb0aeb5f4&SESSION_ID=691f926bf65796ccca4c19a0","survey-html-form",19,423723,"0.0-318.0","Ex4ENYLj1Smk8bYNULMsdGxuams1v09cKfX/TsMWBlghNP4FhNDBt40ZyFxSrobipWpV9ShKTjwOqEapJ91dvwjH+IFcZZ6rc6Kf3CC7AaArPO83r1LbapR/p/CiBNAMhphwFa7MRPKFGkpETgZaQjRn560tuWAp5/h8FlZjR5cHOFcwSoBRERNsUcemurZCD3rH6A02OjrRbvxN85ki2lliJfl8iaYPoYiv1nR8WEy1xV+hDqzsfgX8uvDKnkb4YWh/rwe6WRzi/uzg6cc+NP/6UYeY0RjaL6XNXURg3o61D1/891lSj6MBqIY1ycf8aguKFxq3RAFidvIbHsG4lg==","691f8ca61c6b4dcbb0aeb5f4","691f926bf65796ccca4c19a0","index1","<span style='color:red'>Fail,<span style='color:red'>Fail,<span style='color:green'>Lift,<span style='color:green'>Lift,<span style='color:red'>Fail,<span style='color:red'>Fail,<span style='color:red'>Fail,<span style='color:red'>Fail,<span style='color:green'>Lift,<span style='color:red'>Fail,<span style='color:red'>Fail,<span style='color:green'>Lift","<span style='color:red'>Fail,<span style='color:red'>Fail,<span style='color:green'>Lift,<span style='color:green'>Lift,<span style='color:green'>Lift,<span style='color:green'>Lift,<span style='color:green'>Lift,<span style='color:red'>Fail,<span style='color:green'>Lift,<span style='color:green'>Lift,<span style='color:red'>Fail,<span style='color:green'>Lift","<span style='color:red'>Fail,<span style='color:green'>Lift,<span style='color:green'>Lift,<span style='color:red'>Fail,<span style='color:green'>Lift,<span style='color:green'>Lift","0,0,1,1,0,0,0,0,1,0,0,1","0,0,1,1,1,1,1,0,1,1,0,1","0,1,1,0,1,1",10,20,20,"","","","","{""box1"":""100"",""box2"":""50""}","",NA,2,"round2_ready",2,2,2,NA,NA,NA,NA,NA,NA,NA,NA,NA,NA,NA,NA,NA,NA,100,50,100,50,NA,NA,NA,NA,NA,NA,NA,NA,NA,NA,NA,NA,NA,NA,NA,NA,NA,NA,NA,"",NA,NA,NA,NA,NA,NA,NA,NA,2025-11-20 22:26:09
"15518.5","https://psyc-201.github.io/xiang2023/exp/index1.html?PROLIFIC_PID=REDACTED&STUDY_ID=691f8ca61c6b4dcbb0aeb5f4&SESSION_ID=691f926bf65796ccca4c19a0","survey-html-form",20,439243,"0.0-319.0","Ex4ENYLj1Smk8bYNULMsdGxuams1v09cKfX/TsMWBlghNP4FhNDBt40ZyFxSrobipWpV9ShKTjwOqEapJ91dvwjH+IFcZZ6rc6Kf3CC7AaArPO83r1LbapR/p/CiBNAMhphwFa7MRPKFGkpETgZaQjRn560tuWAp5/h8FlZjR5cHOFcwSoBRERNsUcemurZCD3rH6A02OjrRbvxN85ki2lliJfl8iaYPoYiv1nR8WEy1xV+hDqzsfgX8uvDKnkb4YWh/rwe6WRzi/uzg6cc+NP/6UYeY0RjaL6XNXURg3o61D1/891lSj6MBqIY1ycf8aguKFxq3RAFidvIbHsG4lg==","691f8ca61c6b4dcbb0aeb5f4","691f926bf65796ccca4c19a0","index1","<span style='color:red'>Fail,<span style='color:red'>Fail,<span style='color:green'>Lift,<span style='color:green'>Lift,<span style='color:red'>Fail,<span style='color:red'>Fail,<span style='color:red'>Fail,<span style='color:red'>Fail,<span style='color:green'>Lift,<span style='color:red'>Fail,<span style='color:red'>Fail,<span style='color:green'>Lift","<span style='color:red'>Fail,<span style='color:red'>Fail,<span style='color:green'>Lift,<span style='color:green'>Lift,<span style='color:green'>Lift,<span style='color:green'>Lift,<span style='color:green'>Lift,<span style='color:red'>Fail,<span style='color:green'>Lift,<span style='color:green'>Lift,<span style='color:red'>Fail,<span style='color:green'>Lift","<span style='color:red'>Fail,<span style='color:green'>Lift,<span style='color:green'>Lift,<span style='color:red'>Fail,<span style='color:green'>Lift,<span style='color:green'>Lift","0,0,1,1,0,0,0,0,1,0,0,1","0,0,1,1,1,1,1,0,1,1,0,1","0,1,1,0,1,1",10,20,20,"","","","","{""box1"":""5"",""box2"":""5"",""box3"":""50"",""box4"":""100""}","",NA,2,"round2_outcome",3,2,2,5,5,50,100,1,1,20,NA,NA,NA,NA,NA,NA,NA,NA,NA,NA,NA,5,5,50,100,1,1,20,NA,NA,NA,NA,NA,NA,NA,NA,NA,NA,NA,NA,"",NA,NA,NA,NA,NA,NA,NA,NA,2025-11-20 22:26:09
"4479","https://psyc-201.github.io/xiang2023/exp/index1.html?PROLIFIC_PID=REDACTED&STUDY_ID=691f8ca61c6b4dcbb0aeb5f4&SESSION_ID=691f926bf65796ccca4c19a0","survey-html-form",21,443723,"0.0-320.0","Ex4ENYLj1Smk8bYNULMsdGxuams1v09cKfX/TsMWBlghNP4FhNDBt40ZyFxSrobipWpV9ShKTjwOqEapJ91dvwjH+IFcZZ6rc6Kf3CC7AaArPO83r1LbapR/p/CiBNAMhphwFa7MRPKFGkpETgZaQjRn560tuWAp5/h8FlZjR5cHOFcwSoBRERNsUcemurZCD3rH6A02OjrRbvxN85ki2lliJfl8iaYPoYiv1nR8WEy1xV+hDqzsfgX8uvDKnkb4YWh/rwe6WRzi/uzg6cc+NP/6UYeY0RjaL6XNXURg3o61D1/891lSj6MBqIY1ycf8aguKFxq3RAFidvIbHsG4lg==","691f8ca61c6b4dcbb0aeb5f4","691f926bf65796ccca4c19a0","index1","<span style='color:red'>Fail,<span style='color:red'>Fail,<span style='color:green'>Lift,<span style='color:green'>Lift,<span style='color:red'>Fail,<span style='color:red'>Fail,<span style='color:red'>Fail,<span style='color:red'>Fail,<span style='color:green'>Lift,<span style='color:red'>Fail,<span style='color:red'>Fail,<span style='color:green'>Lift","<span style='color:red'>Fail,<span style='color:red'>Fail,<span style='color:green'>Lift,<span style='color:green'>Lift,<span style='color:green'>Lift,<span style='color:green'>Lift,<span style='color:green'>Lift,<span style='color:red'>Fail,<span style='color:green'>Lift,<span style='color:green'>Lift,<span style='color:red'>Fail,<span style='color:green'>Lift","<span style='color:red'>Fail,<span style='color:green'>Lift,<span style='color:green'>Lift,<span style='color:red'>Fail,<span style='color:green'>Lift,<span style='color:green'>Lift","0,0,1,1,0,0,0,0,1,0,0,1","0,0,1,1,1,1,1,0,1,1,0,1","0,1,1,0,1,1",10,20,20,"","","","","{""box1"":""100""}","",NA,2,"round3_ready",4,2,3,NA,NA,NA,NA,NA,NA,NA,NA,NA,NA,NA,NA,NA,NA,100,100,NA,NA,NA,NA,NA,NA,NA,NA,NA,100,100,NA,NA,NA,NA,NA,NA,NA,NA,NA,NA,"",NA,NA,NA,NA,NA,NA,NA,NA,2025-11-20 22:26:09
"16430.5","https://psyc-201.github.io/xiang2023/exp/index1.html?PROLIFIC_PID=REDACTED&STUDY_ID=691f8ca61c6b4dcbb0aeb5f4&SESSION_ID=691f926bf65796ccca4c19a0","survey-html-form",22,460155,"0.0-321.0-0.0","Ex4ENYLj1Smk8bYNULMsdGxuams1v09cKfX/TsMWBlghNP4FhNDBt40ZyFxSrobipWpV9ShKTjwOqEapJ91dvwjH+IFcZZ6rc6Kf3CC7AaArPO83r1LbapR/p/CiBNAMhphwFa7MRPKFGkpETgZaQjRn560tuWAp5/h8FlZjR5cHOFcwSoBRERNsUcemurZCD3rH6A02OjrRbvxN85ki2lliJfl8iaYPoYiv1nR8WEy1xV+hDqzsfgX8uvDKnkb4YWh/rwe6WRzi/uzg6cc+NP/6UYeY0RjaL6XNXURg3o61D1/891lSj6MBqIY1ycf8aguKFxq3RAFidvIbHsG4lg==","691f8ca61c6b4dcbb0aeb5f4","691f926bf65796ccca4c19a0","index1","<span style='color:red'>Fail,<span style='color:red'>Fail,<span style='color:green'>Lift,<span style='color:green'>Lift,<span style='color:red'>Fail,<span style='color:red'>Fail,<span style='color:red'>Fail,<span style='color:red'>Fail,<span style='color:green'>Lift,<span style='color:red'>Fail,<span style='color:red'>Fail,<span style='color:green'>Lift","<span style='color:red'>Fail,<span style='color:red'>Fail,<span style='color:green'>Lift,<span style='color:green'>Lift,<span style='color:green'>Lift,<span style='color:green'>Lift,<span style='color:green'>Lift,<span style='color:red'>Fail,<span style='color:green'>Lift,<span style='color:green'>Lift,<span style='color:red'>Fail,<span style='color:green'>Lift","<span style='color:red'>Fail,<span style='color:green'>Lift,<span style='color:green'>Lift,<span style='color:red'>Fail,<span style='color:green'>Lift,<span style='color:green'>Lift","0,0,1,1,0,0,0,0,1,0,0,1","0,0,1,1,1,1,1,0,1,1,0,1","0,1,1,0,1,1",10,20,20,"","","","","{""box1"":""5"",""box2"":""5"",""box3"":""50"",""box4"":""100""}","",NA,3,"round3_lift",5,2,3,5,5,50,100,1,1,20,NA,NA,NA,NA,NA,NA,NA,NA,NA,NA,NA,NA,NA,NA,NA,NA,NA,NA,NA,NA,5,5,50,100,1,1,20,NA,NA,NA,"",NA,NA,NA,NA,NA,NA,NA,NA,2025-11-20 22:26:09
"null","https://psyc-201.github.io/xiang2023/exp/index1.html?PROLIFIC_PID=REDACTED&STUDY_ID=691f8ca61c6b4dcbb0aeb5f4&SESSION_ID=691f926bf65796ccca4c19a0","html-keyboard-response",23,463159,"0.0-325.0","Ex4ENYLj1Smk8bYNULMsdGxuams1v09cKfX/TsMWBlghNP4FhNDBt40ZyFxSrobipWpV9ShKTjwOqEapJ91dvwjH+IFcZZ6rc6Kf3CC7AaArPO83r1LbapR/p/CiBNAMhphwFa7MRPKFGkpETgZaQjRn560tuWAp5/h8FlZjR5cHOFcwSoBRERNsUcemurZCD3rH6A02OjrRbvxN85ki2lliJfl8iaYPoYiv1nR8WEy1xV+hDqzsfgX8uvDKnkb4YWh/rwe6WRzi/uzg6cc+NP/6UYeY0RjaL6XNXURg3o61D1/891lSj6MBqIY1ycf8aguKFxq3RAFidvIbHsG4lg==","691f8ca61c6b4dcbb0aeb5f4","691f926bf65796ccca4c19a0","index1","<span style='color:red'>Fail,<span style='color:red'>Fail,<span style='color:green'>Lift,<span style='color:green'>Lift,<span style='color:red'>Fail,<span style='color:red'>Fail,<span style='color:red'>Fail,<span style='color:red'>Fail,<span style='color:green'>Lift,<span style='color:red'>Fail,<span style='color:red'>Fail,<span style='color:green'>Lift","<span style='color:red'>Fail,<span style='color:red'>Fail,<span style='color:green'>Lift,<span style='color:green'>Lift,<span style='color:green'>Lift,<span style='color:green'>Lift,<span style='color:green'>Lift,<span style='color:red'>Fail,<span style='color:green'>Lift,<span style='color:green'>Lift,<span style='color:red'>Fail,<span style='color:green'>Lift","<span style='color:red'>Fail,<span style='color:green'>Lift,<span style='color:green'>Lift,<span style='color:red'>Fail,<span style='color:green'>Lift,<span style='color:green'>Lift","0,0,1,1,0,0,0,0,1,0,0,1","0,0,1,1,1,1,1,0,1,1,0,1","0,1,1,0,1,1",10,20,20,"","","<p style='font-size:30px'><b> New Contest! </b></p>","null","","",NA,3,"",NA,NA,NA,NA,NA,NA,NA,NA,NA,NA,NA,NA,NA,NA,NA,NA,NA,NA,NA,NA,NA,NA,NA,NA,NA,NA,NA,NA,NA,NA,NA,NA,NA,NA,NA,NA,NA,NA,NA,NA,"",NA,NA,NA,NA,NA,NA,NA,NA,2025-11-20 22:26:09
"31579.09999999404","https://psyc-201.github.io/xiang2023/exp/index1.html?PROLIFIC_PID=REDACTED&STUDY_ID=691f8ca61c6b4dcbb0aeb5f4&SESSION_ID=691f926bf65796ccca4c19a0","survey-html-form",24,494739,"0.0-326.0","Ex4ENYLj1Smk8bYNULMsdGxuams1v09cKfX/TsMWBlghNP4FhNDBt40ZyFxSrobipWpV9ShKTjwOqEapJ91dvwjH+IFcZZ6rc6Kf3CC7AaArPO83r1LbapR/p/CiBNAMhphwFa7MRPKFGkpETgZaQjRn560tuWAp5/h8FlZjR5cHOFcwSoBRERNsUcemurZCD3rH6A02OjrRbvxN85ki2lliJfl8iaYPoYiv1nR8WEy1xV+hDqzsfgX8uvDKnkb4YWh/rwe6WRzi/uzg6cc+NP/6UYeY0RjaL6XNXURg3o61D1/891lSj6MBqIY1ycf8aguKFxq3RAFidvIbHsG4lg==","691f8ca61c6b4dcbb0aeb5f4","691f926bf65796ccca4c19a0","index1","<span style='color:red'>Fail,<span style='color:red'>Fail,<span style='color:green'>Lift,<span style='color:green'>Lift,<span style='color:red'>Fail,<span style='color:red'>Fail,<span style='color:red'>Fail,<span style='color:red'>Fail,<span style='color:green'>Lift,<span style='color:red'>Fail,<span style='color:red'>Fail,<span style='color:green'>Lift","<span style='color:red'>Fail,<span style='color:red'>Fail,<span style='color:green'>Lift,<span style='color:green'>Lift,<span style='color:green'>Lift,<span style='color:green'>Lift,<span style='color:green'>Lift,<span style='color:red'>Fail,<span style='color:green'>Lift,<span style='color:green'>Lift,<span style='color:red'>Fail,<span style='color:green'>Lift","<span style='color:red'>Fail,<span style='color:green'>Lift,<span style='color:green'>Lift,<span style='color:red'>Fail,<span style='color:green'>Lift,<span style='color:green'>Lift","0,0,1,1,0,0,0,0,1,0,0,1","0,0,1,1,1,1,1,0,1,1,0,1","0,1,1,0,1,1",10,20,20,"","","","","{""box1"":""10"",""box2"":""5"",""box3"":""50"",""box4"":""100""}","",NA,3,"round1_outcome",1,3,1,10,5,50,100,1,1,10,10,5,50,100,1,1,10,NA,NA,NA,NA,NA,NA,NA,NA,NA,NA,NA,NA,NA,NA,NA,NA,NA,NA,NA,NA,NA,NA,NA,"",NA,NA,NA,NA,NA,NA,NA,NA,2025-11-20 22:26:09
"9486.199999988079","https://psyc-201.github.io/xiang2023/exp/index1.html?PROLIFIC_PID=REDACTED&STUDY_ID=691f8ca61c6b4dcbb0aeb5f4&SESSION_ID=691f926bf65796ccca4c19a0","survey-html-form",25,504227,"0.0-327.0","Ex4ENYLj1Smk8bYNULMsdGxuams1v09cKfX/TsMWBlghNP4FhNDBt40ZyFxSrobipWpV9ShKTjwOqEapJ91dvwjH+IFcZZ6rc6Kf3CC7AaArPO83r1LbapR/p/CiBNAMhphwFa7MRPKFGkpETgZaQjRn560tuWAp5/h8FlZjR5cHOFcwSoBRERNsUcemurZCD3rH6A02OjrRbvxN85ki2lliJfl8iaYPoYiv1nR8WEy1xV+hDqzsfgX8uvDKnkb4YWh/rwe6WRzi/uzg6cc+NP/6UYeY0RjaL6XNXURg3o61D1/891lSj6MBqIY1ycf8aguKFxq3RAFidvIbHsG4lg==","691f8ca61c6b4dcbb0aeb5f4","691f926bf65796ccca4c19a0","index1","<span style='color:red'>Fail,<span style='color:red'>Fail,<span style='color:green'>Lift,<span style='color:green'>Lift,<span style='color:red'>Fail,<span style='color:red'>Fail,<span style='color:red'>Fail,<span style='color:red'>Fail,<span style='color:green'>Lift,<span style='color:red'>Fail,<span style='color:red'>Fail,<span style='color:green'>Lift","<span style='color:red'>Fail,<span style='color:red'>Fail,<span style='color:green'>Lift,<span style='color:green'>Lift,<span style='color:green'>Lift,<span style='color:green'>Lift,<span style='color:green'>Lift,<span style='color:red'>Fail,<span style='color:green'>Lift,<span style='color:green'>Lift,<span style='color:red'>Fail,<span style='color:green'>Lift","<span style='color:red'>Fail,<span style='color:green'>Lift,<span style='color:green'>Lift,<span style='color:red'>Fail,<span style='color:green'>Lift,<span style='color:green'>Lift","0,0,1,1,0,0,0,0,1,0,0,1","0,0,1,1,1,1,1,0,1,1,0,1","0,1,1,0,1,1",10,20,20,"","","","","{""box1"":""100"",""box2"":""50""}","",NA,3,"round2_ready",2,3,2,NA,NA,NA,NA,NA,NA,NA,NA,NA,NA,NA,NA,NA,NA,100,50,100,50,NA,NA,NA,NA,NA,NA,NA,NA,NA,NA,NA,NA,NA,NA,NA,NA,NA,NA,NA,"",NA,NA,NA,NA,NA,NA,NA,NA,2025-11-20 22:26:09
"12423.300000011921","https://psyc-201.github.io/xiang2023/exp/index1.html?PROLIFIC_PID=REDACTED&STUDY_ID=691f8ca61c6b4dcbb0aeb5f4&SESSION_ID=691f926bf65796ccca4c19a0","survey-html-form",26,516651,"0.0-328.0","Ex4ENYLj1Smk8bYNULMsdGxuams1v09cKfX/TsMWBlghNP4FhNDBt40ZyFxSrobipWpV9ShKTjwOqEapJ91dvwjH+IFcZZ6rc6Kf3CC7AaArPO83r1LbapR/p/CiBNAMhphwFa7MRPKFGkpETgZaQjRn560tuWAp5/h8FlZjR5cHOFcwSoBRERNsUcemurZCD3rH6A02OjrRbvxN85ki2lliJfl8iaYPoYiv1nR8WEy1xV+hDqzsfgX8uvDKnkb4YWh/rwe6WRzi/uzg6cc+NP/6UYeY0RjaL6XNXURg3o61D1/891lSj6MBqIY1ycf8aguKFxq3RAFidvIbHsG4lg==","691f8ca61c6b4dcbb0aeb5f4","691f926bf65796ccca4c19a0","index1","<span style='color:red'>Fail,<span style='color:red'>Fail,<span style='color:green'>Lift,<span style='color:green'>Lift,<span style='color:red'>Fail,<span style='color:red'>Fail,<span style='color:red'>Fail,<span style='color:red'>Fail,<span style='color:green'>Lift,<span style='color:red'>Fail,<span style='color:red'>Fail,<span style='color:green'>Lift","<span style='color:red'>Fail,<span style='color:red'>Fail,<span style='color:green'>Lift,<span style='color:green'>Lift,<span style='color:green'>Lift,<span style='color:green'>Lift,<span style='color:green'>Lift,<span style='color:red'>Fail,<span style='color:green'>Lift,<span style='color:green'>Lift,<span style='color:red'>Fail,<span style='color:green'>Lift","<span style='color:red'>Fail,<span style='color:green'>Lift,<span style='color:green'>Lift,<span style='color:red'>Fail,<span style='color:green'>Lift,<span style='color:green'>Lift","0,0,1,1,0,0,0,0,1,0,0,1","0,0,1,1,1,1,1,0,1,1,0,1","0,1,1,0,1,1",10,20,20,"","","","","{""box1"":""10"",""box2"":""5"",""box3"":""50"",""box4"":""100""}","",NA,3,"round2_outcome",3,3,2,10,5,50,100,1,1,20,NA,NA,NA,NA,NA,NA,NA,NA,NA,NA,NA,10,5,50,100,1,1,20,NA,NA,NA,NA,NA,NA,NA,NA,NA,NA,NA,NA,"",NA,NA,NA,NA,NA,NA,NA,NA,2025-11-20 22:26:09
"4630.300000011921","https://psyc-201.github.io/xiang2023/exp/index1.html?PROLIFIC_PID=REDACTED&STUDY_ID=691f8ca61c6b4dcbb0aeb5f4&SESSION_ID=691f926bf65796ccca4c19a0","survey-html-form",27,521283,"0.0-329.0","Ex4ENYLj1Smk8bYNULMsdGxuams1v09cKfX/TsMWBlghNP4FhNDBt40ZyFxSrobipWpV9ShKTjwOqEapJ91dvwjH+IFcZZ6rc6Kf3CC7AaArPO83r1LbapR/p/CiBNAMhphwFa7MRPKFGkpETgZaQjRn560tuWAp5/h8FlZjR5cHOFcwSoBRERNsUcemurZCD3rH6A02OjrRbvxN85ki2lliJfl8iaYPoYiv1nR8WEy1xV+hDqzsfgX8uvDKnkb4YWh/rwe6WRzi/uzg6cc+NP/6UYeY0RjaL6XNXURg3o61D1/891lSj6MBqIY1ycf8aguKFxq3RAFidvIbHsG4lg==","691f8ca61c6b4dcbb0aeb5f4","691f926bf65796ccca4c19a0","index1","<span style='color:red'>Fail,<span style='color:red'>Fail,<span style='color:green'>Lift,<span style='color:green'>Lift,<span style='color:red'>Fail,<span style='color:red'>Fail,<span style='color:red'>Fail,<span style='color:red'>Fail,<span style='color:green'>Lift,<span style='color:red'>Fail,<span style='color:red'>Fail,<span style='color:green'>Lift","<span style='color:red'>Fail,<span style='color:red'>Fail,<span style='color:green'>Lift,<span style='color:green'>Lift,<span style='color:green'>Lift,<span style='color:green'>Lift,<span style='color:green'>Lift,<span style='color:red'>Fail,<span style='color:green'>Lift,<span style='color:green'>Lift,<span style='color:red'>Fail,<span style='color:green'>Lift","<span style='color:red'>Fail,<span style='color:green'>Lift,<span style='color:green'>Lift,<span style='color:red'>Fail,<span style='color:green'>Lift,<span style='color:green'>Lift","0,0,1,1,0,0,0,0,1,0,0,1","0,0,1,1,1,1,1,0,1,1,0,1","0,1,1,0,1,1",10,20,20,"","","","","{""box1"":""95""}","",NA,3,"round3_ready",4,3,3,NA,NA,NA,NA,NA,NA,NA,NA,NA,NA,NA,NA,NA,NA,95,95,NA,NA,NA,NA,NA,NA,NA,NA,NA,95,95,NA,NA,NA,NA,NA,NA,NA,NA,NA,NA,"",NA,NA,NA,NA,NA,NA,NA,NA,2025-11-20 22:26:09
"16278.5","https://psyc-201.github.io/xiang2023/exp/index1.html?PROLIFIC_PID=REDACTED&STUDY_ID=691f8ca61c6b4dcbb0aeb5f4&SESSION_ID=691f926bf65796ccca4c19a0","survey-html-form",28,537563,"0.0-330.0-0.0","Ex4ENYLj1Smk8bYNULMsdGxuams1v09cKfX/TsMWBlghNP4FhNDBt40ZyFxSrobipWpV9ShKTjwOqEapJ91dvwjH+IFcZZ6rc6Kf3CC7AaArPO83r1LbapR/p/CiBNAMhphwFa7MRPKFGkpETgZaQjRn560tuWAp5/h8FlZjR5cHOFcwSoBRERNsUcemurZCD3rH6A02OjrRbvxN85ki2lliJfl8iaYPoYiv1nR8WEy1xV+hDqzsfgX8uvDKnkb4YWh/rwe6WRzi/uzg6cc+NP/6UYeY0RjaL6XNXURg3o61D1/891lSj6MBqIY1ycf8aguKFxq3RAFidvIbHsG4lg==","691f8ca61c6b4dcbb0aeb5f4","691f926bf65796ccca4c19a0","index1","<span style='color:red'>Fail,<span style='color:red'>Fail,<span style='color:green'>Lift,<span style='color:green'>Lift,<span style='color:red'>Fail,<span style='color:red'>Fail,<span style='color:red'>Fail,<span style='color:red'>Fail,<span style='color:green'>Lift,<span style='color:red'>Fail,<span style='color:red'>Fail,<span style='color:green'>Lift","<span style='color:red'>Fail,<span style='color:red'>Fail,<span style='color:green'>Lift,<span style='color:green'>Lift,<span style='color:green'>Lift,<span style='color:green'>Lift,<span style='color:green'>Lift,<span style='color:red'>Fail,<span style='color:green'>Lift,<span style='color:green'>Lift,<span style='color:red'>Fail,<span style='color:green'>Lift","<span style='color:red'>Fail,<span style='color:green'>Lift,<span style='color:green'>Lift,<span style='color:red'>Fail,<span style='color:green'>Lift,<span style='color:green'>Lift","0,0,1,1,0,0,0,0,1,0,0,1","0,0,1,1,1,1,1,0,1,1,0,1","0,1,1,0,1,1",10,20,20,"","","","","{""box1"":""10"",""box2"":""5"",""box3"":""50"",""box4"":""100""}","",NA,4,"round3_lift",5,3,3,10,5,50,100,1,1,20,NA,NA,NA,NA,NA,NA,NA,NA,NA,NA,NA,NA,NA,NA,NA,NA,NA,NA,NA,NA,10,5,50,100,1,1,20,NA,NA,NA,"",NA,NA,NA,NA,NA,NA,NA,NA,2025-11-20 22:26:09
"null","https://psyc-201.github.io/xiang2023/exp/index1.html?PROLIFIC_PID=REDACTED&STUDY_ID=691f8ca61c6b4dcbb0aeb5f4&SESSION_ID=691f926bf65796ccca4c19a0","html-keyboard-response",29,540569,"0.0-334.0","Ex4ENYLj1Smk8bYNULMsdGxuams1v09cKfX/TsMWBlghNP4FhNDBt40ZyFxSrobipWpV9ShKTjwOqEapJ91dvwjH+IFcZZ6rc6Kf3CC7AaArPO83r1LbapR/p/CiBNAMhphwFa7MRPKFGkpETgZaQjRn560tuWAp5/h8FlZjR5cHOFcwSoBRERNsUcemurZCD3rH6A02OjrRbvxN85ki2lliJfl8iaYPoYiv1nR8WEy1xV+hDqzsfgX8uvDKnkb4YWh/rwe6WRzi/uzg6cc+NP/6UYeY0RjaL6XNXURg3o61D1/891lSj6MBqIY1ycf8aguKFxq3RAFidvIbHsG4lg==","691f8ca61c6b4dcbb0aeb5f4","691f926bf65796ccca4c19a0","index1","<span style='color:red'>Fail,<span style='color:red'>Fail,<span style='color:green'>Lift,<span style='color:green'>Lift,<span style='color:red'>Fail,<span style='color:red'>Fail,<span style='color:red'>Fail,<span style='color:red'>Fail,<span style='color:green'>Lift,<span style='color:red'>Fail,<span style='color:red'>Fail,<span style='color:green'>Lift","<span style='color:red'>Fail,<span style='color:red'>Fail,<span style='color:green'>Lift,<span style='color:green'>Lift,<span style='color:green'>Lift,<span style='color:green'>Lift,<span style='color:green'>Lift,<span style='color:red'>Fail,<span style='color:green'>Lift,<span style='color:green'>Lift,<span style='color:red'>Fail,<span style='color:green'>Lift","<span style='color:red'>Fail,<span style='color:green'>Lift,<span style='color:green'>Lift,<span style='color:red'>Fail,<span style='color:green'>Lift,<span style='color:green'>Lift","0,0,1,1,0,0,0,0,1,0,0,1","0,0,1,1,1,1,1,0,1,1,0,1","0,1,1,0,1,1",10,20,20,"","","<p style='font-size:30px'><b> New Contest! </b></p>","null","","",NA,4,"",NA,NA,NA,NA,NA,NA,NA,NA,NA,NA,NA,NA,NA,NA,NA,NA,NA,NA,NA,NA,NA,NA,NA,NA,NA,NA,NA,NA,NA,NA,NA,NA,NA,NA,NA,NA,NA,NA,NA,NA,"",NA,NA,NA,NA,NA,NA,NA,NA,2025-11-20 22:26:09
"6761","https://psyc-201.github.io/xiang2023/exp/index1.html?PROLIFIC_PID=REDACTED&STUDY_ID=691f8ca61c6b4dcbb0aeb5f4&SESSION_ID=691f926bf65796ccca4c19a0","survey-html-form",30,547331,"0.0-335.0","Ex4ENYLj1Smk8bYNULMsdGxuams1v09cKfX/TsMWBlghNP4FhNDBt40ZyFxSrobipWpV9ShKTjwOqEapJ91dvwjH+IFcZZ6rc6Kf3CC7AaArPO83r1LbapR/p/CiBNAMhphwFa7MRPKFGkpETgZaQjRn560tuWAp5/h8FlZjR5cHOFcwSoBRERNsUcemurZCD3rH6A02OjrRbvxN85ki2lliJfl8iaYPoYiv1nR8WEy1xV+hDqzsfgX8uvDKnkb4YWh/rwe6WRzi/uzg6cc+NP/6UYeY0RjaL6XNXURg3o61D1/891lSj6MBqIY1ycf8aguKFxq3RAFidvIbHsG4lg==","691f8ca61c6b4dcbb0aeb5f4","691f926bf65796ccca4c19a0","index1","<span style='color:red'>Fail,<span style='color:red'>Fail,<span style='color:green'>Lift,<span style='color:green'>Lift,<span style='color:red'>Fail,<span style='color:red'>Fail,<span style='color:red'>Fail,<span style='color:red'>Fail,<span style='color:green'>Lift,<span style='color:red'>Fail,<span style='color:red'>Fail,<span style='color:green'>Lift","<span style='color:red'>Fail,<span style='color:red'>Fail,<span style='color:green'>Lift,<span style='color:green'>Lift,<span style='color:green'>Lift,<span style='color:green'>Lift,<span style='color:green'>Lift,<span style='color:red'>Fail,<span style='color:green'>Lift,<span style='color:green'>Lift,<span style='color:red'>Fail,<span style='color:green'>Lift","<span style='color:red'>Fail,<span style='color:green'>Lift,<span style='color:green'>Lift,<span style='color:red'>Fail,<span style='color:green'>Lift,<span style='color:green'>Lift","0,0,1,1,0,0,0,0,1,0,0,1","0,0,1,1,1,1,1,0,1,1,0,1","0,1,1,0,1,1",10,20,20,"","","","","{""box1"":""1"",""box2"":""1""}","",NA,4,"round1_outcome",1,4,1,1,1,NA,NA,0,0,10,1,1,NA,NA,0,0,10,NA,NA,NA,NA,NA,NA,NA,NA,NA,NA,NA,NA,NA,NA,NA,NA,NA,NA,NA,NA,NA,NA,NA,"",NA,NA,NA,NA,NA,NA,NA,NA,2025-11-20 22:26:09
"6446.9000000059605","https://psyc-201.github.io/xiang2023/exp/index1.html?PROLIFIC_PID=REDACTED&STUDY_ID=691f8ca61c6b4dcbb0aeb5f4&SESSION_ID=691f926bf65796ccca4c19a0","survey-html-form",31,553779,"0.0-336.0","Ex4ENYLj1Smk8bYNULMsdGxuams1v09cKfX/TsMWBlghNP4FhNDBt40ZyFxSrobipWpV9ShKTjwOqEapJ91dvwjH+IFcZZ6rc6Kf3CC7AaArPO83r1LbapR/p/CiBNAMhphwFa7MRPKFGkpETgZaQjRn560tuWAp5/h8FlZjR5cHOFcwSoBRERNsUcemurZCD3rH6A02OjrRbvxN85ki2lliJfl8iaYPoYiv1nR8WEy1xV+hDqzsfgX8uvDKnkb4YWh/rwe6WRzi/uzg6cc+NP/6UYeY0RjaL6XNXURg3o61D1/891lSj6MBqIY1ycf8aguKFxq3RAFidvIbHsG4lg==","691f8ca61c6b4dcbb0aeb5f4","691f926bf65796ccca4c19a0","index1","<span style='color:red'>Fail,<span style='color:red'>Fail,<span style='color:green'>Lift,<span style='color:green'>Lift,<span style='color:red'>Fail,<span style='color:red'>Fail,<span style='color:red'>Fail,<span style='color:red'>Fail,<span style='color:green'>Lift,<span style='color:red'>Fail,<span style='color:red'>Fail,<span style='color:green'>Lift","<span style='color:red'>Fail,<span style='color:red'>Fail,<span style='color:green'>Lift,<span style='color:green'>Lift,<span style='color:green'>Lift,<span style='color:green'>Lift,<span style='color:green'>Lift,<span style='color:red'>Fail,<span style='color:green'>Lift,<span style='color:green'>Lift,<span style='color:red'>Fail,<span style='color:green'>Lift","<span style='color:red'>Fail,<span style='color:green'>Lift,<span style='color:green'>Lift,<span style='color:red'>Fail,<span style='color:green'>Lift,<span style='color:green'>Lift","0,0,1,1,0,0,0,0,1,0,0,1","0,0,1,1,1,1,1,0,1,1,0,1","0,1,1,0,1,1",10,20,20,"","","","","{""box1"":""25"",""box2"":""25""}","",NA,4,"round2_ready",2,4,2,NA,NA,NA,NA,NA,NA,NA,NA,NA,NA,NA,NA,NA,NA,25,25,25,25,NA,NA,NA,NA,NA,NA,NA,NA,NA,NA,NA,NA,NA,NA,NA,NA,NA,NA,NA,"",NA,NA,NA,NA,NA,NA,NA,NA,2025-11-20 22:26:09
"13815","https://psyc-201.github.io/xiang2023/exp/index1.html?PROLIFIC_PID=REDACTED&STUDY_ID=691f8ca61c6b4dcbb0aeb5f4&SESSION_ID=691f926bf65796ccca4c19a0","survey-html-form",32,567595,"0.0-337.0","Ex4ENYLj1Smk8bYNULMsdGxuams1v09cKfX/TsMWBlghNP4FhNDBt40ZyFxSrobipWpV9ShKTjwOqEapJ91dvwjH+IFcZZ6rc6Kf3CC7AaArPO83r1LbapR/p/CiBNAMhphwFa7MRPKFGkpETgZaQjRn560tuWAp5/h8FlZjR5cHOFcwSoBRERNsUcemurZCD3rH6A02OjrRbvxN85ki2lliJfl8iaYPoYiv1nR8WEy1xV+hDqzsfgX8uvDKnkb4YWh/rwe6WRzi/uzg6cc+NP/6UYeY0RjaL6XNXURg3o61D1/891lSj6MBqIY1ycf8aguKFxq3RAFidvIbHsG4lg==","691f8ca61c6b4dcbb0aeb5f4","691f926bf65796ccca4c19a0","index1","<span style='color:red'>Fail,<span style='color:red'>Fail,<span style='color:green'>Lift,<span style='color:green'>Lift,<span style='color:red'>Fail,<span style='color:red'>Fail,<span style='color:red'>Fail,<span style='color:red'>Fail,<span style='color:green'>Lift,<span style='color:red'>Fail,<span style='color:red'>Fail,<span style='color:green'>Lift","<span style='color:red'>Fail,<span style='color:red'>Fail,<span style='color:green'>Lift,<span style='color:green'>Lift,<span style='color:green'>Lift,<span style='color:green'>Lift,<span style='color:green'>Lift,<span style='color:red'>Fail,<span style='color:green'>Lift,<span style='color:green'>Lift,<span style='color:red'>Fail,<span style='color:green'>Lift","<span style='color:red'>Fail,<span style='color:green'>Lift,<span style='color:green'>Lift,<span style='color:red'>Fail,<span style='color:green'>Lift,<span style='color:green'>Lift","0,0,1,1,0,0,0,0,1,0,0,1","0,0,1,1,1,1,1,0,1,1,0,1","0,1,1,0,1,1",10,20,20,"","","","","{""box1"":""2"",""box2"":""1"",""box3"":""100""}","",NA,4,"round2_outcome",3,4,2,2,1,100,NA,1,0,20,NA,NA,NA,NA,NA,NA,NA,NA,NA,NA,NA,2,1,100,NA,1,0,20,NA,NA,NA,NA,NA,NA,NA,NA,NA,NA,NA,NA,"",NA,NA,NA,NA,NA,NA,NA,NA,2025-11-20 22:26:09
"5246.9000000059605","https://psyc-201.github.io/xiang2023/exp/index1.html?PROLIFIC_PID=REDACTED&STUDY_ID=691f8ca61c6b4dcbb0aeb5f4&SESSION_ID=691f926bf65796ccca4c19a0","survey-html-form",33,572843,"0.0-338.0","Ex4ENYLj1Smk8bYNULMsdGxuams1v09cKfX/TsMWBlghNP4FhNDBt40ZyFxSrobipWpV9ShKTjwOqEapJ91dvwjH+IFcZZ6rc6Kf3CC7AaArPO83r1LbapR/p/CiBNAMhphwFa7MRPKFGkpETgZaQjRn560tuWAp5/h8FlZjR5cHOFcwSoBRERNsUcemurZCD3rH6A02OjrRbvxN85ki2lliJfl8iaYPoYiv1nR8WEy1xV+hDqzsfgX8uvDKnkb4YWh/rwe6WRzi/uzg6cc+NP/6UYeY0RjaL6XNXURg3o61D1/891lSj6MBqIY1ycf8aguKFxq3RAFidvIbHsG4lg==","691f8ca61c6b4dcbb0aeb5f4","691f926bf65796ccca4c19a0","index1","<span style='color:red'>Fail,<span style='color:red'>Fail,<span style='color:green'>Lift,<span style='color:green'>Lift,<span style='color:red'>Fail,<span style='color:red'>Fail,<span style='color:red'>Fail,<span style='color:red'>Fail,<span style='color:green'>Lift,<span style='color:red'>Fail,<span style='color:red'>Fail,<span style='color:green'>Lift","<span style='color:red'>Fail,<span style='color:red'>Fail,<span style='color:green'>Lift,<span style='color:green'>Lift,<span style='color:green'>Lift,<span style='color:green'>Lift,<span style='color:green'>Lift,<span style='color:red'>Fail,<span style='color:green'>Lift,<span style='color:green'>Lift,<span style='color:red'>Fail,<span style='color:green'>Lift","<span style='color:red'>Fail,<span style='color:green'>Lift,<span style='color:green'>Lift,<span style='color:red'>Fail,<span style='color:green'>Lift,<span style='color:green'>Lift","0,0,1,1,0,0,0,0,1,0,0,1","0,0,1,1,1,1,1,0,1,1,0,1","0,1,1,0,1,1",10,20,20,"","","","","{""box1"":""25""}","",NA,4,"round3_ready",4,4,3,NA,NA,NA,NA,NA,NA,NA,NA,NA,NA,NA,NA,NA,NA,25,25,NA,NA,NA,NA,NA,NA,NA,NA,NA,25,25,NA,NA,NA,NA,NA,NA,NA,NA,NA,NA,"",NA,NA,NA,NA,NA,NA,NA,NA,2025-11-20 22:26:09
"11702.40000000596","https://psyc-201.github.io/xiang2023/exp/index1.html?PROLIFIC_PID=REDACTED&STUDY_ID=691f8ca61c6b4dcbb0aeb5f4&SESSION_ID=691f926bf65796ccca4c19a0","survey-html-form",34,584547,"0.0-340.0-0.0","Ex4ENYLj1Smk8bYNULMsdGxuams1v09cKfX/TsMWBlghNP4FhNDBt40ZyFxSrobipWpV9ShKTjwOqEapJ91dvwjH+IFcZZ6rc6Kf3CC7AaArPO83r1LbapR/p/CiBNAMhphwFa7MRPKFGkpETgZaQjRn560tuWAp5/h8FlZjR5cHOFcwSoBRERNsUcemurZCD3rH6A02OjrRbvxN85ki2lliJfl8iaYPoYiv1nR8WEy1xV+hDqzsfgX8uvDKnkb4YWh/rwe6WRzi/uzg6cc+NP/6UYeY0RjaL6XNXURg3o61D1/891lSj6MBqIY1ycf8aguKFxq3RAFidvIbHsG4lg==","691f8ca61c6b4dcbb0aeb5f4","691f926bf65796ccca4c19a0","index1","<span style='color:red'>Fail,<span style='color:red'>Fail,<span style='color:green'>Lift,<span style='color:green'>Lift,<span style='color:red'>Fail,<span style='color:red'>Fail,<span style='color:red'>Fail,<span style='color:red'>Fail,<span style='color:green'>Lift,<span style='color:red'>Fail,<span style='color:red'>Fail,<span style='color:green'>Lift","<span style='color:red'>Fail,<span style='color:red'>Fail,<span style='color:green'>Lift,<span style='color:green'>Lift,<span style='color:green'>Lift,<span style='color:green'>Lift,<span style='color:green'>Lift,<span style='color:red'>Fail,<span style='color:green'>Lift,<span style='color:green'>Lift,<span style='color:red'>Fail,<span style='color:green'>Lift","<span style='color:red'>Fail,<span style='color:green'>Lift,<span style='color:green'>Lift,<span style='color:red'>Fail,<span style='color:green'>Lift,<span style='color:green'>Lift","0,0,1,1,0,0,0,0,1,0,0,1","0,0,1,1,1,1,1,0,1,1,0,1","0,1,1,0,1,1",10,20,20,"","","","","{""box1"":""5"",""box2"":""1"",""box3"":""100"",""box4"":""0""}","",NA,4,"round3_fail",5,4,3,5,1,NA,NA,0,0,20,NA,NA,NA,NA,NA,NA,NA,NA,NA,NA,NA,NA,NA,NA,NA,NA,NA,NA,NA,NA,5,1,NA,NA,0,0,20,0,1,NA,"",NA,NA,NA,NA,NA,NA,NA,NA,2025-11-20 22:26:09
"null","https://psyc-201.github.io/xiang2023/exp/index1.html?PROLIFIC_PID=REDACTED&STUDY_ID=691f8ca61c6b4dcbb0aeb5f4&SESSION_ID=691f926bf65796ccca4c19a0","html-keyboard-response",35,589558,"0.0-341.0-0.0","Ex4ENYLj1Smk8bYNULMsdGxuams1v09cKfX/TsMWBlghNP4FhNDBt40ZyFxSrobipWpV9ShKTjwOqEapJ91dvwjH+IFcZZ6rc6Kf3CC7AaArPO83r1LbapR/p/CiBNAMhphwFa7MRPKFGkpETgZaQjRn560tuWAp5/h8FlZjR5cHOFcwSoBRERNsUcemurZCD3rH6A02OjrRbvxN85ki2lliJfl8iaYPoYiv1nR8WEy1xV+hDqzsfgX8uvDKnkb4YWh/rwe6WRzi/uzg6cc+NP/6UYeY0RjaL6XNXURg3o61D1/891lSj6MBqIY1ycf8aguKFxq3RAFidvIbHsG4lg==","691f8ca61c6b4dcbb0aeb5f4","691f926bf65796ccca4c19a0","index1","<span style='color:red'>Fail,<span style='color:red'>Fail,<span style='color:green'>Lift,<span style='color:green'>Lift,<span style='color:red'>Fail,<span style='color:red'>Fail,<span style='color:red'>Fail,<span style='color:red'>Fail,<span style='color:green'>Lift,<span style='color:red'>Fail,<span style='color:red'>Fail,<span style='color:green'>Lift","<span style='color:red'>Fail,<span style='color:red'>Fail,<span style='color:green'>Lift,<span style='color:green'>Lift,<span style='color:green'>Lift,<span style='color:green'>Lift,<span style='color:green'>Lift,<span style='color:red'>Fail,<span style='color:green'>Lift,<span style='color:green'>Lift,<span style='color:red'>Fail,<span style='color:green'>Lift","<span style='color:red'>Fail,<span style='color:green'>Lift,<span style='color:green'>Lift,<span style='color:red'>Fail,<span style='color:green'>Lift,<span style='color:green'>Lift","0,0,1,1,0,0,0,0,1,0,0,1","0,0,1,1,1,1,1,0,1,1,0,1","0,1,1,0,1,1",10,20,20,"","","<p> <b>Oops you failed an attention check!</b> </p><p> <b>We will have to discard your data if you fail another one.</b> </p><p> <b>Please pay more attention!</b> </p>","null","","",NA,5,"warning",NA,NA,NA,NA,NA,NA,NA,NA,NA,NA,NA,NA,NA,NA,NA,NA,NA,NA,NA,NA,NA,NA,NA,NA,NA,NA,NA,NA,NA,NA,NA,NA,NA,NA,NA,NA,NA,NA,NA,1,"",NA,NA,NA,NA,NA,NA,NA,NA,2025-11-20 22:26:09
"null","https://psyc-201.github.io/xiang2023/exp/index1.html?PROLIFIC_PID=REDACTED&STUDY_ID=691f8ca61c6b4dcbb0aeb5f4&SESSION_ID=691f926bf65796ccca4c19a0","html-keyboard-response",36,592560,"0.0-343.0","Ex4ENYLj1Smk8bYNULMsdGxuams1v09cKfX/TsMWBlghNP4FhNDBt40ZyFxSrobipWpV9ShKTjwOqEapJ91dvwjH+IFcZZ6rc6Kf3CC7AaArPO83r1LbapR/p/CiBNAMhphwFa7MRPKFGkpETgZaQjRn560tuWAp5/h8FlZjR5cHOFcwSoBRERNsUcemurZCD3rH6A02OjrRbvxN85ki2lliJfl8iaYPoYiv1nR8WEy1xV+hDqzsfgX8uvDKnkb4YWh/rwe6WRzi/uzg6cc+NP/6UYeY0RjaL6XNXURg3o61D1/891lSj6MBqIY1ycf8aguKFxq3RAFidvIbHsG4lg==","691f8ca61c6b4dcbb0aeb5f4","691f926bf65796ccca4c19a0","index1","<span style='color:red'>Fail,<span style='color:red'>Fail,<span style='color:green'>Lift,<span style='color:green'>Lift,<span style='color:red'>Fail,<span style='color:red'>Fail,<span style='color:red'>Fail,<span style='color:red'>Fail,<span style='color:green'>Lift,<span style='color:red'>Fail,<span style='color:red'>Fail,<span style='color:green'>Lift","<span style='color:red'>Fail,<span style='color:red'>Fail,<span style='color:green'>Lift,<span style='color:green'>Lift,<span style='color:green'>Lift,<span style='color:green'>Lift,<span style='color:green'>Lift,<span style='color:red'>Fail,<span style='color:green'>Lift,<span style='color:green'>Lift,<span style='color:red'>Fail,<span style='color:green'>Lift","<span style='color:red'>Fail,<span style='color:green'>Lift,<span style='color:green'>Lift,<span style='color:red'>Fail,<span style='color:green'>Lift,<span style='color:green'>Lift","0,0,1,1,0,0,0,0,1,0,0,1","0,0,1,1,1,1,1,0,1,1,0,1","0,1,1,0,1,1",10,20,20,"","","<p style='font-size:30px'><b> New Contest! </b></p>","null","","",NA,5,"",NA,NA,NA,NA,NA,NA,NA,NA,NA,NA,NA,NA,NA,NA,NA,NA,NA,NA,NA,NA,NA,NA,NA,NA,NA,NA,NA,NA,NA,NA,NA,NA,NA,NA,NA,NA,NA,NA,NA,NA,"",NA,NA,NA,NA,NA,NA,NA,NA,2025-11-20 22:26:09
"16665.90000000596","https://psyc-201.github.io/xiang2023/exp/index1.html?PROLIFIC_PID=REDACTED&STUDY_ID=691f8ca61c6b4dcbb0aeb5f4&SESSION_ID=691f926bf65796ccca4c19a0","survey-html-form",37,609227,"0.0-344.0","Ex4ENYLj1Smk8bYNULMsdGxuams1v09cKfX/TsMWBlghNP4FhNDBt40ZyFxSrobipWpV9ShKTjwOqEapJ91dvwjH+IFcZZ6rc6Kf3CC7AaArPO83r1LbapR/p/CiBNAMhphwFa7MRPKFGkpETgZaQjRn560tuWAp5/h8FlZjR5cHOFcwSoBRERNsUcemurZCD3rH6A02OjrRbvxN85ki2lliJfl8iaYPoYiv1nR8WEy1xV+hDqzsfgX8uvDKnkb4YWh/rwe6WRzi/uzg6cc+NP/6UYeY0RjaL6XNXURg3o61D1/891lSj6MBqIY1ycf8aguKFxq3RAFidvIbHsG4lg==","691f8ca61c6b4dcbb0aeb5f4","691f926bf65796ccca4c19a0","index1","<span style='color:red'>Fail,<span style='color:red'>Fail,<span style='color:green'>Lift,<span style='color:green'>Lift,<span style='color:red'>Fail,<span style='color:red'>Fail,<span style='color:red'>Fail,<span style='color:red'>Fail,<span style='color:green'>Lift,<span style='color:red'>Fail,<span style='color:red'>Fail,<span style='color:green'>Lift","<span style='color:red'>Fail,<span style='color:red'>Fail,<span style='color:green'>Lift,<span style='color:green'>Lift,<span style='color:green'>Lift,<span style='color:green'>Lift,<span style='color:green'>Lift,<span style='color:red'>Fail,<span style='color:green'>Lift,<span style='color:green'>Lift,<span style='color:red'>Fail,<span style='color:green'>Lift","<span style='color:red'>Fail,<span style='color:green'>Lift,<span style='color:green'>Lift,<span style='color:red'>Fail,<span style='color:green'>Lift,<span style='color:green'>Lift","0,0,1,1,0,0,0,0,1,0,0,1","0,0,1,1,1,1,1,0,1,1,0,1","0,1,1,0,1,1",10,20,20,"","","","","{""box1"":""1"",""box2"":""5"",""box4"":""50""}","",NA,5,"round1_outcome",1,5,1,1,5,NA,50,0,1,10,1,5,NA,50,0,1,10,NA,NA,NA,NA,NA,NA,NA,NA,NA,NA,NA,NA,NA,NA,NA,NA,NA,NA,NA,NA,NA,NA,NA,"",NA,NA,NA,NA,NA,NA,NA,NA,2025-11-20 22:26:09
"8511","https://psyc-201.github.io/xiang2023/exp/index1.html?PROLIFIC_PID=REDACTED&STUDY_ID=691f8ca61c6b4dcbb0aeb5f4&SESSION_ID=691f926bf65796ccca4c19a0","survey-html-form",38,617739,"0.0-345.0","Ex4ENYLj1Smk8bYNULMsdGxuams1v09cKfX/TsMWBlghNP4FhNDBt40ZyFxSrobipWpV9ShKTjwOqEapJ91dvwjH+IFcZZ6rc6Kf3CC7AaArPO83r1LbapR/p/CiBNAMhphwFa7MRPKFGkpETgZaQjRn560tuWAp5/h8FlZjR5cHOFcwSoBRERNsUcemurZCD3rH6A02OjrRbvxN85ki2lliJfl8iaYPoYiv1nR8WEy1xV+hDqzsfgX8uvDKnkb4YWh/rwe6WRzi/uzg6cc+NP/6UYeY0RjaL6XNXURg3o61D1/891lSj6MBqIY1ycf8aguKFxq3RAFidvIbHsG4lg==","691f8ca61c6b4dcbb0aeb5f4","691f926bf65796ccca4c19a0","index1","<span style='color:red'>Fail,<span style='color:red'>Fail,<span style='color:green'>Lift,<span style='color:green'>Lift,<span style='color:red'>Fail,<span style='color:red'>Fail,<span style='color:red'>Fail,<span style='color:red'>Fail,<span style='color:green'>Lift,<span style='color:red'>Fail,<span style='color:red'>Fail,<span style='color:green'>Lift","<span style='color:red'>Fail,<span style='color:red'>Fail,<span style='color:green'>Lift,<span style='color:green'>Lift,<span style='color:green'>Lift,<span style='color:green'>Lift,<span style='color:green'>Lift,<span style='color:red'>Fail,<span style='color:green'>Lift,<span style='color:green'>Lift,<span style='color:red'>Fail,<span style='color:green'>Lift","<span style='color:red'>Fail,<span style='color:green'>Lift,<span style='color:green'>Lift,<span style='color:red'>Fail,<span style='color:green'>Lift,<span style='color:green'>Lift","0,0,1,1,0,0,0,0,1,0,0,1","0,0,1,1,1,1,1,0,1,1,0,1","0,1,1,0,1,1",10,20,20,"","","","","{""box1"":""50"",""box2"":""100""}","",NA,5,"round2_ready",2,5,2,NA,NA,NA,NA,NA,NA,NA,NA,NA,NA,NA,NA,NA,NA,50,100,50,100,NA,NA,NA,NA,NA,NA,NA,NA,NA,NA,NA,NA,NA,NA,NA,NA,NA,NA,NA,"",NA,NA,NA,NA,NA,NA,NA,NA,2025-11-20 22:26:09
"13726.90000000596","https://psyc-201.github.io/xiang2023/exp/index1.html?PROLIFIC_PID=REDACTED&STUDY_ID=691f8ca61c6b4dcbb0aeb5f4&SESSION_ID=691f926bf65796ccca4c19a0","survey-html-form",39,631467,"0.0-346.0","Ex4ENYLj1Smk8bYNULMsdGxuams1v09cKfX/TsMWBlghNP4FhNDBt40ZyFxSrobipWpV9ShKTjwOqEapJ91dvwjH+IFcZZ6rc6Kf3CC7AaArPO83r1LbapR/p/CiBNAMhphwFa7MRPKFGkpETgZaQjRn560tuWAp5/h8FlZjR5cHOFcwSoBRERNsUcemurZCD3rH6A02OjrRbvxN85ki2lliJfl8iaYPoYiv1nR8WEy1xV+hDqzsfgX8uvDKnkb4YWh/rwe6WRzi/uzg6cc+NP/6UYeY0RjaL6XNXURg3o61D1/891lSj6MBqIY1ycf8aguKFxq3RAFidvIbHsG4lg==","691f8ca61c6b4dcbb0aeb5f4","691f926bf65796ccca4c19a0","index1","<span style='color:red'>Fail,<span style='color:red'>Fail,<span style='color:green'>Lift,<span style='color:green'>Lift,<span style='color:red'>Fail,<span style='color:red'>Fail,<span style='color:red'>Fail,<span style='color:red'>Fail,<span style='color:green'>Lift,<span style='color:red'>Fail,<span style='color:red'>Fail,<span style='color:green'>Lift","<span style='color:red'>Fail,<span style='color:red'>Fail,<span style='color:green'>Lift,<span style='color:green'>Lift,<span style='color:green'>Lift,<span style='color:green'>Lift,<span style='color:green'>Lift,<span style='color:red'>Fail,<span style='color:green'>Lift,<span style='color:green'>Lift,<span style='color:red'>Fail,<span style='color:green'>Lift","<span style='color:red'>Fail,<span style='color:green'>Lift,<span style='color:green'>Lift,<span style='color:red'>Fail,<span style='color:green'>Lift,<span style='color:green'>Lift","0,0,1,1,0,0,0,0,1,0,0,1","0,0,1,1,1,1,1,0,1,1,0,1","0,1,1,0,1,1",10,20,20,"","","","","{""box1"":""1"",""box2"":""5"",""box4"":""50""}","",NA,5,"round2_outcome",3,5,2,1,5,NA,50,0,1,20,NA,NA,NA,NA,NA,NA,NA,NA,NA,NA,NA,1,5,NA,50,0,1,20,NA,NA,NA,NA,NA,NA,NA,NA,NA,NA,NA,NA,"",NA,NA,NA,NA,NA,NA,NA,NA,2025-11-20 22:26:09
"7214.5","https://psyc-201.github.io/xiang2023/exp/index1.html?PROLIFIC_PID=REDACTED&STUDY_ID=691f8ca61c6b4dcbb0aeb5f4&SESSION_ID=691f926bf65796ccca4c19a0","survey-html-form",40,638683,"0.0-347.0","Ex4ENYLj1Smk8bYNULMsdGxuams1v09cKfX/TsMWBlghNP4FhNDBt40ZyFxSrobipWpV9ShKTjwOqEapJ91dvwjH+IFcZZ6rc6Kf3CC7AaArPO83r1LbapR/p/CiBNAMhphwFa7MRPKFGkpETgZaQjRn560tuWAp5/h8FlZjR5cHOFcwSoBRERNsUcemurZCD3rH6A02OjrRbvxN85ki2lliJfl8iaYPoYiv1nR8WEy1xV+hDqzsfgX8uvDKnkb4YWh/rwe6WRzi/uzg6cc+NP/6UYeY0RjaL6XNXURg3o61D1/891lSj6MBqIY1ycf8aguKFxq3RAFidvIbHsG4lg==","691f8ca61c6b4dcbb0aeb5f4","691f926bf65796ccca4c19a0","index1","<span style='color:red'>Fail,<span style='color:red'>Fail,<span style='color:green'>Lift,<span style='color:green'>Lift,<span style='color:red'>Fail,<span style='color:red'>Fail,<span style='color:red'>Fail,<span style='color:red'>Fail,<span style='color:green'>Lift,<span style='color:red'>Fail,<span style='color:red'>Fail,<span style='color:green'>Lift","<span style='color:red'>Fail,<span style='color:red'>Fail,<span style='color:green'>Lift,<span style='color:green'>Lift,<span style='color:green'>Lift,<span style='color:green'>Lift,<span style='color:green'>Lift,<span style='color:red'>Fail,<span style='color:green'>Lift,<span style='color:green'>Lift,<span style='color:red'>Fail,<span style='color:green'>Lift","<span style='color:red'>Fail,<span style='color:green'>Lift,<span style='color:green'>Lift,<span style='color:red'>Fail,<span style='color:green'>Lift,<span style='color:green'>Lift","0,0,1,1,0,0,0,0,1,0,0,1","0,0,1,1,1,1,1,0,1,1,0,1","0,1,1,0,1,1",10,20,20,"","","","","{""box1"":""25""}","",NA,5,"round3_ready",4,5,3,NA,NA,NA,NA,NA,NA,NA,NA,NA,NA,NA,NA,NA,NA,25,25,NA,NA,NA,NA,NA,NA,NA,NA,NA,25,25,NA,NA,NA,NA,NA,NA,NA,NA,NA,NA,"",NA,NA,NA,NA,NA,NA,NA,NA,2025-11-20 22:26:09
"14535","https://psyc-201.github.io/xiang2023/exp/index1.html?PROLIFIC_PID=REDACTED&STUDY_ID=691f8ca61c6b4dcbb0aeb5f4&SESSION_ID=691f926bf65796ccca4c19a0","survey-html-form",41,653219,"0.0-348.0-0.0","Ex4ENYLj1Smk8bYNULMsdGxuams1v09cKfX/TsMWBlghNP4FhNDBt40ZyFxSrobipWpV9ShKTjwOqEapJ91dvwjH+IFcZZ6rc6Kf3CC7AaArPO83r1LbapR/p/CiBNAMhphwFa7MRPKFGkpETgZaQjRn560tuWAp5/h8FlZjR5cHOFcwSoBRERNsUcemurZCD3rH6A02OjrRbvxN85ki2lliJfl8iaYPoYiv1nR8WEy1xV+hDqzsfgX8uvDKnkb4YWh/rwe6WRzi/uzg6cc+NP/6UYeY0RjaL6XNXURg3o61D1/891lSj6MBqIY1ycf8aguKFxq3RAFidvIbHsG4lg==","691f8ca61c6b4dcbb0aeb5f4","691f926bf65796ccca4c19a0","index1","<span style='color:red'>Fail,<span style='color:red'>Fail,<span style='color:green'>Lift,<span style='color:green'>Lift,<span style='color:red'>Fail,<span style='color:red'>Fail,<span style='color:red'>Fail,<span style='color:red'>Fail,<span style='color:green'>Lift,<span style='color:red'>Fail,<span style='color:red'>Fail,<span style='color:green'>Lift","<span style='color:red'>Fail,<span style='color:red'>Fail,<span style='color:green'>Lift,<span style='color:green'>Lift,<span style='color:green'>Lift,<span style='color:green'>Lift,<span style='color:green'>Lift,<span style='color:red'>Fail,<span style='color:green'>Lift,<span style='color:green'>Lift,<span style='color:red'>Fail,<span style='color:green'>Lift","<span style='color:red'>Fail,<span style='color:green'>Lift,<span style='color:green'>Lift,<span style='color:red'>Fail,<span style='color:green'>Lift,<span style='color:green'>Lift","0,0,1,1,0,0,0,0,1,0,0,1","0,0,1,1,1,1,1,0,1,1,0,1","0,1,1,0,1,1",10,20,20,"","","","","{""box1"":""1"",""box2"":""5"",""box3"":""100"",""box4"":""50""}","",NA,6,"round3_lift",5,5,3,1,5,100,50,1,1,20,NA,NA,NA,NA,NA,NA,NA,NA,NA,NA,NA,NA,NA,NA,NA,NA,NA,NA,NA,NA,1,5,100,50,1,1,20,NA,NA,NA,"",NA,NA,NA,NA,NA,NA,NA,NA,2025-11-20 22:26:09
"null","https://psyc-201.github.io/xiang2023/exp/index1.html?PROLIFIC_PID=REDACTED&STUDY_ID=691f8ca61c6b4dcbb0aeb5f4&SESSION_ID=691f926bf65796ccca4c19a0","html-keyboard-response",42,656222,"0.0-352.0","Ex4ENYLj1Smk8bYNULMsdGxuams1v09cKfX/TsMWBlghNP4FhNDBt40ZyFxSrobipWpV9ShKTjwOqEapJ91dvwjH+IFcZZ6rc6Kf3CC7AaArPO83r1LbapR/p/CiBNAMhphwFa7MRPKFGkpETgZaQjRn560tuWAp5/h8FlZjR5cHOFcwSoBRERNsUcemurZCD3rH6A02OjrRbvxN85ki2lliJfl8iaYPoYiv1nR8WEy1xV+hDqzsfgX8uvDKnkb4YWh/rwe6WRzi/uzg6cc+NP/6UYeY0RjaL6XNXURg3o61D1/891lSj6MBqIY1ycf8aguKFxq3RAFidvIbHsG4lg==","691f8ca61c6b4dcbb0aeb5f4","691f926bf65796ccca4c19a0","index1","<span style='color:red'>Fail,<span style='color:red'>Fail,<span style='color:green'>Lift,<span style='color:green'>Lift,<span style='color:red'>Fail,<span style='color:red'>Fail,<span style='color:red'>Fail,<span style='color:red'>Fail,<span style='color:green'>Lift,<span style='color:red'>Fail,<span style='color:red'>Fail,<span style='color:green'>Lift","<span style='color:red'>Fail,<span style='color:red'>Fail,<span style='color:green'>Lift,<span style='color:green'>Lift,<span style='color:green'>Lift,<span style='color:green'>Lift,<span style='color:green'>Lift,<span style='color:red'>Fail,<span style='color:green'>Lift,<span style='color:green'>Lift,<span style='color:red'>Fail,<span style='color:green'>Lift","<span style='color:red'>Fail,<span style='color:green'>Lift,<span style='color:green'>Lift,<span style='color:red'>Fail,<span style='color:green'>Lift,<span style='color:green'>Lift","0,0,1,1,0,0,0,0,1,0,0,1","0,0,1,1,1,1,1,0,1,1,0,1","0,1,1,0,1,1",10,20,20,"","","<p style='font-size:30px'><b> New Contest! </b></p>","null","","",NA,6,"",NA,NA,NA,NA,NA,NA,NA,NA,NA,NA,NA,NA,NA,NA,NA,NA,NA,NA,NA,NA,NA,NA,NA,NA,NA,NA,NA,NA,NA,NA,NA,NA,NA,NA,NA,NA,NA,NA,NA,NA,"",NA,NA,NA,NA,NA,NA,NA,NA,2025-11-20 22:26:09
"9810.899999976158","https://psyc-201.github.io/xiang2023/exp/index1.html?PROLIFIC_PID=REDACTED&STUDY_ID=691f8ca61c6b4dcbb0aeb5f4&SESSION_ID=691f926bf65796ccca4c19a0","survey-html-form",43,666034,"0.0-353.0","Ex4ENYLj1Smk8bYNULMsdGxuams1v09cKfX/TsMWBlghNP4FhNDBt40ZyFxSrobipWpV9ShKTjwOqEapJ91dvwjH+IFcZZ6rc6Kf3CC7AaArPO83r1LbapR/p/CiBNAMhphwFa7MRPKFGkpETgZaQjRn560tuWAp5/h8FlZjR5cHOFcwSoBRERNsUcemurZCD3rH6A02OjrRbvxN85ki2lliJfl8iaYPoYiv1nR8WEy1xV+hDqzsfgX8uvDKnkb4YWh/rwe6WRzi/uzg6cc+NP/6UYeY0RjaL6XNXURg3o61D1/891lSj6MBqIY1ycf8aguKFxq3RAFidvIbHsG4lg==","691f8ca61c6b4dcbb0aeb5f4","691f926bf65796ccca4c19a0","index1","<span style='color:red'>Fail,<span style='color:red'>Fail,<span style='color:green'>Lift,<span style='color:green'>Lift,<span style='color:red'>Fail,<span style='color:red'>Fail,<span style='color:red'>Fail,<span style='color:red'>Fail,<span style='color:green'>Lift,<span style='color:red'>Fail,<span style='color:red'>Fail,<span style='color:green'>Lift","<span style='color:red'>Fail,<span style='color:red'>Fail,<span style='color:green'>Lift,<span style='color:green'>Lift,<span style='color:green'>Lift,<span style='color:green'>Lift,<span style='color:green'>Lift,<span style='color:red'>Fail,<span style='color:green'>Lift,<span style='color:green'>Lift,<span style='color:red'>Fail,<span style='color:green'>Lift","<span style='color:red'>Fail,<span style='color:green'>Lift,<span style='color:green'>Lift,<span style='color:red'>Fail,<span style='color:green'>Lift,<span style='color:green'>Lift","0,0,1,1,0,0,0,0,1,0,0,1","0,0,1,1,1,1,1,0,1,1,0,1","0,1,1,0,1,1",10,20,20,"","","","","{""box1"":""1"",""box2"":""1""}","",NA,6,"round1_outcome",1,6,1,1,1,NA,NA,0,0,10,1,1,NA,NA,0,0,10,NA,NA,NA,NA,NA,NA,NA,NA,NA,NA,NA,NA,NA,NA,NA,NA,NA,NA,NA,NA,NA,NA,NA,"",NA,NA,NA,NA,NA,NA,NA,NA,2025-11-20 22:26:09
"7215","https://psyc-201.github.io/xiang2023/exp/index1.html?PROLIFIC_PID=REDACTED&STUDY_ID=691f8ca61c6b4dcbb0aeb5f4&SESSION_ID=691f926bf65796ccca4c19a0","survey-html-form",44,673250,"0.0-354.0","Ex4ENYLj1Smk8bYNULMsdGxuams1v09cKfX/TsMWBlghNP4FhNDBt40ZyFxSrobipWpV9ShKTjwOqEapJ91dvwjH+IFcZZ6rc6Kf3CC7AaArPO83r1LbapR/p/CiBNAMhphwFa7MRPKFGkpETgZaQjRn560tuWAp5/h8FlZjR5cHOFcwSoBRERNsUcemurZCD3rH6A02OjrRbvxN85ki2lliJfl8iaYPoYiv1nR8WEy1xV+hDqzsfgX8uvDKnkb4YWh/rwe6WRzi/uzg6cc+NP/6UYeY0RjaL6XNXURg3o61D1/891lSj6MBqIY1ycf8aguKFxq3RAFidvIbHsG4lg==","691f8ca61c6b4dcbb0aeb5f4","691f926bf65796ccca4c19a0","index1","<span style='color:red'>Fail,<span style='color:red'>Fail,<span style='color:green'>Lift,<span style='color:green'>Lift,<span style='color:red'>Fail,<span style='color:red'>Fail,<span style='color:red'>Fail,<span style='color:red'>Fail,<span style='color:green'>Lift,<span style='color:red'>Fail,<span style='color:red'>Fail,<span style='color:green'>Lift","<span style='color:red'>Fail,<span style='color:red'>Fail,<span style='color:green'>Lift,<span style='color:green'>Lift,<span style='color:green'>Lift,<span style='color:green'>Lift,<span style='color:green'>Lift,<span style='color:red'>Fail,<span style='color:green'>Lift,<span style='color:green'>Lift,<span style='color:red'>Fail,<span style='color:green'>Lift","<span style='color:red'>Fail,<span style='color:green'>Lift,<span style='color:green'>Lift,<span style='color:red'>Fail,<span style='color:green'>Lift,<span style='color:green'>Lift","0,0,1,1,0,0,0,0,1,0,0,1","0,0,1,1,1,1,1,0,1,1,0,1","0,1,1,0,1,1",10,20,20,"","","","","{""box1"":""0"",""box2"":""0""}","",NA,6,"round2_ready",2,6,2,NA,NA,NA,NA,NA,NA,NA,NA,NA,NA,NA,NA,NA,NA,0,0,0,0,NA,NA,NA,NA,NA,NA,NA,NA,NA,NA,NA,NA,NA,NA,NA,NA,NA,NA,NA,"",NA,NA,NA,NA,NA,NA,NA,NA,2025-11-20 22:26:09
"8750.90000000596","https://psyc-201.github.io/xiang2023/exp/index1.html?PROLIFIC_PID=REDACTED&STUDY_ID=691f8ca61c6b4dcbb0aeb5f4&SESSION_ID=691f926bf65796ccca4c19a0","survey-html-form",45,682003,"0.0-355.0","Ex4ENYLj1Smk8bYNULMsdGxuams1v09cKfX/TsMWBlghNP4FhNDBt40ZyFxSrobipWpV9ShKTjwOqEapJ91dvwjH+IFcZZ6rc6Kf3CC7AaArPO83r1LbapR/p/CiBNAMhphwFa7MRPKFGkpETgZaQjRn560tuWAp5/h8FlZjR5cHOFcwSoBRERNsUcemurZCD3rH6A02OjrRbvxN85ki2lliJfl8iaYPoYiv1nR8WEy1xV+hDqzsfgX8uvDKnkb4YWh/rwe6WRzi/uzg6cc+NP/6UYeY0RjaL6XNXURg3o61D1/891lSj6MBqIY1ycf8aguKFxq3RAFidvIbHsG4lg==","691f8ca61c6b4dcbb0aeb5f4","691f926bf65796ccca4c19a0","index1","<span style='color:red'>Fail,<span style='color:red'>Fail,<span style='color:green'>Lift,<span style='color:green'>Lift,<span style='color:red'>Fail,<span style='color:red'>Fail,<span style='color:red'>Fail,<span style='color:red'>Fail,<span style='color:green'>Lift,<span style='color:red'>Fail,<span style='color:red'>Fail,<span style='color:green'>Lift","<span style='color:red'>Fail,<span style='color:red'>Fail,<span style='color:green'>Lift,<span style='color:green'>Lift,<span style='color:green'>Lift,<span style='color:green'>Lift,<span style='color:green'>Lift,<span style='color:red'>Fail,<span style='color:green'>Lift,<span style='color:green'>Lift,<span style='color:red'>Fail,<span style='color:green'>Lift","<span style='color:red'>Fail,<span style='color:green'>Lift,<span style='color:green'>Lift,<span style='color:red'>Fail,<span style='color:green'>Lift,<span style='color:green'>Lift","0,0,1,1,0,0,0,0,1,0,0,1","0,0,1,1,1,1,1,0,1,1,0,1","0,1,1,0,1,1",10,20,20,"","","","","{""box1"":""1"",""box2"":""1""}","",NA,6,"round2_outcome",3,6,2,1,1,NA,NA,0,0,20,NA,NA,NA,NA,NA,NA,NA,NA,NA,NA,NA,1,1,NA,NA,0,0,20,NA,NA,NA,NA,NA,NA,NA,NA,NA,NA,NA,NA,"",NA,NA,NA,NA,NA,NA,NA,NA,2025-11-20 22:26:09
"7422.4000000059605","https://psyc-201.github.io/xiang2023/exp/index1.html?PROLIFIC_PID=REDACTED&STUDY_ID=691f8ca61c6b4dcbb0aeb5f4&SESSION_ID=691f926bf65796ccca4c19a0","survey-html-form",46,689426,"0.0-356.0","Ex4ENYLj1Smk8bYNULMsdGxuams1v09cKfX/TsMWBlghNP4FhNDBt40ZyFxSrobipWpV9ShKTjwOqEapJ91dvwjH+IFcZZ6rc6Kf3CC7AaArPO83r1LbapR/p/CiBNAMhphwFa7MRPKFGkpETgZaQjRn560tuWAp5/h8FlZjR5cHOFcwSoBRERNsUcemurZCD3rH6A02OjrRbvxN85ki2lliJfl8iaYPoYiv1nR8WEy1xV+hDqzsfgX8uvDKnkb4YWh/rwe6WRzi/uzg6cc+NP/6UYeY0RjaL6XNXURg3o61D1/891lSj6MBqIY1ycf8aguKFxq3RAFidvIbHsG4lg==","691f8ca61c6b4dcbb0aeb5f4","691f926bf65796ccca4c19a0","index1","<span style='color:red'>Fail,<span style='color:red'>Fail,<span style='color:green'>Lift,<span style='color:green'>Lift,<span style='color:red'>Fail,<span style='color:red'>Fail,<span style='color:red'>Fail,<span style='color:red'>Fail,<span style='color:green'>Lift,<span style='color:red'>Fail,<span style='color:red'>Fail,<span style='color:green'>Lift","<span style='color:red'>Fail,<span style='color:red'>Fail,<span style='color:green'>Lift,<span style='color:green'>Lift,<span style='color:green'>Lift,<span style='color:green'>Lift,<span style='color:green'>Lift,<span style='color:red'>Fail,<span style='color:green'>Lift,<span style='color:green'>Lift,<span style='color:red'>Fail,<span style='color:green'>Lift","<span style='color:red'>Fail,<span style='color:green'>Lift,<span style='color:green'>Lift,<span style='color:red'>Fail,<span style='color:green'>Lift,<span style='color:green'>Lift","0,0,1,1,0,0,0,0,1,0,0,1","0,0,1,1,1,1,1,0,1,1,0,1","0,1,1,0,1,1",10,20,20,"","","","","{""box1"":""25""}","",NA,6,"round3_ready",4,6,3,NA,NA,NA,NA,NA,NA,NA,NA,NA,NA,NA,NA,NA,NA,25,25,NA,NA,NA,NA,NA,NA,NA,NA,NA,25,25,NA,NA,NA,NA,NA,NA,NA,NA,NA,NA,"",NA,NA,NA,NA,NA,NA,NA,NA,2025-11-20 22:26:09
"15599.40000000596","https://psyc-201.github.io/xiang2023/exp/index1.html?PROLIFIC_PID=REDACTED&STUDY_ID=691f8ca61c6b4dcbb0aeb5f4&SESSION_ID=691f926bf65796ccca4c19a0","survey-html-form",47,705027,"0.0-358.0-0.0","Ex4ENYLj1Smk8bYNULMsdGxuams1v09cKfX/TsMWBlghNP4FhNDBt40ZyFxSrobipWpV9ShKTjwOqEapJ91dvwjH+IFcZZ6rc6Kf3CC7AaArPO83r1LbapR/p/CiBNAMhphwFa7MRPKFGkpETgZaQjRn560tuWAp5/h8FlZjR5cHOFcwSoBRERNsUcemurZCD3rH6A02OjrRbvxN85ki2lliJfl8iaYPoYiv1nR8WEy1xV+hDqzsfgX8uvDKnkb4YWh/rwe6WRzi/uzg6cc+NP/6UYeY0RjaL6XNXURg3o61D1/891lSj6MBqIY1ycf8aguKFxq3RAFidvIbHsG4lg==","691f8ca61c6b4dcbb0aeb5f4","691f926bf65796ccca4c19a0","index1","<span style='color:red'>Fail,<span style='color:red'>Fail,<span style='color:green'>Lift,<span style='color:green'>Lift,<span style='color:red'>Fail,<span style='color:red'>Fail,<span style='color:red'>Fail,<span style='color:red'>Fail,<span style='color:green'>Lift,<span style='color:red'>Fail,<span style='color:red'>Fail,<span style='color:green'>Lift","<span style='color:red'>Fail,<span style='color:red'>Fail,<span style='color:green'>Lift,<span style='color:green'>Lift,<span style='color:green'>Lift,<span style='color:green'>Lift,<span style='color:green'>Lift,<span style='color:red'>Fail,<span style='color:green'>Lift,<span style='color:green'>Lift,<span style='color:red'>Fail,<span style='color:green'>Lift","<span style='color:red'>Fail,<span style='color:green'>Lift,<span style='color:green'>Lift,<span style='color:red'>Fail,<span style='color:green'>Lift,<span style='color:green'>Lift","0,0,1,1,0,0,0,0,1,0,0,1","0,0,1,1,1,1,1,0,1,1,0,1","0,1,1,0,1,1",10,20,20,"","","","","{""box1"":""1"",""box2"":""1"",""box3"":""999"",""box4"":""999""}","",NA,6,"round3_fail",5,6,3,1,1,NA,NA,0,0,20,NA,NA,NA,NA,NA,NA,NA,NA,NA,NA,NA,NA,NA,NA,NA,NA,NA,NA,NA,NA,1,1,NA,NA,0,0,20,1,1,NA,"",NA,NA,NA,NA,NA,NA,NA,NA,2025-11-20 22:26:09
"48965.70000001788","https://psyc-201.github.io/xiang2023/exp/index1.html?PROLIFIC_PID=REDACTED&STUDY_ID=691f8ca61c6b4dcbb0aeb5f4&SESSION_ID=691f926bf65796ccca4c19a0","survey-text",48,753994,"0.0-361.0","Ex4ENYLj1Smk8bYNULMsdGxuams1v09cKfX/TsMWBlghNP4FhNDBt40ZyFxSrobipWpV9ShKTjwOqEapJ91dvwjH+IFcZZ6rc6Kf3CC7AaArPO83r1LbapR/p/CiBNAMhphwFa7MRPKFGkpETgZaQjRn560tuWAp5/h8FlZjR5cHOFcwSoBRERNsUcemurZCD3rH6A02OjrRbvxN85ki2lliJfl8iaYPoYiv1nR8WEy1xV+hDqzsfgX8uvDKnkb4YWh/rwe6WRzi/uzg6cc+NP/6UYeY0RjaL6XNXURg3o61D1/891lSj6MBqIY1ycf8aguKFxq3RAFidvIbHsG4lg==","691f8ca61c6b4dcbb0aeb5f4","691f926bf65796ccca4c19a0","index1","<span style='color:red'>Fail,<span style='color:red'>Fail,<span style='color:green'>Lift,<span style='color:green'>Lift,<span style='color:red'>Fail,<span style='color:red'>Fail,<span style='color:red'>Fail,<span style='color:red'>Fail,<span style='color:green'>Lift,<span style='color:red'>Fail,<span style='color:red'>Fail,<span style='color:green'>Lift","<span style='color:red'>Fail,<span style='color:red'>Fail,<span style='color:green'>Lift,<span style='color:green'>Lift,<span style='color:green'>Lift,<span style='color:green'>Lift,<span style='color:green'>Lift,<span style='color:red'>Fail,<span style='color:green'>Lift,<span style='color:green'>Lift,<span style='color:red'>Fail,<span style='color:green'>Lift","<span style='color:red'>Fail,<span style='color:green'>Lift,<span style='color:green'>Lift,<span style='color:red'>Fail,<span style='color:green'>Lift,<span style='color:green'>Lift","0,0,1,1,0,0,0,0,1,0,0,1","0,0,1,1,1,1,1,0,1,1,0,1","0,1,1,0,1,1",10,20,20,"","","","","{""Q0"":""I had to determine the strength of 2 contestants. I also had to determine how much effort they were using to lift the boxes.""}","",NA,NA,"",NA,NA,NA,NA,NA,NA,NA,NA,NA,NA,NA,NA,NA,NA,NA,NA,NA,NA,NA,NA,NA,NA,NA,NA,NA,NA,NA,NA,NA,NA,NA,NA,NA,NA,NA,NA,NA,NA,NA,NA,"",NA,NA,NA,NA,NA,NA,NA,NA,2025-11-20 22:26:09
"3158.7000000178814","https://psyc-201.github.io/xiang2023/exp/index1.html?PROLIFIC_PID=REDACTED&STUDY_ID=691f8ca61c6b4dcbb0aeb5f4&SESSION_ID=691f926bf65796ccca4c19a0","survey-text",49,757154,"0.0-362.0","Ex4ENYLj1Smk8bYNULMsdGxuams1v09cKfX/TsMWBlghNP4FhNDBt40ZyFxSrobipWpV9ShKTjwOqEapJ91dvwjH+IFcZZ6rc6Kf3CC7AaArPO83r1LbapR/p/CiBNAMhphwFa7MRPKFGkpETgZaQjRn560tuWAp5/h8FlZjR5cHOFcwSoBRERNsUcemurZCD3rH6A02OjrRbvxN85ki2lliJfl8iaYPoYiv1nR8WEy1xV+hDqzsfgX8uvDKnkb4YWh/rwe6WRzi/uzg6cc+NP/6UYeY0RjaL6XNXURg3o61D1/891lSj6MBqIY1ycf8aguKFxq3RAFidvIbHsG4lg==","691f8ca61c6b4dcbb0aeb5f4","691f926bf65796ccca4c19a0","index1","<span style='color:red'>Fail,<span style='color:red'>Fail,<span style='color:green'>Lift,<span style='color:green'>Lift,<span style='color:red'>Fail,<span style='color:red'>Fail,<span style='color:red'>Fail,<span style='color:red'>Fail,<span style='color:green'>Lift,<span style='color:red'>Fail,<span style='color:red'>Fail,<span style='color:green'>Lift","<span style='color:red'>Fail,<span style='color:red'>Fail,<span style='color:green'>Lift,<span style='color:green'>Lift,<span style='color:green'>Lift,<span style='color:green'>Lift,<span style='color:green'>Lift,<span style='color:red'>Fail,<span style='color:green'>Lift,<span style='color:green'>Lift,<span style='color:red'>Fail,<span style='color:green'>Lift","<span style='color:red'>Fail,<span style='color:green'>Lift,<span style='color:green'>Lift,<span style='color:red'>Fail,<span style='color:green'>Lift,<span style='color:green'>Lift","0,0,1,1,0,0,0,0,1,0,0,1","0,0,1,1,1,1,1,0,1,1,0,1","0,1,1,0,1,1",10,20,20,"","","","","{""Q0"":""""}","",NA,NA,"",NA,NA,NA,NA,NA,NA,NA,NA,NA,NA,NA,NA,NA,NA,NA,NA,NA,NA,NA,NA,NA,NA,NA,NA,NA,NA,NA,NA,NA,NA,NA,NA,NA,NA,NA,NA,NA,NA,NA,NA,"[{""event"":""blur"",""trial"":0,""time"":10917},{""event"":""focus"",""trial"":0,""time"":13146},{""event"":""fullscreenenter"",""trial"":1,""time"":15001},{""event"":""blur"",""trial"":2,""time"":17069},{""event"":""focus"",""trial"":2,""time"":43224},{""event"":""blur"",""trial"":2,""time"":72565},{""event"":""focus"",""trial"":2,""time"":77416},{""event"":""blur"",""trial"":24,""time"":469492},{""event"":""focus"",""trial"":24,""time"":474106}]",3,3,NA,95,1,0.95,NA,NA,2025-11-20 22:26:09
"6678.0999999940395","https://psyc-201.github.io/xiang2023/exp/index1.html?PROLIFIC_PID=REDACTED&STUDY_ID=691f8ca61c6b4dcbb0aeb5f4&SESSION_ID=691f926bf65796ccca4c19a0","html-button-response",50,763834,"0.0-363.0","Ex4ENYLj1Smk8bYNULMsdGxuams1v09cKfX/TsMWBlghNP4FhNDBt40ZyFxSrobipWpV9ShKTjwOqEapJ91dvwjH+IFcZZ6rc6Kf3CC7AaArPO83r1LbapR/p/CiBNAMhphwFa7MRPKFGkpETgZaQjRn560tuWAp5/h8FlZjR5cHOFcwSoBRERNsUcemurZCD3rH6A02OjrRbvxN85ki2lliJfl8iaYPoYiv1nR8WEy1xV+hDqzsfgX8uvDKnkb4YWh/rwe6WRzi/uzg6cc+NP/6UYeY0RjaL6XNXURg3o61D1/891lSj6MBqIY1ycf8aguKFxq3RAFidvIbHsG4lg==","691f8ca61c6b4dcbb0aeb5f4","691f926bf65796ccca4c19a0","index1","<span style='color:red'>Fail,<span style='color:red'>Fail,<span style='color:green'>Lift,<span style='color:green'>Lift,<span style='color:red'>Fail,<span style='color:red'>Fail,<span style='color:red'>Fail,<span style='color:red'>Fail,<span style='color:green'>Lift,<span style='color:red'>Fail,<span style='color:red'>Fail,<span style='color:green'>Lift","<span style='color:red'>Fail,<span style='color:red'>Fail,<span style='color:green'>Lift,<span style='color:green'>Lift,<span style='color:green'>Lift,<span style='color:green'>Lift,<span style='color:green'>Lift,<span style='color:red'>Fail,<span style='color:green'>Lift,<span style='color:green'>Lift,<span style='color:red'>Fail,<span style='color:green'>Lift","<span style='color:red'>Fail,<span style='color:green'>Lift,<span style='color:green'>Lift,<span style='color:red'>Fail,<span style='color:green'>Lift,<span style='color:green'>Lift","0,0,1,1,0,0,0,0,1,0,0,1","0,0,1,1,1,1,1,0,1,1,0,1","0,1,1,0,1,1",10,20,20,"","","<p> We randomly picked <b>Contest 3, Round 3</b> to calculate your bonus. </p><p> The outcome of Contestant E and F on that round is <span style='color:green'>Lift</span>. </p><p> The probability you entered was 95. </p><p><b> You won a bonus of $0.95!</b></p><p> IMPORTANT: Please click 'Next' to complete the game. </p>","","","",0,NA,"",NA,NA,NA,NA,NA,NA,NA,NA,NA,NA,NA,NA,NA,NA,NA,NA,NA,NA,NA,NA,NA,NA,NA,NA,NA,NA,NA,NA,NA,NA,NA,NA,NA,NA,NA,NA,NA,NA,NA,NA,"",NA,NA,NA,NA,NA,NA,1,0,2025-11-20 22:26:09
