"rt","url","trial_type","trial_index","time_elapsed","internal_node_id","encryptedProlificId","studyId","sessionId","expIndex","round1_outcomes","round2_outcomes","round3_outcomes","round1_o","round2_o","round3_o","round1_reward","round2_reward","round3_reward","success","view_history","stimulus","key_press","responses","question_order","button_pressed","j","Stage","stage","contest","round","strength_a","strength_b","effort_a","effort_b","outcome_a","outcome_b","reward","r1_strength_a","r1_strength_b","r1_effort_a","r1_effort_b","r1_outcome_a","r1_outcome_b","r1_reward","probability_a","probability_b","r2_prob_a","r2_prob_b","r2_strength_a","r2_strength_b","r2_effort_a","r2_effort_b","r2_outcome_a","r2_outcome_b","r2_reward","r3_prob_a","r3_prob_b","r3_strength_a","r3_strength_b","r3_effort_a","r3_effort_b","r3_outcome_a","r3_outcome_b","r3_reward","attention_check","count","screen","pick_contest","pick_round","pick_side","trial_probability","trial_outcome","bonus","attention_sum","attention","datapipe_meta.attributes.date_modified"
"3855.5999999046326","https://psyc-201.github.io/xiang2023/exp/index1.html?PROLIFIC_PID=REDACTED&STUDY_ID=691f8ca61c6b4dcbb0aeb5f4&SESSION_ID=691fa9c34f29cac536eb24fb","external-html",0,3900,"0.0-0.0","Of86UU+k2A3bg3Fiu0RQWt/DmXqyiVK4M+k1xAXACrs6wAvSDVRjONj7nUXlzSjwLCfFiZLQOjCKDc3TgWzDCrVxwFn8J0a9jcu/opCWhU15ZYUIxdpbKx/aVHhggud9Ng/XgcZeND6nhuUjuYPJVNy+FR/JHmcRaj2+IA17EHBiPavZYgR7nNlUMuQgJj8dxZiP2oSa7ZHlKi8igtCDPCLQenzn7B+zBbxnQvAFvWBCAXB/R3m3/cHKI43ujBA7lSsWv2YCjZgACVDVWUKomsCiX+qGq7j6ZJdgi0Himt477C30I4YVc/Jem/DYSIUIOvcGf3mmVKgwIe3nuRTpQw==","691f8ca61c6b4dcbb0aeb5f4","691fa9c34f29cac536eb24fb","index1","<span style='color:red'>Fail,<span style='color:red'>Fail,<span style='color:green'>Lift,<span style='color:green'>Lift,<span style='color:red'>Fail,<span style='color:red'>Fail,<span style='color:red'>Fail,<span style='color:red'>Fail,<span style='color:red'>Fail,<span style='color:green'>Lift,<span style='color:green'>Lift,<span style='color:red'>Fail","<span style='color:red'>Fail,<span style='color:red'>Fail,<span style='color:green'>Lift,<span style='color:green'>Lift,<span style='color:green'>Lift,<span style='color:green'>Lift,<span style='color:red'>Fail,<span style='color:green'>Lift,<span style='color:green'>Lift,<span style='color:green'>Lift,<span style='color:green'>Lift,<span style='color:red'>Fail","<span style='color:red'>Fail,<span style='color:green'>Lift,<span style='color:green'>Lift,<span style='color:red'>Fail,<span style='color:green'>Lift,<span style='color:green'>Lift","0,0,1,1,0,0,0,0,0,1,1,0","0,0,1,1,1,1,0,1,1,1,1,0","0,1,1,0,1,1",10,20,20,"","","","","","",NA,NA,"",NA,NA,NA,NA,NA,NA,NA,NA,NA,NA,NA,NA,NA,NA,NA,NA,NA,NA,NA,NA,NA,NA,NA,NA,NA,NA,NA,NA,NA,NA,NA,NA,NA,NA,NA,NA,NA,NA,NA,"",NA,NA,NA,NA,NA,NA,NA,NA,2025-11-21 00:12:32
"","https://psyc-201.github.io/xiang2023/exp/index1.html?PROLIFIC_PID=REDACTED&STUDY_ID=691f8ca61c6b4dcbb0aeb5f4&SESSION_ID=691fa9c34f29cac536eb24fb","fullscreen",1,13744,"0.0-1.0","Of86UU+k2A3bg3Fiu0RQWt/DmXqyiVK4M+k1xAXACrs6wAvSDVRjONj7nUXlzSjwLCfFiZLQOjCKDc3TgWzDCrVxwFn8J0a9jcu/opCWhU15ZYUIxdpbKx/aVHhggud9Ng/XgcZeND6nhuUjuYPJVNy+FR/JHmcRaj2+IA17EHBiPavZYgR7nNlUMuQgJj8dxZiP2oSa7ZHlKi8igtCDPCLQenzn7B+zBbxnQvAFvWBCAXB/R3m3/cHKI43ujBA7lSsWv2YCjZgACVDVWUKomsCiX+qGq7j6ZJdgi0Himt477C30I4YVc/Jem/DYSIUIOvcGf3mmVKgwIe3nuRTpQw==","691f8ca61c6b4dcbb0aeb5f4","691fa9c34f29cac536eb24fb","index1","<span style='color:red'>Fail,<span style='color:red'>Fail,<span style='color:green'>Lift,<span style='color:green'>Lift,<span style='color:red'>Fail,<span style='color:red'>Fail,<span style='color:red'>Fail,<span style='color:red'>Fail,<span style='color:red'>Fail,<span style='color:green'>Lift,<span style='color:green'>Lift,<span style='color:red'>Fail","<span style='color:red'>Fail,<span style='color:red'>Fail,<span style='color:green'>Lift,<span style='color:green'>Lift,<span style='color:green'>Lift,<span style='color:green'>Lift,<span style='color:red'>Fail,<span style='color:green'>Lift,<span style='color:green'>Lift,<span style='color:green'>Lift,<span style='color:green'>Lift,<span style='color:red'>Fail","<span style='color:red'>Fail,<span style='color:green'>Lift,<span style='color:green'>Lift,<span style='color:red'>Fail,<span style='color:green'>Lift,<span style='color:green'>Lift","0,0,1,1,0,0,0,0,0,1,1,0","0,0,1,1,1,1,0,1,1,1,1,0","0,1,1,0,1,1",10,20,20,"true","","","","","",NA,NA,"",NA,NA,NA,NA,NA,NA,NA,NA,NA,NA,NA,NA,NA,NA,NA,NA,NA,NA,NA,NA,NA,NA,NA,NA,NA,NA,NA,NA,NA,NA,NA,NA,NA,NA,NA,NA,NA,NA,NA,"",NA,NA,NA,NA,NA,NA,NA,NA,2025-11-21 00:12:32
"89171","https://psyc-201.github.io/xiang2023/exp/index1.html?PROLIFIC_PID=REDACTED&STUDY_ID=691f8ca61c6b4dcbb0aeb5f4&SESSION_ID=691fa9c34f29cac536eb24fb","instructions",2,102915,"0.0-2.0","Of86UU+k2A3bg3Fiu0RQWt/DmXqyiVK4M+k1xAXACrs6wAvSDVRjONj7nUXlzSjwLCfFiZLQOjCKDc3TgWzDCrVxwFn8J0a9jcu/opCWhU15ZYUIxdpbKx/aVHhggud9Ng/XgcZeND6nhuUjuYPJVNy+FR/JHmcRaj2+IA17EHBiPavZYgR7nNlUMuQgJj8dxZiP2oSa7ZHlKi8igtCDPCLQenzn7B+zBbxnQvAFvWBCAXB/R3m3/cHKI43ujBA7lSsWv2YCjZgACVDVWUKomsCiX+qGq7j6ZJdgi0Himt477C30I4YVc/Jem/DYSIUIOvcGf3mmVKgwIe3nuRTpQw==","691f8ca61c6b4dcbb0aeb5f4","691fa9c34f29cac536eb24fb","index1","<span style='color:red'>Fail,<span style='color:red'>Fail,<span style='color:green'>Lift,<span style='color:green'>Lift,<span style='color:red'>Fail,<span style='color:red'>Fail,<span style='color:red'>Fail,<span style='color:red'>Fail,<span style='color:red'>Fail,<span style='color:green'>Lift,<span style='color:green'>Lift,<span style='color:red'>Fail","<span style='color:red'>Fail,<span style='color:red'>Fail,<span style='color:green'>Lift,<span style='color:green'>Lift,<span style='color:green'>Lift,<span style='color:green'>Lift,<span style='color:red'>Fail,<span style='color:green'>Lift,<span style='color:green'>Lift,<span style='color:green'>Lift,<span style='color:green'>Lift,<span style='color:red'>Fail","<span style='color:red'>Fail,<span style='color:green'>Lift,<span style='color:green'>Lift,<span style='color:red'>Fail,<span style='color:green'>Lift,<span style='color:green'>Lift","0,0,1,1,0,0,0,0,0,1,1,0","0,0,1,1,1,1,0,1,1,1,1,0","0,1,1,0,1,1",10,20,20,"","[{""page_index"":0,""viewing_time"":17628.799999952316},{""page_index"":1,""viewing_time"":17191.800000071526},{""page_index"":2,""viewing_time"":9852.100000023842},{""page_index"":3,""viewing_time"":18792},{""page_index"":4,""viewing_time"":7842},{""page_index"":5,""viewing_time"":11632},{""page_index"":6,""viewing_time"":6232}]","","","","",NA,NA,"",NA,NA,NA,NA,NA,NA,NA,NA,NA,NA,NA,NA,NA,NA,NA,NA,NA,NA,NA,NA,NA,NA,NA,NA,NA,NA,NA,NA,NA,NA,NA,NA,NA,NA,NA,NA,NA,NA,NA,"",NA,NA,NA,NA,NA,NA,NA,NA,2025-11-21 00:12:32
"null","https://psyc-201.github.io/xiang2023/exp/index1.html?PROLIFIC_PID=REDACTED&STUDY_ID=691f8ca61c6b4dcbb0aeb5f4&SESSION_ID=691fa9c34f29cac536eb24fb","html-keyboard-response",3,103916,"0.0-3.0","Of86UU+k2A3bg3Fiu0RQWt/DmXqyiVK4M+k1xAXACrs6wAvSDVRjONj7nUXlzSjwLCfFiZLQOjCKDc3TgWzDCrVxwFn8J0a9jcu/opCWhU15ZYUIxdpbKx/aVHhggud9Ng/XgcZeND6nhuUjuYPJVNy+FR/JHmcRaj2+IA17EHBiPavZYgR7nNlUMuQgJj8dxZiP2oSa7ZHlKi8igtCDPCLQenzn7B+zBbxnQvAFvWBCAXB/R3m3/cHKI43ujBA7lSsWv2YCjZgACVDVWUKomsCiX+qGq7j6ZJdgi0Himt477C30I4YVc/Jem/DYSIUIOvcGf3mmVKgwIe3nuRTpQw==","691f8ca61c6b4dcbb0aeb5f4","691fa9c34f29cac536eb24fb","index1","<span style='color:red'>Fail,<span style='color:red'>Fail,<span style='color:green'>Lift,<span style='color:green'>Lift,<span style='color:red'>Fail,<span style='color:red'>Fail,<span style='color:red'>Fail,<span style='color:red'>Fail,<span style='color:red'>Fail,<span style='color:green'>Lift,<span style='color:green'>Lift,<span style='color:red'>Fail","<span style='color:red'>Fail,<span style='color:red'>Fail,<span style='color:green'>Lift,<span style='color:green'>Lift,<span style='color:green'>Lift,<span style='color:green'>Lift,<span style='color:red'>Fail,<span style='color:green'>Lift,<span style='color:green'>Lift,<span style='color:green'>Lift,<span style='color:green'>Lift,<span style='color:red'>Fail","<span style='color:red'>Fail,<span style='color:green'>Lift,<span style='color:green'>Lift,<span style='color:red'>Fail,<span style='color:green'>Lift,<span style='color:green'>Lift","0,0,1,1,0,0,0,0,0,1,1,0","0,0,1,1,1,1,0,1,1,1,1,0","0,1,1,0,1,1",10,20,20,"",""," ","null","","",NA,NA,"",NA,NA,NA,NA,NA,NA,NA,NA,NA,NA,NA,NA,NA,NA,NA,NA,NA,NA,NA,NA,NA,NA,NA,NA,NA,NA,NA,NA,NA,NA,NA,NA,NA,NA,NA,NA,NA,NA,NA,"",NA,NA,NA,NA,NA,NA,NA,NA,2025-11-21 00:12:32
"37333.39999997616","https://psyc-201.github.io/xiang2023/exp/index1.html?PROLIFIC_PID=REDACTED&STUDY_ID=691f8ca61c6b4dcbb0aeb5f4&SESSION_ID=691fa9c34f29cac536eb24fb","survey-multi-choice",4,141251,"0.0-4.0","Of86UU+k2A3bg3Fiu0RQWt/DmXqyiVK4M+k1xAXACrs6wAvSDVRjONj7nUXlzSjwLCfFiZLQOjCKDc3TgWzDCrVxwFn8J0a9jcu/opCWhU15ZYUIxdpbKx/aVHhggud9Ng/XgcZeND6nhuUjuYPJVNy+FR/JHmcRaj2+IA17EHBiPavZYgR7nNlUMuQgJj8dxZiP2oSa7ZHlKi8igtCDPCLQenzn7B+zBbxnQvAFvWBCAXB/R3m3/cHKI43ujBA7lSsWv2YCjZgACVDVWUKomsCiX+qGq7j6ZJdgi0Himt477C30I4YVc/Jem/DYSIUIOvcGf3mmVKgwIe3nuRTpQw==","691f8ca61c6b4dcbb0aeb5f4","691fa9c34f29cac536eb24fb","index1","<span style='color:red'>Fail,<span style='color:red'>Fail,<span style='color:green'>Lift,<span style='color:green'>Lift,<span style='color:red'>Fail,<span style='color:red'>Fail,<span style='color:red'>Fail,<span style='color:red'>Fail,<span style='color:red'>Fail,<span style='color:green'>Lift,<span style='color:green'>Lift,<span style='color:red'>Fail","<span style='color:red'>Fail,<span style='color:red'>Fail,<span style='color:green'>Lift,<span style='color:green'>Lift,<span style='color:green'>Lift,<span style='color:green'>Lift,<span style='color:red'>Fail,<span style='color:green'>Lift,<span style='color:green'>Lift,<span style='color:green'>Lift,<span style='color:green'>Lift,<span style='color:red'>Fail","<span style='color:red'>Fail,<span style='color:green'>Lift,<span style='color:green'>Lift,<span style='color:red'>Fail,<span style='color:green'>Lift,<span style='color:green'>Lift","0,0,1,1,0,0,0,0,0,1,1,0","0,0,1,1,1,1,0,1,1,1,1,0","0,1,1,0,1,1",10,20,20,"","","","","{""Q0"":""It consists of multiple contests, each contest with three rounds."",""Q1"":""Contestants are always the same across contests."",""Q2"":""The box weight always stays the same (equivalent to strength of 5)."",""Q3"":""Each will get $20."",""Q4"":""How close my guesses are to the actual outcome.""}","[0,1,2,3,4]",NA,NA,"",NA,NA,NA,NA,NA,NA,NA,NA,NA,NA,NA,NA,NA,NA,NA,NA,NA,NA,NA,NA,NA,NA,NA,NA,NA,NA,NA,NA,NA,NA,NA,NA,NA,NA,NA,NA,NA,NA,NA,"",NA,NA,NA,NA,NA,NA,NA,NA,2025-11-21 00:12:32
"4549","https://psyc-201.github.io/xiang2023/exp/index1.html?PROLIFIC_PID=REDACTED&STUDY_ID=691f8ca61c6b4dcbb0aeb5f4&SESSION_ID=691fa9c34f29cac536eb24fb","html-button-response",5,145801,"0.0-5.0-1.0","Of86UU+k2A3bg3Fiu0RQWt/DmXqyiVK4M+k1xAXACrs6wAvSDVRjONj7nUXlzSjwLCfFiZLQOjCKDc3TgWzDCrVxwFn8J0a9jcu/opCWhU15ZYUIxdpbKx/aVHhggud9Ng/XgcZeND6nhuUjuYPJVNy+FR/JHmcRaj2+IA17EHBiPavZYgR7nNlUMuQgJj8dxZiP2oSa7ZHlKi8igtCDPCLQenzn7B+zBbxnQvAFvWBCAXB/R3m3/cHKI43ujBA7lSsWv2YCjZgACVDVWUKomsCiX+qGq7j6ZJdgi0Himt477C30I4YVc/Jem/DYSIUIOvcGf3mmVKgwIe3nuRTpQw==","691f8ca61c6b4dcbb0aeb5f4","691fa9c34f29cac536eb24fb","index1","<span style='color:red'>Fail,<span style='color:red'>Fail,<span style='color:green'>Lift,<span style='color:green'>Lift,<span style='color:red'>Fail,<span style='color:red'>Fail,<span style='color:red'>Fail,<span style='color:red'>Fail,<span style='color:red'>Fail,<span style='color:green'>Lift,<span style='color:green'>Lift,<span style='color:red'>Fail","<span style='color:red'>Fail,<span style='color:red'>Fail,<span style='color:green'>Lift,<span style='color:green'>Lift,<span style='color:green'>Lift,<span style='color:green'>Lift,<span style='color:red'>Fail,<span style='color:green'>Lift,<span style='color:green'>Lift,<span style='color:green'>Lift,<span style='color:green'>Lift,<span style='color:red'>Fail","<span style='color:red'>Fail,<span style='color:green'>Lift,<span style='color:green'>Lift,<span style='color:red'>Fail,<span style='color:green'>Lift,<span style='color:green'>Lift","0,0,1,1,0,0,0,0,0,1,1,0","0,0,1,1,1,1,0,1,1,1,1,0","0,1,1,0,1,1",10,20,20,"","","<p> Oops! You did not pass the comprehension check. <b>Please note that you have only 1 attempt(s) left.</b> </p>","","","",1,NA,"",NA,NA,NA,NA,NA,NA,NA,NA,NA,NA,NA,NA,NA,NA,NA,NA,NA,NA,NA,NA,NA,NA,NA,NA,NA,NA,NA,NA,NA,NA,NA,NA,NA,NA,NA,NA,NA,NA,NA,"",NA,NA,NA,NA,NA,NA,NA,NA,2025-11-21 00:12:32
"42883.5","https://psyc-201.github.io/xiang2023/exp/index1.html?PROLIFIC_PID=REDACTED&STUDY_ID=691f8ca61c6b4dcbb0aeb5f4&SESSION_ID=691fa9c34f29cac536eb24fb","instructions",6,188685,"0.0-6.0-0.0","Of86UU+k2A3bg3Fiu0RQWt/DmXqyiVK4M+k1xAXACrs6wAvSDVRjONj7nUXlzSjwLCfFiZLQOjCKDc3TgWzDCrVxwFn8J0a9jcu/opCWhU15ZYUIxdpbKx/aVHhggud9Ng/XgcZeND6nhuUjuYPJVNy+FR/JHmcRaj2+IA17EHBiPavZYgR7nNlUMuQgJj8dxZiP2oSa7ZHlKi8igtCDPCLQenzn7B+zBbxnQvAFvWBCAXB/R3m3/cHKI43ujBA7lSsWv2YCjZgACVDVWUKomsCiX+qGq7j6ZJdgi0Himt477C30I4YVc/Jem/DYSIUIOvcGf3mmVKgwIe3nuRTpQw==","691f8ca61c6b4dcbb0aeb5f4","691fa9c34f29cac536eb24fb","index1","<span style='color:red'>Fail,<span style='color:red'>Fail,<span style='color:green'>Lift,<span style='color:green'>Lift,<span style='color:red'>Fail,<span style='color:red'>Fail,<span style='color:red'>Fail,<span style='color:red'>Fail,<span style='color:red'>Fail,<span style='color:green'>Lift,<span style='color:green'>Lift,<span style='color:red'>Fail","<span style='color:red'>Fail,<span style='color:red'>Fail,<span style='color:green'>Lift,<span style='color:green'>Lift,<span style='color:green'>Lift,<span style='color:green'>Lift,<span style='color:red'>Fail,<span style='color:green'>Lift,<span style='color:green'>Lift,<span style='color:green'>Lift,<span style='color:green'>Lift,<span style='color:red'>Fail","<span style='color:red'>Fail,<span style='color:green'>Lift,<span style='color:green'>Lift,<span style='color:red'>Fail,<span style='color:green'>Lift,<span style='color:green'>Lift","0,0,1,1,0,0,0,0,0,1,1,0","0,0,1,1,1,1,0,1,1,1,1,0","0,1,1,0,1,1",10,20,20,"","[{""page_index"":0,""viewing_time"":20421.300000071526},{""page_index"":1,""viewing_time"":4192},{""page_index"":2,""viewing_time"":9202},{""page_index"":3,""viewing_time"":4762},{""page_index"":4,""viewing_time"":2272},{""page_index"":5,""viewing_time"":1011.8999999761581},{""page_index"":6,""viewing_time"":1022}]","","","","",NA,NA,"",NA,NA,NA,NA,NA,NA,NA,NA,NA,NA,NA,NA,NA,NA,NA,NA,NA,NA,NA,NA,NA,NA,NA,NA,NA,NA,NA,NA,NA,NA,NA,NA,NA,NA,NA,NA,NA,NA,NA,"",NA,NA,NA,NA,NA,NA,NA,NA,2025-11-21 00:12:32
"null","https://psyc-201.github.io/xiang2023/exp/index1.html?PROLIFIC_PID=REDACTED&STUDY_ID=691f8ca61c6b4dcbb0aeb5f4&SESSION_ID=691fa9c34f29cac536eb24fb","html-keyboard-response",7,189686,"0.0-6.0-1.0","Of86UU+k2A3bg3Fiu0RQWt/DmXqyiVK4M+k1xAXACrs6wAvSDVRjONj7nUXlzSjwLCfFiZLQOjCKDc3TgWzDCrVxwFn8J0a9jcu/opCWhU15ZYUIxdpbKx/aVHhggud9Ng/XgcZeND6nhuUjuYPJVNy+FR/JHmcRaj2+IA17EHBiPavZYgR7nNlUMuQgJj8dxZiP2oSa7ZHlKi8igtCDPCLQenzn7B+zBbxnQvAFvWBCAXB/R3m3/cHKI43ujBA7lSsWv2YCjZgACVDVWUKomsCiX+qGq7j6ZJdgi0Himt477C30I4YVc/Jem/DYSIUIOvcGf3mmVKgwIe3nuRTpQw==","691f8ca61c6b4dcbb0aeb5f4","691fa9c34f29cac536eb24fb","index1","<span style='color:red'>Fail,<span style='color:red'>Fail,<span style='color:green'>Lift,<span style='color:green'>Lift,<span style='color:red'>Fail,<span style='color:red'>Fail,<span style='color:red'>Fail,<span style='color:red'>Fail,<span style='color:red'>Fail,<span style='color:green'>Lift,<span style='color:green'>Lift,<span style='color:red'>Fail","<span style='color:red'>Fail,<span style='color:red'>Fail,<span style='color:green'>Lift,<span style='color:green'>Lift,<span style='color:green'>Lift,<span style='color:green'>Lift,<span style='color:red'>Fail,<span style='color:green'>Lift,<span style='color:green'>Lift,<span style='color:green'>Lift,<span style='color:green'>Lift,<span style='color:red'>Fail","<span style='color:red'>Fail,<span style='color:green'>Lift,<span style='color:green'>Lift,<span style='color:red'>Fail,<span style='color:green'>Lift,<span style='color:green'>Lift","0,0,1,1,0,0,0,0,0,1,1,0","0,0,1,1,1,1,0,1,1,1,1,0","0,1,1,0,1,1",10,20,20,"",""," ","null","","",NA,NA,"",NA,NA,NA,NA,NA,NA,NA,NA,NA,NA,NA,NA,NA,NA,NA,NA,NA,NA,NA,NA,NA,NA,NA,NA,NA,NA,NA,NA,NA,NA,NA,NA,NA,NA,NA,NA,NA,NA,NA,"",NA,NA,NA,NA,NA,NA,NA,NA,2025-11-21 00:12:32
"21251.100000023842","https://psyc-201.github.io/xiang2023/exp/index1.html?PROLIFIC_PID=REDACTED&STUDY_ID=691f8ca61c6b4dcbb0aeb5f4&SESSION_ID=691fa9c34f29cac536eb24fb","survey-multi-choice",8,210938,"0.0-7.0-0.0","Of86UU+k2A3bg3Fiu0RQWt/DmXqyiVK4M+k1xAXACrs6wAvSDVRjONj7nUXlzSjwLCfFiZLQOjCKDc3TgWzDCrVxwFn8J0a9jcu/opCWhU15ZYUIxdpbKx/aVHhggud9Ng/XgcZeND6nhuUjuYPJVNy+FR/JHmcRaj2+IA17EHBiPavZYgR7nNlUMuQgJj8dxZiP2oSa7ZHlKi8igtCDPCLQenzn7B+zBbxnQvAFvWBCAXB/R3m3/cHKI43ujBA7lSsWv2YCjZgACVDVWUKomsCiX+qGq7j6ZJdgi0Himt477C30I4YVc/Jem/DYSIUIOvcGf3mmVKgwIe3nuRTpQw==","691f8ca61c6b4dcbb0aeb5f4","691fa9c34f29cac536eb24fb","index1","<span style='color:red'>Fail,<span style='color:red'>Fail,<span style='color:green'>Lift,<span style='color:green'>Lift,<span style='color:red'>Fail,<span style='color:red'>Fail,<span style='color:red'>Fail,<span style='color:red'>Fail,<span style='color:red'>Fail,<span style='color:green'>Lift,<span style='color:green'>Lift,<span style='color:red'>Fail","<span style='color:red'>Fail,<span style='color:red'>Fail,<span style='color:green'>Lift,<span style='color:green'>Lift,<span style='color:green'>Lift,<span style='color:green'>Lift,<span style='color:red'>Fail,<span style='color:green'>Lift,<span style='color:green'>Lift,<span style='color:green'>Lift,<span style='color:green'>Lift,<span style='color:red'>Fail","<span style='color:red'>Fail,<span style='color:green'>Lift,<span style='color:green'>Lift,<span style='color:red'>Fail,<span style='color:green'>Lift,<span style='color:green'>Lift","0,0,1,1,0,0,0,0,0,1,1,0","0,0,1,1,1,1,0,1,1,1,1,0","0,1,1,0,1,1",10,20,20,"","","","","{""Q0"":""It consists of multiple contests, each contest with three rounds."",""Q1"":""When a new contest begins."",""Q2"":""The box weight always stays the same (equivalent to strength of 5)."",""Q3"":""Each will get $20."",""Q4"":""How close my guesses are to the actual outcome.""}","[0,1,2,3,4]",NA,NA,"",NA,NA,NA,NA,NA,NA,NA,NA,NA,NA,NA,NA,NA,NA,NA,NA,NA,NA,NA,NA,NA,NA,NA,NA,NA,NA,NA,NA,NA,NA,NA,NA,NA,NA,NA,NA,NA,NA,NA,"",NA,NA,NA,NA,NA,NA,NA,NA,2025-11-21 00:12:32
"11979.900000095367","https://psyc-201.github.io/xiang2023/exp/index1.html?PROLIFIC_PID=REDACTED&STUDY_ID=691f8ca61c6b4dcbb0aeb5f4&SESSION_ID=691fa9c34f29cac536eb24fb","instructions",9,222921,"0.0-305.0","Of86UU+k2A3bg3Fiu0RQWt/DmXqyiVK4M+k1xAXACrs6wAvSDVRjONj7nUXlzSjwLCfFiZLQOjCKDc3TgWzDCrVxwFn8J0a9jcu/opCWhU15ZYUIxdpbKx/aVHhggud9Ng/XgcZeND6nhuUjuYPJVNy+FR/JHmcRaj2+IA17EHBiPavZYgR7nNlUMuQgJj8dxZiP2oSa7ZHlKi8igtCDPCLQenzn7B+zBbxnQvAFvWBCAXB/R3m3/cHKI43ujBA7lSsWv2YCjZgACVDVWUKomsCiX+qGq7j6ZJdgi0Himt477C30I4YVc/Jem/DYSIUIOvcGf3mmVKgwIe3nuRTpQw==","691f8ca61c6b4dcbb0aeb5f4","691fa9c34f29cac536eb24fb","index1","<span style='color:red'>Fail,<span style='color:red'>Fail,<span style='color:green'>Lift,<span style='color:green'>Lift,<span style='color:red'>Fail,<span style='color:red'>Fail,<span style='color:red'>Fail,<span style='color:red'>Fail,<span style='color:red'>Fail,<span style='color:green'>Lift,<span style='color:green'>Lift,<span style='color:red'>Fail","<span style='color:red'>Fail,<span style='color:red'>Fail,<span style='color:green'>Lift,<span style='color:green'>Lift,<span style='color:green'>Lift,<span style='color:green'>Lift,<span style='color:red'>Fail,<span style='color:green'>Lift,<span style='color:green'>Lift,<span style='color:green'>Lift,<span style='color:green'>Lift,<span style='color:red'>Fail","<span style='color:red'>Fail,<span style='color:green'>Lift,<span style='color:green'>Lift,<span style='color:red'>Fail,<span style='color:green'>Lift,<span style='color:green'>Lift","0,0,1,1,0,0,0,0,0,1,1,0","0,0,1,1,1,1,0,1,1,1,1,0","0,1,1,0,1,1",10,20,20,"","[{""page_index"":0,""viewing_time"":7787.700000047684},{""page_index"":1,""viewing_time"":4192}]","","","","",NA,NA,"",NA,NA,NA,NA,NA,NA,NA,NA,NA,NA,NA,NA,NA,NA,NA,NA,NA,NA,NA,NA,NA,NA,NA,NA,NA,NA,NA,NA,NA,NA,NA,NA,NA,NA,NA,NA,NA,NA,NA,"",NA,NA,NA,NA,NA,NA,NA,NA,2025-11-21 00:12:32
"null","https://psyc-201.github.io/xiang2023/exp/index1.html?PROLIFIC_PID=REDACTED&STUDY_ID=691f8ca61c6b4dcbb0aeb5f4&SESSION_ID=691fa9c34f29cac536eb24fb","html-keyboard-response",10,223934,"0.0-306.0","Of86UU+k2A3bg3Fiu0RQWt/DmXqyiVK4M+k1xAXACrs6wAvSDVRjONj7nUXlzSjwLCfFiZLQOjCKDc3TgWzDCrVxwFn8J0a9jcu/opCWhU15ZYUIxdpbKx/aVHhggud9Ng/XgcZeND6nhuUjuYPJVNy+FR/JHmcRaj2+IA17EHBiPavZYgR7nNlUMuQgJj8dxZiP2oSa7ZHlKi8igtCDPCLQenzn7B+zBbxnQvAFvWBCAXB/R3m3/cHKI43ujBA7lSsWv2YCjZgACVDVWUKomsCiX+qGq7j6ZJdgi0Himt477C30I4YVc/Jem/DYSIUIOvcGf3mmVKgwIe3nuRTpQw==","691f8ca61c6b4dcbb0aeb5f4","691fa9c34f29cac536eb24fb","index1","<span style='color:red'>Fail,<span style='color:red'>Fail,<span style='color:green'>Lift,<span style='color:green'>Lift,<span style='color:red'>Fail,<span style='color:red'>Fail,<span style='color:red'>Fail,<span style='color:red'>Fail,<span style='color:red'>Fail,<span style='color:green'>Lift,<span style='color:green'>Lift,<span style='color:red'>Fail","<span style='color:red'>Fail,<span style='color:red'>Fail,<span style='color:green'>Lift,<span style='color:green'>Lift,<span style='color:green'>Lift,<span style='color:green'>Lift,<span style='color:red'>Fail,<span style='color:green'>Lift,<span style='color:green'>Lift,<span style='color:green'>Lift,<span style='color:green'>Lift,<span style='color:red'>Fail","<span style='color:red'>Fail,<span style='color:green'>Lift,<span style='color:green'>Lift,<span style='color:red'>Fail,<span style='color:green'>Lift,<span style='color:green'>Lift","0,0,1,1,0,0,0,0,0,1,1,0","0,0,1,1,1,1,0,1,1,1,1,0","0,1,1,0,1,1",10,20,20,"",""," ","null","","",NA,1,"",NA,NA,NA,NA,NA,NA,NA,NA,NA,NA,NA,NA,NA,NA,NA,NA,NA,NA,NA,NA,NA,NA,NA,NA,NA,NA,NA,NA,NA,NA,NA,NA,NA,NA,NA,NA,NA,NA,NA,"",NA,NA,NA,NA,NA,NA,NA,NA,2025-11-21 00:12:32
"null","https://psyc-201.github.io/xiang2023/exp/index1.html?PROLIFIC_PID=REDACTED&STUDY_ID=691f8ca61c6b4dcbb0aeb5f4&SESSION_ID=691fa9c34f29cac536eb24fb","html-keyboard-response",11,226945,"0.0-307.0","Of86UU+k2A3bg3Fiu0RQWt/DmXqyiVK4M+k1xAXACrs6wAvSDVRjONj7nUXlzSjwLCfFiZLQOjCKDc3TgWzDCrVxwFn8J0a9jcu/opCWhU15ZYUIxdpbKx/aVHhggud9Ng/XgcZeND6nhuUjuYPJVNy+FR/JHmcRaj2+IA17EHBiPavZYgR7nNlUMuQgJj8dxZiP2oSa7ZHlKi8igtCDPCLQenzn7B+zBbxnQvAFvWBCAXB/R3m3/cHKI43ujBA7lSsWv2YCjZgACVDVWUKomsCiX+qGq7j6ZJdgi0Himt477C30I4YVc/Jem/DYSIUIOvcGf3mmVKgwIe3nuRTpQw==","691f8ca61c6b4dcbb0aeb5f4","691fa9c34f29cac536eb24fb","index1","<span style='color:red'>Fail,<span style='color:red'>Fail,<span style='color:green'>Lift,<span style='color:green'>Lift,<span style='color:red'>Fail,<span style='color:red'>Fail,<span style='color:red'>Fail,<span style='color:red'>Fail,<span style='color:red'>Fail,<span style='color:green'>Lift,<span style='color:green'>Lift,<span style='color:red'>Fail","<span style='color:red'>Fail,<span style='color:red'>Fail,<span style='color:green'>Lift,<span style='color:green'>Lift,<span style='color:green'>Lift,<span style='color:green'>Lift,<span style='color:red'>Fail,<span style='color:green'>Lift,<span style='color:green'>Lift,<span style='color:green'>Lift,<span style='color:green'>Lift,<span style='color:red'>Fail","<span style='color:red'>Fail,<span style='color:green'>Lift,<span style='color:green'>Lift,<span style='color:red'>Fail,<span style='color:green'>Lift,<span style='color:green'>Lift","0,0,1,1,0,0,0,0,0,1,1,0","0,0,1,1,1,1,0,1,1,1,1,0","0,1,1,0,1,1",10,20,20,"","","<p style='font-size:30px'><b> New Contest! </b></p>","null","","",NA,1,"",NA,NA,NA,NA,NA,NA,NA,NA,NA,NA,NA,NA,NA,NA,NA,NA,NA,NA,NA,NA,NA,NA,NA,NA,NA,NA,NA,NA,NA,NA,NA,NA,NA,NA,NA,NA,NA,NA,NA,"",NA,NA,NA,NA,NA,NA,NA,NA,2025-11-21 00:12:32
"23507.399999976158","https://psyc-201.github.io/xiang2023/exp/index1.html?PROLIFIC_PID=REDACTED&STUDY_ID=691f8ca61c6b4dcbb0aeb5f4&SESSION_ID=691fa9c34f29cac536eb24fb","survey-html-form",12,250454,"0.0-308.0","Of86UU+k2A3bg3Fiu0RQWt/DmXqyiVK4M+k1xAXACrs6wAvSDVRjONj7nUXlzSjwLCfFiZLQOjCKDc3TgWzDCrVxwFn8J0a9jcu/opCWhU15ZYUIxdpbKx/aVHhggud9Ng/XgcZeND6nhuUjuYPJVNy+FR/JHmcRaj2+IA17EHBiPavZYgR7nNlUMuQgJj8dxZiP2oSa7ZHlKi8igtCDPCLQenzn7B+zBbxnQvAFvWBCAXB/R3m3/cHKI43ujBA7lSsWv2YCjZgACVDVWUKomsCiX+qGq7j6ZJdgi0Himt477C30I4YVc/Jem/DYSIUIOvcGf3mmVKgwIe3nuRTpQw==","691f8ca61c6b4dcbb0aeb5f4","691fa9c34f29cac536eb24fb","index1","<span style='color:red'>Fail,<span style='color:red'>Fail,<span style='color:green'>Lift,<span style='color:green'>Lift,<span style='color:red'>Fail,<span style='color:red'>Fail,<span style='color:red'>Fail,<span style='color:red'>Fail,<span style='color:red'>Fail,<span style='color:green'>Lift,<span style='color:green'>Lift,<span style='color:red'>Fail","<span style='color:red'>Fail,<span style='color:red'>Fail,<span style='color:green'>Lift,<span style='color:green'>Lift,<span style='color:green'>Lift,<span style='color:green'>Lift,<span style='color:red'>Fail,<span style='color:green'>Lift,<span style='color:green'>Lift,<span style='color:green'>Lift,<span style='color:green'>Lift,<span style='color:red'>Fail","<span style='color:red'>Fail,<span style='color:green'>Lift,<span style='color:green'>Lift,<span style='color:red'>Fail,<span style='color:green'>Lift,<span style='color:green'>Lift","0,0,1,1,0,0,0,0,0,1,1,0","0,0,1,1,1,1,0,1,1,1,1,0","0,1,1,0,1,1",10,20,20,"","","","","{""box1"":""2"",""box2"":""2""}","",NA,1,"round1_outcome",1,1,1,2,2,NA,NA,0,0,10,2,2,NA,NA,0,0,10,NA,NA,NA,NA,NA,NA,NA,NA,NA,NA,NA,NA,NA,NA,NA,NA,NA,NA,NA,NA,NA,NA,"",NA,NA,NA,NA,NA,NA,NA,NA,2025-11-21 00:12:32
"12188.5","https://psyc-201.github.io/xiang2023/exp/index1.html?PROLIFIC_PID=REDACTED&STUDY_ID=691f8ca61c6b4dcbb0aeb5f4&SESSION_ID=691fa9c34f29cac536eb24fb","survey-html-form",13,262643,"0.0-309.0","Of86UU+k2A3bg3Fiu0RQWt/DmXqyiVK4M+k1xAXACrs6wAvSDVRjONj7nUXlzSjwLCfFiZLQOjCKDc3TgWzDCrVxwFn8J0a9jcu/opCWhU15ZYUIxdpbKx/aVHhggud9Ng/XgcZeND6nhuUjuYPJVNy+FR/JHmcRaj2+IA17EHBiPavZYgR7nNlUMuQgJj8dxZiP2oSa7ZHlKi8igtCDPCLQenzn7B+zBbxnQvAFvWBCAXB/R3m3/cHKI43ujBA7lSsWv2YCjZgACVDVWUKomsCiX+qGq7j6ZJdgi0Himt477C30I4YVc/Jem/DYSIUIOvcGf3mmVKgwIe3nuRTpQw==","691f8ca61c6b4dcbb0aeb5f4","691fa9c34f29cac536eb24fb","index1","<span style='color:red'>Fail,<span style='color:red'>Fail,<span style='color:green'>Lift,<span style='color:green'>Lift,<span style='color:red'>Fail,<span style='color:red'>Fail,<span style='color:red'>Fail,<span style='color:red'>Fail,<span style='color:red'>Fail,<span style='color:green'>Lift,<span style='color:green'>Lift,<span style='color:red'>Fail","<span style='color:red'>Fail,<span style='color:red'>Fail,<span style='color:green'>Lift,<span style='color:green'>Lift,<span style='color:green'>Lift,<span style='color:green'>Lift,<span style='color:red'>Fail,<span style='color:green'>Lift,<span style='color:green'>Lift,<span style='color:green'>Lift,<span style='color:green'>Lift,<span style='color:red'>Fail","<span style='color:red'>Fail,<span style='color:green'>Lift,<span style='color:green'>Lift,<span style='color:red'>Fail,<span style='color:green'>Lift,<span style='color:green'>Lift","0,0,1,1,0,0,0,0,0,1,1,0","0,0,1,1,1,1,0,1,1,1,1,0","0,1,1,0,1,1",10,20,20,"","","","","{""box1"":""1"",""box2"":""1""}","",NA,1,"round2_ready",2,1,2,NA,NA,NA,NA,NA,NA,NA,NA,NA,NA,NA,NA,NA,NA,1,1,1,1,NA,NA,NA,NA,NA,NA,NA,NA,NA,NA,NA,NA,NA,NA,NA,NA,NA,NA,"",NA,NA,NA,NA,NA,NA,NA,NA,2025-11-21 00:12:32
"22120.700000047684","https://psyc-201.github.io/xiang2023/exp/index1.html?PROLIFIC_PID=REDACTED&STUDY_ID=691f8ca61c6b4dcbb0aeb5f4&SESSION_ID=691fa9c34f29cac536eb24fb","survey-html-form",14,284766,"0.0-310.0","Of86UU+k2A3bg3Fiu0RQWt/DmXqyiVK4M+k1xAXACrs6wAvSDVRjONj7nUXlzSjwLCfFiZLQOjCKDc3TgWzDCrVxwFn8J0a9jcu/opCWhU15ZYUIxdpbKx/aVHhggud9Ng/XgcZeND6nhuUjuYPJVNy+FR/JHmcRaj2+IA17EHBiPavZYgR7nNlUMuQgJj8dxZiP2oSa7ZHlKi8igtCDPCLQenzn7B+zBbxnQvAFvWBCAXB/R3m3/cHKI43ujBA7lSsWv2YCjZgACVDVWUKomsCiX+qGq7j6ZJdgi0Himt477C30I4YVc/Jem/DYSIUIOvcGf3mmVKgwIe3nuRTpQw==","691f8ca61c6b4dcbb0aeb5f4","691fa9c34f29cac536eb24fb","index1","<span style='color:red'>Fail,<span style='color:red'>Fail,<span style='color:green'>Lift,<span style='color:green'>Lift,<span style='color:red'>Fail,<span style='color:red'>Fail,<span style='color:red'>Fail,<span style='color:red'>Fail,<span style='color:red'>Fail,<span style='color:green'>Lift,<span style='color:green'>Lift,<span style='color:red'>Fail","<span style='color:red'>Fail,<span style='color:red'>Fail,<span style='color:green'>Lift,<span style='color:green'>Lift,<span style='color:green'>Lift,<span style='color:green'>Lift,<span style='color:red'>Fail,<span style='color:green'>Lift,<span style='color:green'>Lift,<span style='color:green'>Lift,<span style='color:green'>Lift,<span style='color:red'>Fail","<span style='color:red'>Fail,<span style='color:green'>Lift,<span style='color:green'>Lift,<span style='color:red'>Fail,<span style='color:green'>Lift,<span style='color:green'>Lift","0,0,1,1,0,0,0,0,0,1,1,0","0,0,1,1,1,1,0,1,1,1,1,0","0,1,1,0,1,1",10,20,20,"","","","","{""box1"":""5"",""box2"":""5"",""box3"":""5"",""box4"":""5""}","",NA,1,"round2_outcome",3,1,2,5,5,5,5,1,1,20,NA,NA,NA,NA,NA,NA,NA,NA,NA,NA,NA,5,5,5,5,1,1,20,NA,NA,NA,NA,NA,NA,NA,NA,NA,NA,NA,"",NA,NA,NA,NA,NA,NA,NA,NA,2025-11-21 00:12:32
"7400.300000071526","https://psyc-201.github.io/xiang2023/exp/index1.html?PROLIFIC_PID=REDACTED&STUDY_ID=691f8ca61c6b4dcbb0aeb5f4&SESSION_ID=691fa9c34f29cac536eb24fb","survey-html-form",15,292167,"0.0-311.0","Of86UU+k2A3bg3Fiu0RQWt/DmXqyiVK4M+k1xAXACrs6wAvSDVRjONj7nUXlzSjwLCfFiZLQOjCKDc3TgWzDCrVxwFn8J0a9jcu/opCWhU15ZYUIxdpbKx/aVHhggud9Ng/XgcZeND6nhuUjuYPJVNy+FR/JHmcRaj2+IA17EHBiPavZYgR7nNlUMuQgJj8dxZiP2oSa7ZHlKi8igtCDPCLQenzn7B+zBbxnQvAFvWBCAXB/R3m3/cHKI43ujBA7lSsWv2YCjZgACVDVWUKomsCiX+qGq7j6ZJdgi0Himt477C30I4YVc/Jem/DYSIUIOvcGf3mmVKgwIe3nuRTpQw==","691f8ca61c6b4dcbb0aeb5f4","691fa9c34f29cac536eb24fb","index1","<span style='color:red'>Fail,<span style='color:red'>Fail,<span style='color:green'>Lift,<span style='color:green'>Lift,<span style='color:red'>Fail,<span style='color:red'>Fail,<span style='color:red'>Fail,<span style='color:red'>Fail,<span style='color:red'>Fail,<span style='color:green'>Lift,<span style='color:green'>Lift,<span style='color:red'>Fail","<span style='color:red'>Fail,<span style='color:red'>Fail,<span style='color:green'>Lift,<span style='color:green'>Lift,<span style='color:green'>Lift,<span style='color:green'>Lift,<span style='color:red'>Fail,<span style='color:green'>Lift,<span style='color:green'>Lift,<span style='color:green'>Lift,<span style='color:green'>Lift,<span style='color:red'>Fail","<span style='color:red'>Fail,<span style='color:green'>Lift,<span style='color:green'>Lift,<span style='color:red'>Fail,<span style='color:green'>Lift,<span style='color:green'>Lift","0,0,1,1,0,0,0,0,0,1,1,0","0,0,1,1,1,1,0,1,1,1,1,0","0,1,1,0,1,1",10,20,20,"","","","","{""box1"":""10""}","",NA,1,"round3_ready",4,1,3,NA,NA,NA,NA,NA,NA,NA,NA,NA,NA,NA,NA,NA,NA,10,10,NA,NA,NA,NA,NA,NA,NA,NA,NA,10,10,NA,NA,NA,NA,NA,NA,NA,NA,NA,"",NA,NA,NA,NA,NA,NA,NA,NA,2025-11-21 00:12:32
"12878.700000047684","https://psyc-201.github.io/xiang2023/exp/index1.html?PROLIFIC_PID=REDACTED&STUDY_ID=691f8ca61c6b4dcbb0aeb5f4&SESSION_ID=691fa9c34f29cac536eb24fb","survey-html-form",16,305047,"0.0-312.0-0.0","Of86UU+k2A3bg3Fiu0RQWt/DmXqyiVK4M+k1xAXACrs6wAvSDVRjONj7nUXlzSjwLCfFiZLQOjCKDc3TgWzDCrVxwFn8J0a9jcu/opCWhU15ZYUIxdpbKx/aVHhggud9Ng/XgcZeND6nhuUjuYPJVNy+FR/JHmcRaj2+IA17EHBiPavZYgR7nNlUMuQgJj8dxZiP2oSa7ZHlKi8igtCDPCLQenzn7B+zBbxnQvAFvWBCAXB/R3m3/cHKI43ujBA7lSsWv2YCjZgACVDVWUKomsCiX+qGq7j6ZJdgi0Himt477C30I4YVc/Jem/DYSIUIOvcGf3mmVKgwIe3nuRTpQw==","691f8ca61c6b4dcbb0aeb5f4","691fa9c34f29cac536eb24fb","index1","<span style='color:red'>Fail,<span style='color:red'>Fail,<span style='color:green'>Lift,<span style='color:green'>Lift,<span style='color:red'>Fail,<span style='color:red'>Fail,<span style='color:red'>Fail,<span style='color:red'>Fail,<span style='color:red'>Fail,<span style='color:green'>Lift,<span style='color:green'>Lift,<span style='color:red'>Fail","<span style='color:red'>Fail,<span style='color:red'>Fail,<span style='color:green'>Lift,<span style='color:green'>Lift,<span style='color:green'>Lift,<span style='color:green'>Lift,<span style='color:red'>Fail,<span style='color:green'>Lift,<span style='color:green'>Lift,<span style='color:green'>Lift,<span style='color:green'>Lift,<span style='color:red'>Fail","<span style='color:red'>Fail,<span style='color:green'>Lift,<span style='color:green'>Lift,<span style='color:red'>Fail,<span style='color:green'>Lift,<span style='color:green'>Lift","0,0,1,1,0,0,0,0,0,1,1,0","0,0,1,1,1,1,0,1,1,1,1,0","0,1,1,0,1,1",10,20,20,"","","","","{""box1"":""5"",""box2"":""5"",""box3"":""5"",""box4"":""5""}","",NA,2,"round3_lift",5,1,3,5,5,5,5,1,1,20,NA,NA,NA,NA,NA,NA,NA,NA,NA,NA,NA,NA,NA,NA,NA,NA,NA,NA,NA,NA,5,5,5,5,1,1,20,NA,NA,"",NA,NA,NA,NA,NA,NA,NA,NA,2025-11-21 00:12:32
"null","https://psyc-201.github.io/xiang2023/exp/index1.html?PROLIFIC_PID=REDACTED&STUDY_ID=691f8ca61c6b4dcbb0aeb5f4&SESSION_ID=691fa9c34f29cac536eb24fb","html-keyboard-response",17,308063,"0.0-316.0","Of86UU+k2A3bg3Fiu0RQWt/DmXqyiVK4M+k1xAXACrs6wAvSDVRjONj7nUXlzSjwLCfFiZLQOjCKDc3TgWzDCrVxwFn8J0a9jcu/opCWhU15ZYUIxdpbKx/aVHhggud9Ng/XgcZeND6nhuUjuYPJVNy+FR/JHmcRaj2+IA17EHBiPavZYgR7nNlUMuQgJj8dxZiP2oSa7ZHlKi8igtCDPCLQenzn7B+zBbxnQvAFvWBCAXB/R3m3/cHKI43ujBA7lSsWv2YCjZgACVDVWUKomsCiX+qGq7j6ZJdgi0Himt477C30I4YVc/Jem/DYSIUIOvcGf3mmVKgwIe3nuRTpQw==","691f8ca61c6b4dcbb0aeb5f4","691fa9c34f29cac536eb24fb","index1","<span style='color:red'>Fail,<span style='color:red'>Fail,<span style='color:green'>Lift,<span style='color:green'>Lift,<span style='color:red'>Fail,<span style='color:red'>Fail,<span style='color:red'>Fail,<span style='color:red'>Fail,<span style='color:red'>Fail,<span style='color:green'>Lift,<span style='color:green'>Lift,<span style='color:red'>Fail","<span style='color:red'>Fail,<span style='color:red'>Fail,<span style='color:green'>Lift,<span style='color:green'>Lift,<span style='color:green'>Lift,<span style='color:green'>Lift,<span style='color:red'>Fail,<span style='color:green'>Lift,<span style='color:green'>Lift,<span style='color:green'>Lift,<span style='color:green'>Lift,<span style='color:red'>Fail","<span style='color:red'>Fail,<span style='color:green'>Lift,<span style='color:green'>Lift,<span style='color:red'>Fail,<span style='color:green'>Lift,<span style='color:green'>Lift","0,0,1,1,0,0,0,0,0,1,1,0","0,0,1,1,1,1,0,1,1,1,1,0","0,1,1,0,1,1",10,20,20,"","","<p style='font-size:30px'><b> New Contest! </b></p>","null","","",NA,2,"",NA,NA,NA,NA,NA,NA,NA,NA,NA,NA,NA,NA,NA,NA,NA,NA,NA,NA,NA,NA,NA,NA,NA,NA,NA,NA,NA,NA,NA,NA,NA,NA,NA,NA,NA,NA,NA,NA,NA,"",NA,NA,NA,NA,NA,NA,NA,NA,2025-11-21 00:12:32
"12577.699999928474","https://psyc-201.github.io/xiang2023/exp/index1.html?PROLIFIC_PID=REDACTED&STUDY_ID=691f8ca61c6b4dcbb0aeb5f4&SESSION_ID=691fa9c34f29cac536eb24fb","survey-html-form",18,320641,"0.0-317.0","Of86UU+k2A3bg3Fiu0RQWt/DmXqyiVK4M+k1xAXACrs6wAvSDVRjONj7nUXlzSjwLCfFiZLQOjCKDc3TgWzDCrVxwFn8J0a9jcu/opCWhU15ZYUIxdpbKx/aVHhggud9Ng/XgcZeND6nhuUjuYPJVNy+FR/JHmcRaj2+IA17EHBiPavZYgR7nNlUMuQgJj8dxZiP2oSa7ZHlKi8igtCDPCLQenzn7B+zBbxnQvAFvWBCAXB/R3m3/cHKI43ujBA7lSsWv2YCjZgACVDVWUKomsCiX+qGq7j6ZJdgi0Himt477C30I4YVc/Jem/DYSIUIOvcGf3mmVKgwIe3nuRTpQw==","691f8ca61c6b4dcbb0aeb5f4","691fa9c34f29cac536eb24fb","index1","<span style='color:red'>Fail,<span style='color:red'>Fail,<span style='color:green'>Lift,<span style='color:green'>Lift,<span style='color:red'>Fail,<span style='color:red'>Fail,<span style='color:red'>Fail,<span style='color:red'>Fail,<span style='color:red'>Fail,<span style='color:green'>Lift,<span style='color:green'>Lift,<span style='color:red'>Fail","<span style='color:red'>Fail,<span style='color:red'>Fail,<span style='color:green'>Lift,<span style='color:green'>Lift,<span style='color:green'>Lift,<span style='color:green'>Lift,<span style='color:red'>Fail,<span style='color:green'>Lift,<span style='color:green'>Lift,<span style='color:green'>Lift,<span style='color:green'>Lift,<span style='color:red'>Fail","<span style='color:red'>Fail,<span style='color:green'>Lift,<span style='color:green'>Lift,<span style='color:red'>Fail,<span style='color:green'>Lift,<span style='color:green'>Lift","0,0,1,1,0,0,0,0,0,1,1,0","0,0,1,1,1,1,0,1,1,1,1,0","0,1,1,0,1,1",10,20,20,"","","","","{""box1"":""2"",""box2"":""2""}","",NA,2,"round1_outcome",1,2,1,2,2,NA,NA,0,0,10,2,2,NA,NA,0,0,10,NA,NA,NA,NA,NA,NA,NA,NA,NA,NA,NA,NA,NA,NA,NA,NA,NA,NA,NA,NA,NA,NA,"",NA,NA,NA,NA,NA,NA,NA,NA,2025-11-21 00:12:32
"6958.700000047684","https://psyc-201.github.io/xiang2023/exp/index1.html?PROLIFIC_PID=REDACTED&STUDY_ID=691f8ca61c6b4dcbb0aeb5f4&SESSION_ID=691fa9c34f29cac536eb24fb","survey-html-form",19,327601,"0.0-318.0","Of86UU+k2A3bg3Fiu0RQWt/DmXqyiVK4M+k1xAXACrs6wAvSDVRjONj7nUXlzSjwLCfFiZLQOjCKDc3TgWzDCrVxwFn8J0a9jcu/opCWhU15ZYUIxdpbKx/aVHhggud9Ng/XgcZeND6nhuUjuYPJVNy+FR/JHmcRaj2+IA17EHBiPavZYgR7nNlUMuQgJj8dxZiP2oSa7ZHlKi8igtCDPCLQenzn7B+zBbxnQvAFvWBCAXB/R3m3/cHKI43ujBA7lSsWv2YCjZgACVDVWUKomsCiX+qGq7j6ZJdgi0Himt477C30I4YVc/Jem/DYSIUIOvcGf3mmVKgwIe3nuRTpQw==","691f8ca61c6b4dcbb0aeb5f4","691fa9c34f29cac536eb24fb","index1","<span style='color:red'>Fail,<span style='color:red'>Fail,<span style='color:green'>Lift,<span style='color:green'>Lift,<span style='color:red'>Fail,<span style='color:red'>Fail,<span style='color:red'>Fail,<span style='color:red'>Fail,<span style='color:red'>Fail,<span style='color:green'>Lift,<span style='color:green'>Lift,<span style='color:red'>Fail","<span style='color:red'>Fail,<span style='color:red'>Fail,<span style='color:green'>Lift,<span style='color:green'>Lift,<span style='color:green'>Lift,<span style='color:green'>Lift,<span style='color:red'>Fail,<span style='color:green'>Lift,<span style='color:green'>Lift,<span style='color:green'>Lift,<span style='color:green'>Lift,<span style='color:red'>Fail","<span style='color:red'>Fail,<span style='color:green'>Lift,<span style='color:green'>Lift,<span style='color:red'>Fail,<span style='color:green'>Lift,<span style='color:green'>Lift","0,0,1,1,0,0,0,0,0,1,1,0","0,0,1,1,1,1,0,1,1,1,1,0","0,1,1,0,1,1",10,20,20,"","","","","{""box1"":""3"",""box2"":""3""}","",NA,2,"round2_ready",2,2,2,NA,NA,NA,NA,NA,NA,NA,NA,NA,NA,NA,NA,NA,NA,3,3,3,3,NA,NA,NA,NA,NA,NA,NA,NA,NA,NA,NA,NA,NA,NA,NA,NA,NA,NA,"",NA,NA,NA,NA,NA,NA,NA,NA,2025-11-21 00:12:32
"6174.800000071526","https://psyc-201.github.io/xiang2023/exp/index1.html?PROLIFIC_PID=REDACTED&STUDY_ID=691f8ca61c6b4dcbb0aeb5f4&SESSION_ID=691fa9c34f29cac536eb24fb","survey-html-form",20,333777,"0.0-319.0","Of86UU+k2A3bg3Fiu0RQWt/DmXqyiVK4M+k1xAXACrs6wAvSDVRjONj7nUXlzSjwLCfFiZLQOjCKDc3TgWzDCrVxwFn8J0a9jcu/opCWhU15ZYUIxdpbKx/aVHhggud9Ng/XgcZeND6nhuUjuYPJVNy+FR/JHmcRaj2+IA17EHBiPavZYgR7nNlUMuQgJj8dxZiP2oSa7ZHlKi8igtCDPCLQenzn7B+zBbxnQvAFvWBCAXB/R3m3/cHKI43ujBA7lSsWv2YCjZgACVDVWUKomsCiX+qGq7j6ZJdgi0Himt477C30I4YVc/Jem/DYSIUIOvcGf3mmVKgwIe3nuRTpQw==","691f8ca61c6b4dcbb0aeb5f4","691fa9c34f29cac536eb24fb","index1","<span style='color:red'>Fail,<span style='color:red'>Fail,<span style='color:green'>Lift,<span style='color:green'>Lift,<span style='color:red'>Fail,<span style='color:red'>Fail,<span style='color:red'>Fail,<span style='color:red'>Fail,<span style='color:red'>Fail,<span style='color:green'>Lift,<span style='color:green'>Lift,<span style='color:red'>Fail","<span style='color:red'>Fail,<span style='color:red'>Fail,<span style='color:green'>Lift,<span style='color:green'>Lift,<span style='color:green'>Lift,<span style='color:green'>Lift,<span style='color:red'>Fail,<span style='color:green'>Lift,<span style='color:green'>Lift,<span style='color:green'>Lift,<span style='color:green'>Lift,<span style='color:red'>Fail","<span style='color:red'>Fail,<span style='color:green'>Lift,<span style='color:green'>Lift,<span style='color:red'>Fail,<span style='color:green'>Lift,<span style='color:green'>Lift","0,0,1,1,0,0,0,0,0,1,1,0","0,0,1,1,1,1,0,1,1,1,1,0","0,1,1,0,1,1",10,20,20,"","","","","{""box1"":""1"",""box2"":""1""}","",NA,2,"round2_outcome",3,2,2,1,1,NA,NA,0,0,20,NA,NA,NA,NA,NA,NA,NA,NA,NA,NA,NA,1,1,NA,NA,0,0,20,NA,NA,NA,NA,NA,NA,NA,NA,NA,NA,NA,"",NA,NA,NA,NA,NA,NA,NA,NA,2025-11-21 00:12:32
"4238.800000071526","https://psyc-201.github.io/xiang2023/exp/index1.html?PROLIFIC_PID=REDACTED&STUDY_ID=691f8ca61c6b4dcbb0aeb5f4&SESSION_ID=691fa9c34f29cac536eb24fb","survey-html-form",21,338017,"0.0-320.0","Of86UU+k2A3bg3Fiu0RQWt/DmXqyiVK4M+k1xAXACrs6wAvSDVRjONj7nUXlzSjwLCfFiZLQOjCKDc3TgWzDCrVxwFn8J0a9jcu/opCWhU15ZYUIxdpbKx/aVHhggud9Ng/XgcZeND6nhuUjuYPJVNy+FR/JHmcRaj2+IA17EHBiPavZYgR7nNlUMuQgJj8dxZiP2oSa7ZHlKi8igtCDPCLQenzn7B+zBbxnQvAFvWBCAXB/R3m3/cHKI43ujBA7lSsWv2YCjZgACVDVWUKomsCiX+qGq7j6ZJdgi0Himt477C30I4YVc/Jem/DYSIUIOvcGf3mmVKgwIe3nuRTpQw==","691f8ca61c6b4dcbb0aeb5f4","691fa9c34f29cac536eb24fb","index1","<span style='color:red'>Fail,<span style='color:red'>Fail,<span style='color:green'>Lift,<span style='color:green'>Lift,<span style='color:red'>Fail,<span style='color:red'>Fail,<span style='color:red'>Fail,<span style='color:red'>Fail,<span style='color:red'>Fail,<span style='color:green'>Lift,<span style='color:green'>Lift,<span style='color:red'>Fail","<span style='color:red'>Fail,<span style='color:red'>Fail,<span style='color:green'>Lift,<span style='color:green'>Lift,<span style='color:green'>Lift,<span style='color:green'>Lift,<span style='color:red'>Fail,<span style='color:green'>Lift,<span style='color:green'>Lift,<span style='color:green'>Lift,<span style='color:green'>Lift,<span style='color:red'>Fail","<span style='color:red'>Fail,<span style='color:green'>Lift,<span style='color:green'>Lift,<span style='color:red'>Fail,<span style='color:green'>Lift,<span style='color:green'>Lift","0,0,1,1,0,0,0,0,0,1,1,0","0,0,1,1,1,1,0,1,1,1,1,0","0,1,1,0,1,1",10,20,20,"","","","","{""box1"":""4""}","",NA,2,"round3_ready",4,2,3,NA,NA,NA,NA,NA,NA,NA,NA,NA,NA,NA,NA,NA,NA,4,4,NA,NA,NA,NA,NA,NA,NA,NA,NA,4,4,NA,NA,NA,NA,NA,NA,NA,NA,NA,"",NA,NA,NA,NA,NA,NA,NA,NA,2025-11-21 00:12:32
"15925","https://psyc-201.github.io/xiang2023/exp/index1.html?PROLIFIC_PID=REDACTED&STUDY_ID=691f8ca61c6b4dcbb0aeb5f4&SESSION_ID=691fa9c34f29cac536eb24fb","survey-html-form",22,353943,"0.0-322.0-0.0","Of86UU+k2A3bg3Fiu0RQWt/DmXqyiVK4M+k1xAXACrs6wAvSDVRjONj7nUXlzSjwLCfFiZLQOjCKDc3TgWzDCrVxwFn8J0a9jcu/opCWhU15ZYUIxdpbKx/aVHhggud9Ng/XgcZeND6nhuUjuYPJVNy+FR/JHmcRaj2+IA17EHBiPavZYgR7nNlUMuQgJj8dxZiP2oSa7ZHlKi8igtCDPCLQenzn7B+zBbxnQvAFvWBCAXB/R3m3/cHKI43ujBA7lSsWv2YCjZgACVDVWUKomsCiX+qGq7j6ZJdgi0Himt477C30I4YVc/Jem/DYSIUIOvcGf3mmVKgwIe3nuRTpQw==","691f8ca61c6b4dcbb0aeb5f4","691fa9c34f29cac536eb24fb","index1","<span style='color:red'>Fail,<span style='color:red'>Fail,<span style='color:green'>Lift,<span style='color:green'>Lift,<span style='color:red'>Fail,<span style='color:red'>Fail,<span style='color:red'>Fail,<span style='color:red'>Fail,<span style='color:red'>Fail,<span style='color:green'>Lift,<span style='color:green'>Lift,<span style='color:red'>Fail","<span style='color:red'>Fail,<span style='color:red'>Fail,<span style='color:green'>Lift,<span style='color:green'>Lift,<span style='color:green'>Lift,<span style='color:green'>Lift,<span style='color:red'>Fail,<span style='color:green'>Lift,<span style='color:green'>Lift,<span style='color:green'>Lift,<span style='color:green'>Lift,<span style='color:red'>Fail","<span style='color:red'>Fail,<span style='color:green'>Lift,<span style='color:green'>Lift,<span style='color:red'>Fail,<span style='color:green'>Lift,<span style='color:green'>Lift","0,0,1,1,0,0,0,0,0,1,1,0","0,0,1,1,1,1,0,1,1,1,1,0","0,1,1,0,1,1",10,20,20,"","","","","{""box1"":""1"",""box2"":""1"",""box3"":""999"",""box4"":""999""}","",NA,3,"round3_fail",5,2,3,1,1,NA,NA,0,0,20,NA,NA,NA,NA,NA,NA,NA,NA,NA,NA,NA,NA,NA,NA,NA,NA,NA,NA,NA,NA,1,1,NA,NA,0,0,20,1,1,"",NA,NA,NA,NA,NA,NA,NA,NA,2025-11-21 00:12:32
"null","https://psyc-201.github.io/xiang2023/exp/index1.html?PROLIFIC_PID=REDACTED&STUDY_ID=691f8ca61c6b4dcbb0aeb5f4&SESSION_ID=691fa9c34f29cac536eb24fb","html-keyboard-response",23,356945,"0.0-325.0","Of86UU+k2A3bg3Fiu0RQWt/DmXqyiVK4M+k1xAXACrs6wAvSDVRjONj7nUXlzSjwLCfFiZLQOjCKDc3TgWzDCrVxwFn8J0a9jcu/opCWhU15ZYUIxdpbKx/aVHhggud9Ng/XgcZeND6nhuUjuYPJVNy+FR/JHmcRaj2+IA17EHBiPavZYgR7nNlUMuQgJj8dxZiP2oSa7ZHlKi8igtCDPCLQenzn7B+zBbxnQvAFvWBCAXB/R3m3/cHKI43ujBA7lSsWv2YCjZgACVDVWUKomsCiX+qGq7j6ZJdgi0Himt477C30I4YVc/Jem/DYSIUIOvcGf3mmVKgwIe3nuRTpQw==","691f8ca61c6b4dcbb0aeb5f4","691fa9c34f29cac536eb24fb","index1","<span style='color:red'>Fail,<span style='color:red'>Fail,<span style='color:green'>Lift,<span style='color:green'>Lift,<span style='color:red'>Fail,<span style='color:red'>Fail,<span style='color:red'>Fail,<span style='color:red'>Fail,<span style='color:red'>Fail,<span style='color:green'>Lift,<span style='color:green'>Lift,<span style='color:red'>Fail","<span style='color:red'>Fail,<span style='color:red'>Fail,<span style='color:green'>Lift,<span style='color:green'>Lift,<span style='color:green'>Lift,<span style='color:green'>Lift,<span style='color:red'>Fail,<span style='color:green'>Lift,<span style='color:green'>Lift,<span style='color:green'>Lift,<span style='color:green'>Lift,<span style='color:red'>Fail","<span style='color:red'>Fail,<span style='color:green'>Lift,<span style='color:green'>Lift,<span style='color:red'>Fail,<span style='color:green'>Lift,<span style='color:green'>Lift","0,0,1,1,0,0,0,0,0,1,1,0","0,0,1,1,1,1,0,1,1,1,1,0","0,1,1,0,1,1",10,20,20,"","","<p style='font-size:30px'><b> New Contest! </b></p>","null","","",NA,3,"",NA,NA,NA,NA,NA,NA,NA,NA,NA,NA,NA,NA,NA,NA,NA,NA,NA,NA,NA,NA,NA,NA,NA,NA,NA,NA,NA,NA,NA,NA,NA,NA,NA,NA,NA,NA,NA,NA,NA,"",NA,NA,NA,NA,NA,NA,NA,NA,2025-11-21 00:12:32
"11735.600000023842","https://psyc-201.github.io/xiang2023/exp/index1.html?PROLIFIC_PID=REDACTED&STUDY_ID=691f8ca61c6b4dcbb0aeb5f4&SESSION_ID=691fa9c34f29cac536eb24fb","survey-html-form",24,368681,"0.0-326.0","Of86UU+k2A3bg3Fiu0RQWt/DmXqyiVK4M+k1xAXACrs6wAvSDVRjONj7nUXlzSjwLCfFiZLQOjCKDc3TgWzDCrVxwFn8J0a9jcu/opCWhU15ZYUIxdpbKx/aVHhggud9Ng/XgcZeND6nhuUjuYPJVNy+FR/JHmcRaj2+IA17EHBiPavZYgR7nNlUMuQgJj8dxZiP2oSa7ZHlKi8igtCDPCLQenzn7B+zBbxnQvAFvWBCAXB/R3m3/cHKI43ujBA7lSsWv2YCjZgACVDVWUKomsCiX+qGq7j6ZJdgi0Himt477C30I4YVc/Jem/DYSIUIOvcGf3mmVKgwIe3nuRTpQw==","691f8ca61c6b4dcbb0aeb5f4","691fa9c34f29cac536eb24fb","index1","<span style='color:red'>Fail,<span style='color:red'>Fail,<span style='color:green'>Lift,<span style='color:green'>Lift,<span style='color:red'>Fail,<span style='color:red'>Fail,<span style='color:red'>Fail,<span style='color:red'>Fail,<span style='color:red'>Fail,<span style='color:green'>Lift,<span style='color:green'>Lift,<span style='color:red'>Fail","<span style='color:red'>Fail,<span style='color:red'>Fail,<span style='color:green'>Lift,<span style='color:green'>Lift,<span style='color:green'>Lift,<span style='color:green'>Lift,<span style='color:red'>Fail,<span style='color:green'>Lift,<span style='color:green'>Lift,<span style='color:green'>Lift,<span style='color:green'>Lift,<span style='color:red'>Fail","<span style='color:red'>Fail,<span style='color:green'>Lift,<span style='color:green'>Lift,<span style='color:red'>Fail,<span style='color:green'>Lift,<span style='color:green'>Lift","0,0,1,1,0,0,0,0,0,1,1,0","0,0,1,1,1,1,0,1,1,1,1,0","0,1,1,0,1,1",10,20,20,"","","","","{""box1"":""8"",""box2"":""8"",""box3"":""5"",""box4"":""5""}","",NA,3,"round1_outcome",1,3,1,8,8,5,5,1,1,10,8,8,5,5,1,1,10,NA,NA,NA,NA,NA,NA,NA,NA,NA,NA,NA,NA,NA,NA,NA,NA,NA,NA,NA,NA,NA,NA,"",NA,NA,NA,NA,NA,NA,NA,NA,2025-11-21 00:12:32
"6354.800000071526","https://psyc-201.github.io/xiang2023/exp/index1.html?PROLIFIC_PID=REDACTED&STUDY_ID=691f8ca61c6b4dcbb0aeb5f4&SESSION_ID=691fa9c34f29cac536eb24fb","survey-html-form",25,375037,"0.0-327.0","Of86UU+k2A3bg3Fiu0RQWt/DmXqyiVK4M+k1xAXACrs6wAvSDVRjONj7nUXlzSjwLCfFiZLQOjCKDc3TgWzDCrVxwFn8J0a9jcu/opCWhU15ZYUIxdpbKx/aVHhggud9Ng/XgcZeND6nhuUjuYPJVNy+FR/JHmcRaj2+IA17EHBiPavZYgR7nNlUMuQgJj8dxZiP2oSa7ZHlKi8igtCDPCLQenzn7B+zBbxnQvAFvWBCAXB/R3m3/cHKI43ujBA7lSsWv2YCjZgACVDVWUKomsCiX+qGq7j6ZJdgi0Himt477C30I4YVc/Jem/DYSIUIOvcGf3mmVKgwIe3nuRTpQw==","691f8ca61c6b4dcbb0aeb5f4","691fa9c34f29cac536eb24fb","index1","<span style='color:red'>Fail,<span style='color:red'>Fail,<span style='color:green'>Lift,<span style='color:green'>Lift,<span style='color:red'>Fail,<span style='color:red'>Fail,<span style='color:red'>Fail,<span style='color:red'>Fail,<span style='color:red'>Fail,<span style='color:green'>Lift,<span style='color:green'>Lift,<span style='color:red'>Fail","<span style='color:red'>Fail,<span style='color:red'>Fail,<span style='color:green'>Lift,<span style='color:green'>Lift,<span style='color:green'>Lift,<span style='color:green'>Lift,<span style='color:red'>Fail,<span style='color:green'>Lift,<span style='color:green'>Lift,<span style='color:green'>Lift,<span style='color:green'>Lift,<span style='color:red'>Fail","<span style='color:red'>Fail,<span style='color:green'>Lift,<span style='color:green'>Lift,<span style='color:red'>Fail,<span style='color:green'>Lift,<span style='color:green'>Lift","0,0,1,1,0,0,0,0,0,1,1,0","0,0,1,1,1,1,0,1,1,1,1,0","0,1,1,0,1,1",10,20,20,"","","","","{""box1"":""100"",""box2"":""100""}","",NA,3,"round2_ready",2,3,2,NA,NA,NA,NA,NA,NA,NA,NA,NA,NA,NA,NA,NA,NA,100,100,100,100,NA,NA,NA,NA,NA,NA,NA,NA,NA,NA,NA,NA,NA,NA,NA,NA,NA,NA,"",NA,NA,NA,NA,NA,NA,NA,NA,2025-11-21 00:12:32
"21844.700000047684","https://psyc-201.github.io/xiang2023/exp/index1.html?PROLIFIC_PID=REDACTED&STUDY_ID=691f8ca61c6b4dcbb0aeb5f4&SESSION_ID=691fa9c34f29cac536eb24fb","survey-html-form",26,396883,"0.0-328.0","Of86UU+k2A3bg3Fiu0RQWt/DmXqyiVK4M+k1xAXACrs6wAvSDVRjONj7nUXlzSjwLCfFiZLQOjCKDc3TgWzDCrVxwFn8J0a9jcu/opCWhU15ZYUIxdpbKx/aVHhggud9Ng/XgcZeND6nhuUjuYPJVNy+FR/JHmcRaj2+IA17EHBiPavZYgR7nNlUMuQgJj8dxZiP2oSa7ZHlKi8igtCDPCLQenzn7B+zBbxnQvAFvWBCAXB/R3m3/cHKI43ujBA7lSsWv2YCjZgACVDVWUKomsCiX+qGq7j6ZJdgi0Himt477C30I4YVc/Jem/DYSIUIOvcGf3mmVKgwIe3nuRTpQw==","691f8ca61c6b4dcbb0aeb5f4","691fa9c34f29cac536eb24fb","index1","<span style='color:red'>Fail,<span style='color:red'>Fail,<span style='color:green'>Lift,<span style='color:green'>Lift,<span style='color:red'>Fail,<span style='color:red'>Fail,<span style='color:red'>Fail,<span style='color:red'>Fail,<span style='color:red'>Fail,<span style='color:green'>Lift,<span style='color:green'>Lift,<span style='color:red'>Fail","<span style='color:red'>Fail,<span style='color:red'>Fail,<span style='color:green'>Lift,<span style='color:green'>Lift,<span style='color:green'>Lift,<span style='color:green'>Lift,<span style='color:red'>Fail,<span style='color:green'>Lift,<span style='color:green'>Lift,<span style='color:green'>Lift,<span style='color:green'>Lift,<span style='color:red'>Fail","<span style='color:red'>Fail,<span style='color:green'>Lift,<span style='color:green'>Lift,<span style='color:red'>Fail,<span style='color:green'>Lift,<span style='color:green'>Lift","0,0,1,1,0,0,0,0,0,1,1,0","0,0,1,1,1,1,0,1,1,1,1,0","0,1,1,0,1,1",10,20,20,"","","","","{""box1"":""10"",""box2"":""10"",""box3"":""50"",""box4"":""50""}","",NA,3,"round2_outcome",3,3,2,10,10,50,50,1,1,20,NA,NA,NA,NA,NA,NA,NA,NA,NA,NA,NA,10,10,50,50,1,1,20,NA,NA,NA,NA,NA,NA,NA,NA,NA,NA,NA,"",NA,NA,NA,NA,NA,NA,NA,NA,2025-11-21 00:12:32
"4512.800000071526","https://psyc-201.github.io/xiang2023/exp/index1.html?PROLIFIC_PID=REDACTED&STUDY_ID=691f8ca61c6b4dcbb0aeb5f4&SESSION_ID=691fa9c34f29cac536eb24fb","survey-html-form",27,401397,"0.0-329.0","Of86UU+k2A3bg3Fiu0RQWt/DmXqyiVK4M+k1xAXACrs6wAvSDVRjONj7nUXlzSjwLCfFiZLQOjCKDc3TgWzDCrVxwFn8J0a9jcu/opCWhU15ZYUIxdpbKx/aVHhggud9Ng/XgcZeND6nhuUjuYPJVNy+FR/JHmcRaj2+IA17EHBiPavZYgR7nNlUMuQgJj8dxZiP2oSa7ZHlKi8igtCDPCLQenzn7B+zBbxnQvAFvWBCAXB/R3m3/cHKI43ujBA7lSsWv2YCjZgACVDVWUKomsCiX+qGq7j6ZJdgi0Himt477C30I4YVc/Jem/DYSIUIOvcGf3mmVKgwIe3nuRTpQw==","691f8ca61c6b4dcbb0aeb5f4","691fa9c34f29cac536eb24fb","index1","<span style='color:red'>Fail,<span style='color:red'>Fail,<span style='color:green'>Lift,<span style='color:green'>Lift,<span style='color:red'>Fail,<span style='color:red'>Fail,<span style='color:red'>Fail,<span style='color:red'>Fail,<span style='color:red'>Fail,<span style='color:green'>Lift,<span style='color:green'>Lift,<span style='color:red'>Fail","<span style='color:red'>Fail,<span style='color:red'>Fail,<span style='color:green'>Lift,<span style='color:green'>Lift,<span style='color:green'>Lift,<span style='color:green'>Lift,<span style='color:red'>Fail,<span style='color:green'>Lift,<span style='color:green'>Lift,<span style='color:green'>Lift,<span style='color:green'>Lift,<span style='color:red'>Fail","<span style='color:red'>Fail,<span style='color:green'>Lift,<span style='color:green'>Lift,<span style='color:red'>Fail,<span style='color:green'>Lift,<span style='color:green'>Lift","0,0,1,1,0,0,0,0,0,1,1,0","0,0,1,1,1,1,0,1,1,1,1,0","0,1,1,0,1,1",10,20,20,"","","","","{""box1"":""100""}","",NA,3,"round3_ready",4,3,3,NA,NA,NA,NA,NA,NA,NA,NA,NA,NA,NA,NA,NA,NA,100,100,NA,NA,NA,NA,NA,NA,NA,NA,NA,100,100,NA,NA,NA,NA,NA,NA,NA,NA,NA,"",NA,NA,NA,NA,NA,NA,NA,NA,2025-11-21 00:12:32
"11302.900000095367","https://psyc-201.github.io/xiang2023/exp/index1.html?PROLIFIC_PID=REDACTED&STUDY_ID=691f8ca61c6b4dcbb0aeb5f4&SESSION_ID=691fa9c34f29cac536eb24fb","survey-html-form",28,412701,"0.0-330.0-0.0","Of86UU+k2A3bg3Fiu0RQWt/DmXqyiVK4M+k1xAXACrs6wAvSDVRjONj7nUXlzSjwLCfFiZLQOjCKDc3TgWzDCrVxwFn8J0a9jcu/opCWhU15ZYUIxdpbKx/aVHhggud9Ng/XgcZeND6nhuUjuYPJVNy+FR/JHmcRaj2+IA17EHBiPavZYgR7nNlUMuQgJj8dxZiP2oSa7ZHlKi8igtCDPCLQenzn7B+zBbxnQvAFvWBCAXB/R3m3/cHKI43ujBA7lSsWv2YCjZgACVDVWUKomsCiX+qGq7j6ZJdgi0Himt477C30I4YVc/Jem/DYSIUIOvcGf3mmVKgwIe3nuRTpQw==","691f8ca61c6b4dcbb0aeb5f4","691fa9c34f29cac536eb24fb","index1","<span style='color:red'>Fail,<span style='color:red'>Fail,<span style='color:green'>Lift,<span style='color:green'>Lift,<span style='color:red'>Fail,<span style='color:red'>Fail,<span style='color:red'>Fail,<span style='color:red'>Fail,<span style='color:red'>Fail,<span style='color:green'>Lift,<span style='color:green'>Lift,<span style='color:red'>Fail","<span style='color:red'>Fail,<span style='color:red'>Fail,<span style='color:green'>Lift,<span style='color:green'>Lift,<span style='color:green'>Lift,<span style='color:green'>Lift,<span style='color:red'>Fail,<span style='color:green'>Lift,<span style='color:green'>Lift,<span style='color:green'>Lift,<span style='color:green'>Lift,<span style='color:red'>Fail","<span style='color:red'>Fail,<span style='color:green'>Lift,<span style='color:green'>Lift,<span style='color:red'>Fail,<span style='color:green'>Lift,<span style='color:green'>Lift","0,0,1,1,0,0,0,0,0,1,1,0","0,0,1,1,1,1,0,1,1,1,1,0","0,1,1,0,1,1",10,20,20,"","","","","{""box1"":""10"",""box2"":""10"",""box3"":""25"",""box4"":""25""}","",NA,4,"round3_lift",5,3,3,10,10,25,25,1,1,20,NA,NA,NA,NA,NA,NA,NA,NA,NA,NA,NA,NA,NA,NA,NA,NA,NA,NA,NA,NA,10,10,25,25,1,1,20,NA,NA,"",NA,NA,NA,NA,NA,NA,NA,NA,2025-11-21 00:12:32
"null","https://psyc-201.github.io/xiang2023/exp/index1.html?PROLIFIC_PID=REDACTED&STUDY_ID=691f8ca61c6b4dcbb0aeb5f4&SESSION_ID=691fa9c34f29cac536eb24fb","html-keyboard-response",29,415707,"0.0-334.0","Of86UU+k2A3bg3Fiu0RQWt/DmXqyiVK4M+k1xAXACrs6wAvSDVRjONj7nUXlzSjwLCfFiZLQOjCKDc3TgWzDCrVxwFn8J0a9jcu/opCWhU15ZYUIxdpbKx/aVHhggud9Ng/XgcZeND6nhuUjuYPJVNy+FR/JHmcRaj2+IA17EHBiPavZYgR7nNlUMuQgJj8dxZiP2oSa7ZHlKi8igtCDPCLQenzn7B+zBbxnQvAFvWBCAXB/R3m3/cHKI43ujBA7lSsWv2YCjZgACVDVWUKomsCiX+qGq7j6ZJdgi0Himt477C30I4YVc/Jem/DYSIUIOvcGf3mmVKgwIe3nuRTpQw==","691f8ca61c6b4dcbb0aeb5f4","691fa9c34f29cac536eb24fb","index1","<span style='color:red'>Fail,<span style='color:red'>Fail,<span style='color:green'>Lift,<span style='color:green'>Lift,<span style='color:red'>Fail,<span style='color:red'>Fail,<span style='color:red'>Fail,<span style='color:red'>Fail,<span style='color:red'>Fail,<span style='color:green'>Lift,<span style='color:green'>Lift,<span style='color:red'>Fail","<span style='color:red'>Fail,<span style='color:red'>Fail,<span style='color:green'>Lift,<span style='color:green'>Lift,<span style='color:green'>Lift,<span style='color:green'>Lift,<span style='color:red'>Fail,<span style='color:green'>Lift,<span style='color:green'>Lift,<span style='color:green'>Lift,<span style='color:green'>Lift,<span style='color:red'>Fail","<span style='color:red'>Fail,<span style='color:green'>Lift,<span style='color:green'>Lift,<span style='color:red'>Fail,<span style='color:green'>Lift,<span style='color:green'>Lift","0,0,1,1,0,0,0,0,0,1,1,0","0,0,1,1,1,1,0,1,1,1,1,0","0,1,1,0,1,1",10,20,20,"","","<p style='font-size:30px'><b> New Contest! </b></p>","null","","",NA,4,"",NA,NA,NA,NA,NA,NA,NA,NA,NA,NA,NA,NA,NA,NA,NA,NA,NA,NA,NA,NA,NA,NA,NA,NA,NA,NA,NA,NA,NA,NA,NA,NA,NA,NA,NA,NA,NA,NA,NA,"",NA,NA,NA,NA,NA,NA,NA,NA,2025-11-21 00:12:32
"24700.800000071526","https://psyc-201.github.io/xiang2023/exp/index1.html?PROLIFIC_PID=REDACTED&STUDY_ID=691f8ca61c6b4dcbb0aeb5f4&SESSION_ID=691fa9c34f29cac536eb24fb","survey-html-form",30,440409,"0.0-335.0","Of86UU+k2A3bg3Fiu0RQWt/DmXqyiVK4M+k1xAXACrs6wAvSDVRjONj7nUXlzSjwLCfFiZLQOjCKDc3TgWzDCrVxwFn8J0a9jcu/opCWhU15ZYUIxdpbKx/aVHhggud9Ng/XgcZeND6nhuUjuYPJVNy+FR/JHmcRaj2+IA17EHBiPavZYgR7nNlUMuQgJj8dxZiP2oSa7ZHlKi8igtCDPCLQenzn7B+zBbxnQvAFvWBCAXB/R3m3/cHKI43ujBA7lSsWv2YCjZgACVDVWUKomsCiX+qGq7j6ZJdgi0Himt477C30I4YVc/Jem/DYSIUIOvcGf3mmVKgwIe3nuRTpQw==","691f8ca61c6b4dcbb0aeb5f4","691fa9c34f29cac536eb24fb","index1","<span style='color:red'>Fail,<span style='color:red'>Fail,<span style='color:green'>Lift,<span style='color:green'>Lift,<span style='color:red'>Fail,<span style='color:red'>Fail,<span style='color:red'>Fail,<span style='color:red'>Fail,<span style='color:red'>Fail,<span style='color:green'>Lift,<span style='color:green'>Lift,<span style='color:red'>Fail","<span style='color:red'>Fail,<span style='color:red'>Fail,<span style='color:green'>Lift,<span style='color:green'>Lift,<span style='color:green'>Lift,<span style='color:green'>Lift,<span style='color:red'>Fail,<span style='color:green'>Lift,<span style='color:green'>Lift,<span style='color:green'>Lift,<span style='color:green'>Lift,<span style='color:red'>Fail","<span style='color:red'>Fail,<span style='color:green'>Lift,<span style='color:green'>Lift,<span style='color:red'>Fail,<span style='color:green'>Lift,<span style='color:green'>Lift","0,0,1,1,0,0,0,0,0,1,1,0","0,0,1,1,1,1,0,1,1,1,1,0","0,1,1,0,1,1",10,20,20,"","","","","{""box1"":""2"",""box2"":""8"",""box4"":""50""}","",NA,4,"round1_outcome",1,4,1,2,8,NA,50,0,1,10,2,8,NA,50,0,1,10,NA,NA,NA,NA,NA,NA,NA,NA,NA,NA,NA,NA,NA,NA,NA,NA,NA,NA,NA,NA,NA,NA,"",NA,NA,NA,NA,NA,NA,NA,NA,2025-11-21 00:12:32
"9902.800000071526","https://psyc-201.github.io/xiang2023/exp/index1.html?PROLIFIC_PID=REDACTED&STUDY_ID=691f8ca61c6b4dcbb0aeb5f4&SESSION_ID=691fa9c34f29cac536eb24fb","survey-html-form",31,450313,"0.0-336.0","Of86UU+k2A3bg3Fiu0RQWt/DmXqyiVK4M+k1xAXACrs6wAvSDVRjONj7nUXlzSjwLCfFiZLQOjCKDc3TgWzDCrVxwFn8J0a9jcu/opCWhU15ZYUIxdpbKx/aVHhggud9Ng/XgcZeND6nhuUjuYPJVNy+FR/JHmcRaj2+IA17EHBiPavZYgR7nNlUMuQgJj8dxZiP2oSa7ZHlKi8igtCDPCLQenzn7B+zBbxnQvAFvWBCAXB/R3m3/cHKI43ujBA7lSsWv2YCjZgACVDVWUKomsCiX+qGq7j6ZJdgi0Himt477C30I4YVc/Jem/DYSIUIOvcGf3mmVKgwIe3nuRTpQw==","691f8ca61c6b4dcbb0aeb5f4","691fa9c34f29cac536eb24fb","index1","<span style='color:red'>Fail,<span style='color:red'>Fail,<span style='color:green'>Lift,<span style='color:green'>Lift,<span style='color:red'>Fail,<span style='color:red'>Fail,<span style='color:red'>Fail,<span style='color:red'>Fail,<span style='color:red'>Fail,<span style='color:green'>Lift,<span style='color:green'>Lift,<span style='color:red'>Fail","<span style='color:red'>Fail,<span style='color:red'>Fail,<span style='color:green'>Lift,<span style='color:green'>Lift,<span style='color:green'>Lift,<span style='color:green'>Lift,<span style='color:red'>Fail,<span style='color:green'>Lift,<span style='color:green'>Lift,<span style='color:green'>Lift,<span style='color:green'>Lift,<span style='color:red'>Fail","<span style='color:red'>Fail,<span style='color:green'>Lift,<span style='color:green'>Lift,<span style='color:red'>Fail,<span style='color:green'>Lift,<span style='color:green'>Lift","0,0,1,1,0,0,0,0,0,1,1,0","0,0,1,1,1,1,0,1,1,1,1,0","0,1,1,0,1,1",10,20,20,"","","","","{""box1"":""0"",""box2"":""75""}","",NA,4,"round2_ready",2,4,2,NA,NA,NA,NA,NA,NA,NA,NA,NA,NA,NA,NA,NA,NA,0,75,0,75,NA,NA,NA,NA,NA,NA,NA,NA,NA,NA,NA,NA,NA,NA,NA,NA,NA,NA,"",NA,NA,NA,NA,NA,NA,NA,NA,2025-11-21 00:12:32
"16472.700000047684","https://psyc-201.github.io/xiang2023/exp/index1.html?PROLIFIC_PID=REDACTED&STUDY_ID=691f8ca61c6b4dcbb0aeb5f4&SESSION_ID=691fa9c34f29cac536eb24fb","survey-html-form",32,466787,"0.0-337.0","Of86UU+k2A3bg3Fiu0RQWt/DmXqyiVK4M+k1xAXACrs6wAvSDVRjONj7nUXlzSjwLCfFiZLQOjCKDc3TgWzDCrVxwFn8J0a9jcu/opCWhU15ZYUIxdpbKx/aVHhggud9Ng/XgcZeND6nhuUjuYPJVNy+FR/JHmcRaj2+IA17EHBiPavZYgR7nNlUMuQgJj8dxZiP2oSa7ZHlKi8igtCDPCLQenzn7B+zBbxnQvAFvWBCAXB/R3m3/cHKI43ujBA7lSsWv2YCjZgACVDVWUKomsCiX+qGq7j6ZJdgi0Himt477C30I4YVc/Jem/DYSIUIOvcGf3mmVKgwIe3nuRTpQw==","691f8ca61c6b4dcbb0aeb5f4","691fa9c34f29cac536eb24fb","index1","<span style='color:red'>Fail,<span style='color:red'>Fail,<span style='color:green'>Lift,<span style='color:green'>Lift,<span style='color:red'>Fail,<span style='color:red'>Fail,<span style='color:red'>Fail,<span style='color:red'>Fail,<span style='color:red'>Fail,<span style='color:green'>Lift,<span style='color:green'>Lift,<span style='color:red'>Fail","<span style='color:red'>Fail,<span style='color:red'>Fail,<span style='color:green'>Lift,<span style='color:green'>Lift,<span style='color:green'>Lift,<span style='color:green'>Lift,<span style='color:red'>Fail,<span style='color:green'>Lift,<span style='color:green'>Lift,<span style='color:green'>Lift,<span style='color:green'>Lift,<span style='color:red'>Fail","<span style='color:red'>Fail,<span style='color:green'>Lift,<span style='color:green'>Lift,<span style='color:red'>Fail,<span style='color:green'>Lift,<span style='color:green'>Lift","0,0,1,1,0,0,0,0,0,1,1,0","0,0,1,1,1,1,0,1,1,1,1,0","0,1,1,0,1,1",10,20,20,"","","","","{""box1"":""5"",""box2"":""10"",""box3"":""75"",""box4"":""55""}","",NA,4,"round2_outcome",3,4,2,5,10,75,55,1,1,20,NA,NA,NA,NA,NA,NA,NA,NA,NA,NA,NA,5,10,75,55,1,1,20,NA,NA,NA,NA,NA,NA,NA,NA,NA,NA,NA,"",NA,NA,NA,NA,NA,NA,NA,NA,2025-11-21 00:12:32
"3692.7000000476837","https://psyc-201.github.io/xiang2023/exp/index1.html?PROLIFIC_PID=REDACTED&STUDY_ID=691f8ca61c6b4dcbb0aeb5f4&SESSION_ID=691fa9c34f29cac536eb24fb","survey-html-form",33,470481,"0.0-338.0","Of86UU+k2A3bg3Fiu0RQWt/DmXqyiVK4M+k1xAXACrs6wAvSDVRjONj7nUXlzSjwLCfFiZLQOjCKDc3TgWzDCrVxwFn8J0a9jcu/opCWhU15ZYUIxdpbKx/aVHhggud9Ng/XgcZeND6nhuUjuYPJVNy+FR/JHmcRaj2+IA17EHBiPavZYgR7nNlUMuQgJj8dxZiP2oSa7ZHlKi8igtCDPCLQenzn7B+zBbxnQvAFvWBCAXB/R3m3/cHKI43ujBA7lSsWv2YCjZgACVDVWUKomsCiX+qGq7j6ZJdgi0Himt477C30I4YVc/Jem/DYSIUIOvcGf3mmVKgwIe3nuRTpQw==","691f8ca61c6b4dcbb0aeb5f4","691fa9c34f29cac536eb24fb","index1","<span style='color:red'>Fail,<span style='color:red'>Fail,<span style='color:green'>Lift,<span style='color:green'>Lift,<span style='color:red'>Fail,<span style='color:red'>Fail,<span style='color:red'>Fail,<span style='color:red'>Fail,<span style='color:red'>Fail,<span style='color:green'>Lift,<span style='color:green'>Lift,<span style='color:red'>Fail","<span style='color:red'>Fail,<span style='color:red'>Fail,<span style='color:green'>Lift,<span style='color:green'>Lift,<span style='color:green'>Lift,<span style='color:green'>Lift,<span style='color:red'>Fail,<span style='color:green'>Lift,<span style='color:green'>Lift,<span style='color:green'>Lift,<span style='color:green'>Lift,<span style='color:red'>Fail","<span style='color:red'>Fail,<span style='color:green'>Lift,<span style='color:green'>Lift,<span style='color:red'>Fail,<span style='color:green'>Lift,<span style='color:green'>Lift","0,0,1,1,0,0,0,0,0,1,1,0","0,0,1,1,1,1,0,1,1,1,1,0","0,1,1,0,1,1",10,20,20,"","","","","{""box1"":""100""}","",NA,4,"round3_ready",4,4,3,NA,NA,NA,NA,NA,NA,NA,NA,NA,NA,NA,NA,NA,NA,100,100,NA,NA,NA,NA,NA,NA,NA,NA,NA,100,100,NA,NA,NA,NA,NA,NA,NA,NA,NA,"",NA,NA,NA,NA,NA,NA,NA,NA,2025-11-21 00:12:32
"12682.900000095367","https://psyc-201.github.io/xiang2023/exp/index1.html?PROLIFIC_PID=REDACTED&STUDY_ID=691f8ca61c6b4dcbb0aeb5f4&SESSION_ID=691fa9c34f29cac536eb24fb","survey-html-form",34,483165,"0.0-339.0-0.0","Of86UU+k2A3bg3Fiu0RQWt/DmXqyiVK4M+k1xAXACrs6wAvSDVRjONj7nUXlzSjwLCfFiZLQOjCKDc3TgWzDCrVxwFn8J0a9jcu/opCWhU15ZYUIxdpbKx/aVHhggud9Ng/XgcZeND6nhuUjuYPJVNy+FR/JHmcRaj2+IA17EHBiPavZYgR7nNlUMuQgJj8dxZiP2oSa7ZHlKi8igtCDPCLQenzn7B+zBbxnQvAFvWBCAXB/R3m3/cHKI43ujBA7lSsWv2YCjZgACVDVWUKomsCiX+qGq7j6ZJdgi0Himt477C30I4YVc/Jem/DYSIUIOvcGf3mmVKgwIe3nuRTpQw==","691f8ca61c6b4dcbb0aeb5f4","691fa9c34f29cac536eb24fb","index1","<span style='color:red'>Fail,<span style='color:red'>Fail,<span style='color:green'>Lift,<span style='color:green'>Lift,<span style='color:red'>Fail,<span style='color:red'>Fail,<span style='color:red'>Fail,<span style='color:red'>Fail,<span style='color:red'>Fail,<span style='color:green'>Lift,<span style='color:green'>Lift,<span style='color:red'>Fail","<span style='color:red'>Fail,<span style='color:red'>Fail,<span style='color:green'>Lift,<span style='color:green'>Lift,<span style='color:green'>Lift,<span style='color:green'>Lift,<span style='color:red'>Fail,<span style='color:green'>Lift,<span style='color:green'>Lift,<span style='color:green'>Lift,<span style='color:green'>Lift,<span style='color:red'>Fail","<span style='color:red'>Fail,<span style='color:green'>Lift,<span style='color:green'>Lift,<span style='color:red'>Fail,<span style='color:green'>Lift,<span style='color:green'>Lift","0,0,1,1,0,0,0,0,0,1,1,0","0,0,1,1,1,1,0,1,1,1,1,0","0,1,1,0,1,1",10,20,20,"","","","","{""box1"":""5"",""box2"":""10"",""box3"":""50"",""box4"":""35""}","",NA,5,"round3_lift",5,4,3,5,10,50,35,1,1,20,NA,NA,NA,NA,NA,NA,NA,NA,NA,NA,NA,NA,NA,NA,NA,NA,NA,NA,NA,NA,5,10,50,35,1,1,20,NA,NA,"",NA,NA,NA,NA,NA,NA,NA,NA,2025-11-21 00:12:32
"null","https://psyc-201.github.io/xiang2023/exp/index1.html?PROLIFIC_PID=REDACTED&STUDY_ID=691f8ca61c6b4dcbb0aeb5f4&SESSION_ID=691fa9c34f29cac536eb24fb","html-keyboard-response",35,486173,"0.0-343.0","Of86UU+k2A3bg3Fiu0RQWt/DmXqyiVK4M+k1xAXACrs6wAvSDVRjONj7nUXlzSjwLCfFiZLQOjCKDc3TgWzDCrVxwFn8J0a9jcu/opCWhU15ZYUIxdpbKx/aVHhggud9Ng/XgcZeND6nhuUjuYPJVNy+FR/JHmcRaj2+IA17EHBiPavZYgR7nNlUMuQgJj8dxZiP2oSa7ZHlKi8igtCDPCLQenzn7B+zBbxnQvAFvWBCAXB/R3m3/cHKI43ujBA7lSsWv2YCjZgACVDVWUKomsCiX+qGq7j6ZJdgi0Himt477C30I4YVc/Jem/DYSIUIOvcGf3mmVKgwIe3nuRTpQw==","691f8ca61c6b4dcbb0aeb5f4","691fa9c34f29cac536eb24fb","index1","<span style='color:red'>Fail,<span style='color:red'>Fail,<span style='color:green'>Lift,<span style='color:green'>Lift,<span style='color:red'>Fail,<span style='color:red'>Fail,<span style='color:red'>Fail,<span style='color:red'>Fail,<span style='color:red'>Fail,<span style='color:green'>Lift,<span style='color:green'>Lift,<span style='color:red'>Fail","<span style='color:red'>Fail,<span style='color:red'>Fail,<span style='color:green'>Lift,<span style='color:green'>Lift,<span style='color:green'>Lift,<span style='color:green'>Lift,<span style='color:red'>Fail,<span style='color:green'>Lift,<span style='color:green'>Lift,<span style='color:green'>Lift,<span style='color:green'>Lift,<span style='color:red'>Fail","<span style='color:red'>Fail,<span style='color:green'>Lift,<span style='color:green'>Lift,<span style='color:red'>Fail,<span style='color:green'>Lift,<span style='color:green'>Lift","0,0,1,1,0,0,0,0,0,1,1,0","0,0,1,1,1,1,0,1,1,1,1,0","0,1,1,0,1,1",10,20,20,"","","<p style='font-size:30px'><b> New Contest! </b></p>","null","","",NA,5,"",NA,NA,NA,NA,NA,NA,NA,NA,NA,NA,NA,NA,NA,NA,NA,NA,NA,NA,NA,NA,NA,NA,NA,NA,NA,NA,NA,NA,NA,NA,NA,NA,NA,NA,NA,NA,NA,NA,NA,"",NA,NA,NA,NA,NA,NA,NA,NA,2025-11-21 00:12:32
"4722.800000071526","https://psyc-201.github.io/xiang2023/exp/index1.html?PROLIFIC_PID=REDACTED&STUDY_ID=691f8ca61c6b4dcbb0aeb5f4&SESSION_ID=691fa9c34f29cac536eb24fb","survey-html-form",36,490897,"0.0-344.0","Of86UU+k2A3bg3Fiu0RQWt/DmXqyiVK4M+k1xAXACrs6wAvSDVRjONj7nUXlzSjwLCfFiZLQOjCKDc3TgWzDCrVxwFn8J0a9jcu/opCWhU15ZYUIxdpbKx/aVHhggud9Ng/XgcZeND6nhuUjuYPJVNy+FR/JHmcRaj2+IA17EHBiPavZYgR7nNlUMuQgJj8dxZiP2oSa7ZHlKi8igtCDPCLQenzn7B+zBbxnQvAFvWBCAXB/R3m3/cHKI43ujBA7lSsWv2YCjZgACVDVWUKomsCiX+qGq7j6ZJdgi0Himt477C30I4YVc/Jem/DYSIUIOvcGf3mmVKgwIe3nuRTpQw==","691f8ca61c6b4dcbb0aeb5f4","691fa9c34f29cac536eb24fb","index1","<span style='color:red'>Fail,<span style='color:red'>Fail,<span style='color:green'>Lift,<span style='color:green'>Lift,<span style='color:red'>Fail,<span style='color:red'>Fail,<span style='color:red'>Fail,<span style='color:red'>Fail,<span style='color:red'>Fail,<span style='color:green'>Lift,<span style='color:green'>Lift,<span style='color:red'>Fail","<span style='color:red'>Fail,<span style='color:red'>Fail,<span style='color:green'>Lift,<span style='color:green'>Lift,<span style='color:green'>Lift,<span style='color:green'>Lift,<span style='color:red'>Fail,<span style='color:green'>Lift,<span style='color:green'>Lift,<span style='color:green'>Lift,<span style='color:green'>Lift,<span style='color:red'>Fail","<span style='color:red'>Fail,<span style='color:green'>Lift,<span style='color:green'>Lift,<span style='color:red'>Fail,<span style='color:green'>Lift,<span style='color:green'>Lift","0,0,1,1,0,0,0,0,0,1,1,0","0,0,1,1,1,1,0,1,1,1,1,0","0,1,1,0,1,1",10,20,20,"","","","","{""box1"":""2"",""box2"":""2""}","",NA,5,"round1_outcome",1,5,1,2,2,NA,NA,0,0,10,2,2,NA,NA,0,0,10,NA,NA,NA,NA,NA,NA,NA,NA,NA,NA,NA,NA,NA,NA,NA,NA,NA,NA,NA,NA,NA,NA,"",NA,NA,NA,NA,NA,NA,NA,NA,2025-11-21 00:12:32
"9831","https://psyc-201.github.io/xiang2023/exp/index1.html?PROLIFIC_PID=REDACTED&STUDY_ID=691f8ca61c6b4dcbb0aeb5f4&SESSION_ID=691fa9c34f29cac536eb24fb","survey-html-form",37,500729,"0.0-345.0","Of86UU+k2A3bg3Fiu0RQWt/DmXqyiVK4M+k1xAXACrs6wAvSDVRjONj7nUXlzSjwLCfFiZLQOjCKDc3TgWzDCrVxwFn8J0a9jcu/opCWhU15ZYUIxdpbKx/aVHhggud9Ng/XgcZeND6nhuUjuYPJVNy+FR/JHmcRaj2+IA17EHBiPavZYgR7nNlUMuQgJj8dxZiP2oSa7ZHlKi8igtCDPCLQenzn7B+zBbxnQvAFvWBCAXB/R3m3/cHKI43ujBA7lSsWv2YCjZgACVDVWUKomsCiX+qGq7j6ZJdgi0Himt477C30I4YVc/Jem/DYSIUIOvcGf3mmVKgwIe3nuRTpQw==","691f8ca61c6b4dcbb0aeb5f4","691fa9c34f29cac536eb24fb","index1","<span style='color:red'>Fail,<span style='color:red'>Fail,<span style='color:green'>Lift,<span style='color:green'>Lift,<span style='color:red'>Fail,<span style='color:red'>Fail,<span style='color:red'>Fail,<span style='color:red'>Fail,<span style='color:red'>Fail,<span style='color:green'>Lift,<span style='color:green'>Lift,<span style='color:red'>Fail","<span style='color:red'>Fail,<span style='color:red'>Fail,<span style='color:green'>Lift,<span style='color:green'>Lift,<span style='color:green'>Lift,<span style='color:green'>Lift,<span style='color:red'>Fail,<span style='color:green'>Lift,<span style='color:green'>Lift,<span style='color:green'>Lift,<span style='color:green'>Lift,<span style='color:red'>Fail","<span style='color:red'>Fail,<span style='color:green'>Lift,<span style='color:green'>Lift,<span style='color:red'>Fail,<span style='color:green'>Lift,<span style='color:green'>Lift","0,0,1,1,0,0,0,0,0,1,1,0","0,0,1,1,1,1,0,1,1,1,1,0","0,1,1,0,1,1",10,20,20,"","","","","{""box1"":""30"",""box2"":""30""}","",NA,5,"round2_ready",2,5,2,NA,NA,NA,NA,NA,NA,NA,NA,NA,NA,NA,NA,NA,NA,30,30,30,30,NA,NA,NA,NA,NA,NA,NA,NA,NA,NA,NA,NA,NA,NA,NA,NA,NA,NA,"",NA,NA,NA,NA,NA,NA,NA,NA,2025-11-21 00:12:32
"16432.800000071526","https://psyc-201.github.io/xiang2023/exp/index1.html?PROLIFIC_PID=REDACTED&STUDY_ID=691f8ca61c6b4dcbb0aeb5f4&SESSION_ID=691fa9c34f29cac536eb24fb","survey-html-form",38,517163,"0.0-346.0","Of86UU+k2A3bg3Fiu0RQWt/DmXqyiVK4M+k1xAXACrs6wAvSDVRjONj7nUXlzSjwLCfFiZLQOjCKDc3TgWzDCrVxwFn8J0a9jcu/opCWhU15ZYUIxdpbKx/aVHhggud9Ng/XgcZeND6nhuUjuYPJVNy+FR/JHmcRaj2+IA17EHBiPavZYgR7nNlUMuQgJj8dxZiP2oSa7ZHlKi8igtCDPCLQenzn7B+zBbxnQvAFvWBCAXB/R3m3/cHKI43ujBA7lSsWv2YCjZgACVDVWUKomsCiX+qGq7j6ZJdgi0Himt477C30I4YVc/Jem/DYSIUIOvcGf3mmVKgwIe3nuRTpQw==","691f8ca61c6b4dcbb0aeb5f4","691fa9c34f29cac536eb24fb","index1","<span style='color:red'>Fail,<span style='color:red'>Fail,<span style='color:green'>Lift,<span style='color:green'>Lift,<span style='color:red'>Fail,<span style='color:red'>Fail,<span style='color:red'>Fail,<span style='color:red'>Fail,<span style='color:red'>Fail,<span style='color:green'>Lift,<span style='color:green'>Lift,<span style='color:red'>Fail","<span style='color:red'>Fail,<span style='color:red'>Fail,<span style='color:green'>Lift,<span style='color:green'>Lift,<span style='color:green'>Lift,<span style='color:green'>Lift,<span style='color:red'>Fail,<span style='color:green'>Lift,<span style='color:green'>Lift,<span style='color:green'>Lift,<span style='color:green'>Lift,<span style='color:red'>Fail","<span style='color:red'>Fail,<span style='color:green'>Lift,<span style='color:green'>Lift,<span style='color:red'>Fail,<span style='color:green'>Lift,<span style='color:green'>Lift","0,0,1,1,0,0,0,0,0,1,1,0","0,0,1,1,1,1,0,1,1,1,1,0","0,1,1,0,1,1",10,20,20,"","","","","{""box1"":""1"",""box2"":""5"",""box4"":""75""}","",NA,5,"round2_outcome",3,5,2,1,5,NA,75,0,1,20,NA,NA,NA,NA,NA,NA,NA,NA,NA,NA,NA,1,5,NA,75,0,1,20,NA,NA,NA,NA,NA,NA,NA,NA,NA,NA,NA,"",NA,NA,NA,NA,NA,NA,NA,NA,2025-11-21 00:12:32
"12792.799999952316","https://psyc-201.github.io/xiang2023/exp/index1.html?PROLIFIC_PID=REDACTED&STUDY_ID=691f8ca61c6b4dcbb0aeb5f4&SESSION_ID=691fa9c34f29cac536eb24fb","survey-html-form",39,529957,"0.0-347.0","Of86UU+k2A3bg3Fiu0RQWt/DmXqyiVK4M+k1xAXACrs6wAvSDVRjONj7nUXlzSjwLCfFiZLQOjCKDc3TgWzDCrVxwFn8J0a9jcu/opCWhU15ZYUIxdpbKx/aVHhggud9Ng/XgcZeND6nhuUjuYPJVNy+FR/JHmcRaj2+IA17EHBiPavZYgR7nNlUMuQgJj8dxZiP2oSa7ZHlKi8igtCDPCLQenzn7B+zBbxnQvAFvWBCAXB/R3m3/cHKI43ujBA7lSsWv2YCjZgACVDVWUKomsCiX+qGq7j6ZJdgi0Himt477C30I4YVc/Jem/DYSIUIOvcGf3mmVKgwIe3nuRTpQw==","691f8ca61c6b4dcbb0aeb5f4","691fa9c34f29cac536eb24fb","index1","<span style='color:red'>Fail,<span style='color:red'>Fail,<span style='color:green'>Lift,<span style='color:green'>Lift,<span style='color:red'>Fail,<span style='color:red'>Fail,<span style='color:red'>Fail,<span style='color:red'>Fail,<span style='color:red'>Fail,<span style='color:green'>Lift,<span style='color:green'>Lift,<span style='color:red'>Fail","<span style='color:red'>Fail,<span style='color:red'>Fail,<span style='color:green'>Lift,<span style='color:green'>Lift,<span style='color:green'>Lift,<span style='color:green'>Lift,<span style='color:red'>Fail,<span style='color:green'>Lift,<span style='color:green'>Lift,<span style='color:green'>Lift,<span style='color:green'>Lift,<span style='color:red'>Fail","<span style='color:red'>Fail,<span style='color:green'>Lift,<span style='color:green'>Lift,<span style='color:red'>Fail,<span style='color:green'>Lift,<span style='color:green'>Lift","0,0,1,1,0,0,0,0,0,1,1,0","0,0,1,1,1,1,0,1,1,1,1,0","0,1,1,0,1,1",10,20,20,"","","","","{""box1"":""85""}","",NA,5,"round3_ready",4,5,3,NA,NA,NA,NA,NA,NA,NA,NA,NA,NA,NA,NA,NA,NA,85,85,NA,NA,NA,NA,NA,NA,NA,NA,NA,85,85,NA,NA,NA,NA,NA,NA,NA,NA,NA,"",NA,NA,NA,NA,NA,NA,NA,NA,2025-11-21 00:12:32
"18850.899999976158","https://psyc-201.github.io/xiang2023/exp/index1.html?PROLIFIC_PID=REDACTED&STUDY_ID=691f8ca61c6b4dcbb0aeb5f4&SESSION_ID=691fa9c34f29cac536eb24fb","survey-html-form",40,548809,"0.0-349.0-0.0","Of86UU+k2A3bg3Fiu0RQWt/DmXqyiVK4M+k1xAXACrs6wAvSDVRjONj7nUXlzSjwLCfFiZLQOjCKDc3TgWzDCrVxwFn8J0a9jcu/opCWhU15ZYUIxdpbKx/aVHhggud9Ng/XgcZeND6nhuUjuYPJVNy+FR/JHmcRaj2+IA17EHBiPavZYgR7nNlUMuQgJj8dxZiP2oSa7ZHlKi8igtCDPCLQenzn7B+zBbxnQvAFvWBCAXB/R3m3/cHKI43ujBA7lSsWv2YCjZgACVDVWUKomsCiX+qGq7j6ZJdgi0Himt477C30I4YVc/Jem/DYSIUIOvcGf3mmVKgwIe3nuRTpQw==","691f8ca61c6b4dcbb0aeb5f4","691fa9c34f29cac536eb24fb","index1","<span style='color:red'>Fail,<span style='color:red'>Fail,<span style='color:green'>Lift,<span style='color:green'>Lift,<span style='color:red'>Fail,<span style='color:red'>Fail,<span style='color:red'>Fail,<span style='color:red'>Fail,<span style='color:red'>Fail,<span style='color:green'>Lift,<span style='color:green'>Lift,<span style='color:red'>Fail","<span style='color:red'>Fail,<span style='color:red'>Fail,<span style='color:green'>Lift,<span style='color:green'>Lift,<span style='color:green'>Lift,<span style='color:green'>Lift,<span style='color:red'>Fail,<span style='color:green'>Lift,<span style='color:green'>Lift,<span style='color:green'>Lift,<span style='color:green'>Lift,<span style='color:red'>Fail","<span style='color:red'>Fail,<span style='color:green'>Lift,<span style='color:green'>Lift,<span style='color:red'>Fail,<span style='color:green'>Lift,<span style='color:green'>Lift","0,0,1,1,0,0,0,0,0,1,1,0","0,0,1,1,1,1,0,1,1,1,1,0","0,1,1,0,1,1",10,20,20,"","","","","{""box1"":""1"",""box2"":""6"",""box3"":""999"",""box4"":""999""}","",NA,6,"round3_fail",5,5,3,1,6,NA,NA,0,0,20,NA,NA,NA,NA,NA,NA,NA,NA,NA,NA,NA,NA,NA,NA,NA,NA,NA,NA,NA,NA,1,6,NA,NA,0,0,20,1,1,"",NA,NA,NA,NA,NA,NA,NA,NA,2025-11-21 00:12:32
"null","https://psyc-201.github.io/xiang2023/exp/index1.html?PROLIFIC_PID=REDACTED&STUDY_ID=691f8ca61c6b4dcbb0aeb5f4&SESSION_ID=691fa9c34f29cac536eb24fb","html-keyboard-response",41,551812,"0.0-352.0","Of86UU+k2A3bg3Fiu0RQWt/DmXqyiVK4M+k1xAXACrs6wAvSDVRjONj7nUXlzSjwLCfFiZLQOjCKDc3TgWzDCrVxwFn8J0a9jcu/opCWhU15ZYUIxdpbKx/aVHhggud9Ng/XgcZeND6nhuUjuYPJVNy+FR/JHmcRaj2+IA17EHBiPavZYgR7nNlUMuQgJj8dxZiP2oSa7ZHlKi8igtCDPCLQenzn7B+zBbxnQvAFvWBCAXB/R3m3/cHKI43ujBA7lSsWv2YCjZgACVDVWUKomsCiX+qGq7j6ZJdgi0Himt477C30I4YVc/Jem/DYSIUIOvcGf3mmVKgwIe3nuRTpQw==","691f8ca61c6b4dcbb0aeb5f4","691fa9c34f29cac536eb24fb","index1","<span style='color:red'>Fail,<span style='color:red'>Fail,<span style='color:green'>Lift,<span style='color:green'>Lift,<span style='color:red'>Fail,<span style='color:red'>Fail,<span style='color:red'>Fail,<span style='color:red'>Fail,<span style='color:red'>Fail,<span style='color:green'>Lift,<span style='color:green'>Lift,<span style='color:red'>Fail","<span style='color:red'>Fail,<span style='color:red'>Fail,<span style='color:green'>Lift,<span style='color:green'>Lift,<span style='color:green'>Lift,<span style='color:green'>Lift,<span style='color:red'>Fail,<span style='color:green'>Lift,<span style='color:green'>Lift,<span style='color:green'>Lift,<span style='color:green'>Lift,<span style='color:red'>Fail","<span style='color:red'>Fail,<span style='color:green'>Lift,<span style='color:green'>Lift,<span style='color:red'>Fail,<span style='color:green'>Lift,<span style='color:green'>Lift","0,0,1,1,0,0,0,0,0,1,1,0","0,0,1,1,1,1,0,1,1,1,1,0","0,1,1,0,1,1",10,20,20,"","","<p style='font-size:30px'><b> New Contest! </b></p>","null","","",NA,6,"",NA,NA,NA,NA,NA,NA,NA,NA,NA,NA,NA,NA,NA,NA,NA,NA,NA,NA,NA,NA,NA,NA,NA,NA,NA,NA,NA,NA,NA,NA,NA,NA,NA,NA,NA,NA,NA,NA,NA,"",NA,NA,NA,NA,NA,NA,NA,NA,2025-11-21 00:12:32
"11090.600000023842","https://psyc-201.github.io/xiang2023/exp/index1.html?PROLIFIC_PID=REDACTED&STUDY_ID=691f8ca61c6b4dcbb0aeb5f4&SESSION_ID=691fa9c34f29cac536eb24fb","survey-html-form",42,562903,"0.0-353.0","Of86UU+k2A3bg3Fiu0RQWt/DmXqyiVK4M+k1xAXACrs6wAvSDVRjONj7nUXlzSjwLCfFiZLQOjCKDc3TgWzDCrVxwFn8J0a9jcu/opCWhU15ZYUIxdpbKx/aVHhggud9Ng/XgcZeND6nhuUjuYPJVNy+FR/JHmcRaj2+IA17EHBiPavZYgR7nNlUMuQgJj8dxZiP2oSa7ZHlKi8igtCDPCLQenzn7B+zBbxnQvAFvWBCAXB/R3m3/cHKI43ujBA7lSsWv2YCjZgACVDVWUKomsCiX+qGq7j6ZJdgi0Himt477C30I4YVc/Jem/DYSIUIOvcGf3mmVKgwIe3nuRTpQw==","691f8ca61c6b4dcbb0aeb5f4","691fa9c34f29cac536eb24fb","index1","<span style='color:red'>Fail,<span style='color:red'>Fail,<span style='color:green'>Lift,<span style='color:green'>Lift,<span style='color:red'>Fail,<span style='color:red'>Fail,<span style='color:red'>Fail,<span style='color:red'>Fail,<span style='color:red'>Fail,<span style='color:green'>Lift,<span style='color:green'>Lift,<span style='color:red'>Fail","<span style='color:red'>Fail,<span style='color:red'>Fail,<span style='color:green'>Lift,<span style='color:green'>Lift,<span style='color:green'>Lift,<span style='color:green'>Lift,<span style='color:red'>Fail,<span style='color:green'>Lift,<span style='color:green'>Lift,<span style='color:green'>Lift,<span style='color:green'>Lift,<span style='color:red'>Fail","<span style='color:red'>Fail,<span style='color:green'>Lift,<span style='color:green'>Lift,<span style='color:red'>Fail,<span style='color:green'>Lift,<span style='color:green'>Lift","0,0,1,1,0,0,0,0,0,1,1,0","0,0,1,1,1,1,0,1,1,1,1,0","0,1,1,0,1,1",10,20,20,"","","","","{""box1"":""8"",""box2"":""1"",""box3"":""50""}","",NA,6,"round1_outcome",1,6,1,8,1,50,NA,1,0,10,8,1,50,NA,1,0,10,NA,NA,NA,NA,NA,NA,NA,NA,NA,NA,NA,NA,NA,NA,NA,NA,NA,NA,NA,NA,NA,NA,"",NA,NA,NA,NA,NA,NA,NA,NA,2025-11-21 00:12:32
"16142.599999904633","https://psyc-201.github.io/xiang2023/exp/index1.html?PROLIFIC_PID=REDACTED&STUDY_ID=691f8ca61c6b4dcbb0aeb5f4&SESSION_ID=691fa9c34f29cac536eb24fb","survey-html-form",43,579047,"0.0-354.0","Of86UU+k2A3bg3Fiu0RQWt/DmXqyiVK4M+k1xAXACrs6wAvSDVRjONj7nUXlzSjwLCfFiZLQOjCKDc3TgWzDCrVxwFn8J0a9jcu/opCWhU15ZYUIxdpbKx/aVHhggud9Ng/XgcZeND6nhuUjuYPJVNy+FR/JHmcRaj2+IA17EHBiPavZYgR7nNlUMuQgJj8dxZiP2oSa7ZHlKi8igtCDPCLQenzn7B+zBbxnQvAFvWBCAXB/R3m3/cHKI43ujBA7lSsWv2YCjZgACVDVWUKomsCiX+qGq7j6ZJdgi0Himt477C30I4YVc/Jem/DYSIUIOvcGf3mmVKgwIe3nuRTpQw==","691f8ca61c6b4dcbb0aeb5f4","691fa9c34f29cac536eb24fb","index1","<span style='color:red'>Fail,<span style='color:red'>Fail,<span style='color:green'>Lift,<span style='color:green'>Lift,<span style='color:red'>Fail,<span style='color:red'>Fail,<span style='color:red'>Fail,<span style='color:red'>Fail,<span style='color:red'>Fail,<span style='color:green'>Lift,<span style='color:green'>Lift,<span style='color:red'>Fail","<span style='color:red'>Fail,<span style='color:red'>Fail,<span style='color:green'>Lift,<span style='color:green'>Lift,<span style='color:green'>Lift,<span style='color:green'>Lift,<span style='color:red'>Fail,<span style='color:green'>Lift,<span style='color:green'>Lift,<span style='color:green'>Lift,<span style='color:green'>Lift,<span style='color:red'>Fail","<span style='color:red'>Fail,<span style='color:green'>Lift,<span style='color:green'>Lift,<span style='color:red'>Fail,<span style='color:green'>Lift,<span style='color:green'>Lift","0,0,1,1,0,0,0,0,0,1,1,0","0,0,1,1,1,1,0,1,1,1,1,0","0,1,1,0,1,1",10,20,20,"","","","","{""box1"":""75"",""box2"":""25""}","",NA,6,"round2_ready",2,6,2,NA,NA,NA,NA,NA,NA,NA,NA,NA,NA,NA,NA,NA,NA,75,25,75,25,NA,NA,NA,NA,NA,NA,NA,NA,NA,NA,NA,NA,NA,NA,NA,NA,NA,NA,"",NA,NA,NA,NA,NA,NA,NA,NA,2025-11-21 00:12:32
"17985.100000023842","https://psyc-201.github.io/xiang2023/exp/index1.html?PROLIFIC_PID=REDACTED&STUDY_ID=691f8ca61c6b4dcbb0aeb5f4&SESSION_ID=691fa9c34f29cac536eb24fb","survey-html-form",44,597033,"0.0-355.0","Of86UU+k2A3bg3Fiu0RQWt/DmXqyiVK4M+k1xAXACrs6wAvSDVRjONj7nUXlzSjwLCfFiZLQOjCKDc3TgWzDCrVxwFn8J0a9jcu/opCWhU15ZYUIxdpbKx/aVHhggud9Ng/XgcZeND6nhuUjuYPJVNy+FR/JHmcRaj2+IA17EHBiPavZYgR7nNlUMuQgJj8dxZiP2oSa7ZHlKi8igtCDPCLQenzn7B+zBbxnQvAFvWBCAXB/R3m3/cHKI43ujBA7lSsWv2YCjZgACVDVWUKomsCiX+qGq7j6ZJdgi0Himt477C30I4YVc/Jem/DYSIUIOvcGf3mmVKgwIe3nuRTpQw==","691f8ca61c6b4dcbb0aeb5f4","691fa9c34f29cac536eb24fb","index1","<span style='color:red'>Fail,<span style='color:red'>Fail,<span style='color:green'>Lift,<span style='color:green'>Lift,<span style='color:red'>Fail,<span style='color:red'>Fail,<span style='color:red'>Fail,<span style='color:red'>Fail,<span style='color:red'>Fail,<span style='color:green'>Lift,<span style='color:green'>Lift,<span style='color:red'>Fail","<span style='color:red'>Fail,<span style='color:red'>Fail,<span style='color:green'>Lift,<span style='color:green'>Lift,<span style='color:green'>Lift,<span style='color:green'>Lift,<span style='color:red'>Fail,<span style='color:green'>Lift,<span style='color:green'>Lift,<span style='color:green'>Lift,<span style='color:green'>Lift,<span style='color:red'>Fail","<span style='color:red'>Fail,<span style='color:green'>Lift,<span style='color:green'>Lift,<span style='color:red'>Fail,<span style='color:green'>Lift,<span style='color:green'>Lift","0,0,1,1,0,0,0,0,0,1,1,0","0,0,1,1,1,1,0,1,1,1,1,0","0,1,1,0,1,1",10,20,20,"","","","","{""box1"":""10"",""box2"":""1"",""box3"":""65""}","",NA,6,"round2_outcome",3,6,2,10,1,65,NA,1,0,20,NA,NA,NA,NA,NA,NA,NA,NA,NA,NA,NA,10,1,65,NA,1,0,20,NA,NA,NA,NA,NA,NA,NA,NA,NA,NA,NA,"",NA,NA,NA,NA,NA,NA,NA,NA,2025-11-21 00:12:32
"5192.700000047684","https://psyc-201.github.io/xiang2023/exp/index1.html?PROLIFIC_PID=REDACTED&STUDY_ID=691f8ca61c6b4dcbb0aeb5f4&SESSION_ID=691fa9c34f29cac536eb24fb","survey-html-form",45,602227,"0.0-356.0","Of86UU+k2A3bg3Fiu0RQWt/DmXqyiVK4M+k1xAXACrs6wAvSDVRjONj7nUXlzSjwLCfFiZLQOjCKDc3TgWzDCrVxwFn8J0a9jcu/opCWhU15ZYUIxdpbKx/aVHhggud9Ng/XgcZeND6nhuUjuYPJVNy+FR/JHmcRaj2+IA17EHBiPavZYgR7nNlUMuQgJj8dxZiP2oSa7ZHlKi8igtCDPCLQenzn7B+zBbxnQvAFvWBCAXB/R3m3/cHKI43ujBA7lSsWv2YCjZgACVDVWUKomsCiX+qGq7j6ZJdgi0Himt477C30I4YVc/Jem/DYSIUIOvcGf3mmVKgwIe3nuRTpQw==","691f8ca61c6b4dcbb0aeb5f4","691fa9c34f29cac536eb24fb","index1","<span style='color:red'>Fail,<span style='color:red'>Fail,<span style='color:green'>Lift,<span style='color:green'>Lift,<span style='color:red'>Fail,<span style='color:red'>Fail,<span style='color:red'>Fail,<span style='color:red'>Fail,<span style='color:red'>Fail,<span style='color:green'>Lift,<span style='color:green'>Lift,<span style='color:red'>Fail","<span style='color:red'>Fail,<span style='color:red'>Fail,<span style='color:green'>Lift,<span style='color:green'>Lift,<span style='color:green'>Lift,<span style='color:green'>Lift,<span style='color:red'>Fail,<span style='color:green'>Lift,<span style='color:green'>Lift,<span style='color:green'>Lift,<span style='color:green'>Lift,<span style='color:red'>Fail","<span style='color:red'>Fail,<span style='color:green'>Lift,<span style='color:green'>Lift,<span style='color:red'>Fail,<span style='color:green'>Lift,<span style='color:green'>Lift","0,0,1,1,0,0,0,0,0,1,1,0","0,0,1,1,1,1,0,1,1,1,1,0","0,1,1,0,1,1",10,20,20,"","","","","{""box1"":""85""}","",NA,6,"round3_ready",4,6,3,NA,NA,NA,NA,NA,NA,NA,NA,NA,NA,NA,NA,NA,NA,85,85,NA,NA,NA,NA,NA,NA,NA,NA,NA,85,85,NA,NA,NA,NA,NA,NA,NA,NA,NA,"",NA,NA,NA,NA,NA,NA,NA,NA,2025-11-21 00:12:32
"20923.100000023842","https://psyc-201.github.io/xiang2023/exp/index1.html?PROLIFIC_PID=REDACTED&STUDY_ID=691f8ca61c6b4dcbb0aeb5f4&SESSION_ID=691fa9c34f29cac536eb24fb","survey-html-form",46,623151,"0.0-357.0-0.0","Of86UU+k2A3bg3Fiu0RQWt/DmXqyiVK4M+k1xAXACrs6wAvSDVRjONj7nUXlzSjwLCfFiZLQOjCKDc3TgWzDCrVxwFn8J0a9jcu/opCWhU15ZYUIxdpbKx/aVHhggud9Ng/XgcZeND6nhuUjuYPJVNy+FR/JHmcRaj2+IA17EHBiPavZYgR7nNlUMuQgJj8dxZiP2oSa7ZHlKi8igtCDPCLQenzn7B+zBbxnQvAFvWBCAXB/R3m3/cHKI43ujBA7lSsWv2YCjZgACVDVWUKomsCiX+qGq7j6ZJdgi0Himt477C30I4YVc/Jem/DYSIUIOvcGf3mmVKgwIe3nuRTpQw==","691f8ca61c6b4dcbb0aeb5f4","691fa9c34f29cac536eb24fb","index1","<span style='color:red'>Fail,<span style='color:red'>Fail,<span style='color:green'>Lift,<span style='color:green'>Lift,<span style='color:red'>Fail,<span style='color:red'>Fail,<span style='color:red'>Fail,<span style='color:red'>Fail,<span style='color:red'>Fail,<span style='color:green'>Lift,<span style='color:green'>Lift,<span style='color:red'>Fail","<span style='color:red'>Fail,<span style='color:red'>Fail,<span style='color:green'>Lift,<span style='color:green'>Lift,<span style='color:green'>Lift,<span style='color:green'>Lift,<span style='color:red'>Fail,<span style='color:green'>Lift,<span style='color:green'>Lift,<span style='color:green'>Lift,<span style='color:green'>Lift,<span style='color:red'>Fail","<span style='color:red'>Fail,<span style='color:green'>Lift,<span style='color:green'>Lift,<span style='color:red'>Fail,<span style='color:green'>Lift,<span style='color:green'>Lift","0,0,1,1,0,0,0,0,0,1,1,0","0,0,1,1,1,1,0,1,1,1,1,0","0,1,1,0,1,1",10,20,20,"","","","","{""box1"":""10"",""box2"":""2"",""box3"":""90"",""box4"":""10""}","",NA,6,"round3_lift",5,6,3,10,2,90,10,1,1,20,NA,NA,NA,NA,NA,NA,NA,NA,NA,NA,NA,NA,NA,NA,NA,NA,NA,NA,NA,NA,10,2,90,10,1,1,20,NA,NA,"",NA,NA,NA,NA,NA,NA,NA,NA,2025-11-21 00:12:32
"27709.800000071526","https://psyc-201.github.io/xiang2023/exp/index1.html?PROLIFIC_PID=REDACTED&STUDY_ID=691f8ca61c6b4dcbb0aeb5f4&SESSION_ID=691fa9c34f29cac536eb24fb","survey-text",47,650863,"0.0-361.0","Of86UU+k2A3bg3Fiu0RQWt/DmXqyiVK4M+k1xAXACrs6wAvSDVRjONj7nUXlzSjwLCfFiZLQOjCKDc3TgWzDCrVxwFn8J0a9jcu/opCWhU15ZYUIxdpbKx/aVHhggud9Ng/XgcZeND6nhuUjuYPJVNy+FR/JHmcRaj2+IA17EHBiPavZYgR7nNlUMuQgJj8dxZiP2oSa7ZHlKi8igtCDPCLQenzn7B+zBbxnQvAFvWBCAXB/R3m3/cHKI43ujBA7lSsWv2YCjZgACVDVWUKomsCiX+qGq7j6ZJdgi0Himt477C30I4YVc/Jem/DYSIUIOvcGf3mmVKgwIe3nuRTpQw==","691f8ca61c6b4dcbb0aeb5f4","691fa9c34f29cac536eb24fb","index1","<span style='color:red'>Fail,<span style='color:red'>Fail,<span style='color:green'>Lift,<span style='color:green'>Lift,<span style='color:red'>Fail,<span style='color:red'>Fail,<span style='color:red'>Fail,<span style='color:red'>Fail,<span style='color:red'>Fail,<span style='color:green'>Lift,<span style='color:green'>Lift,<span style='color:red'>Fail","<span style='color:red'>Fail,<span style='color:red'>Fail,<span style='color:green'>Lift,<span style='color:green'>Lift,<span style='color:green'>Lift,<span style='color:green'>Lift,<span style='color:red'>Fail,<span style='color:green'>Lift,<span style='color:green'>Lift,<span style='color:green'>Lift,<span style='color:green'>Lift,<span style='color:red'>Fail","<span style='color:red'>Fail,<span style='color:green'>Lift,<span style='color:green'>Lift,<span style='color:red'>Fail,<span style='color:green'>Lift,<span style='color:green'>Lift","0,0,1,1,0,0,0,0,0,1,1,0","0,0,1,1,1,1,0,1,1,1,1,0","0,1,1,0,1,1",10,20,20,"","","","","{""Q0"":""I did a task where I attempted to predict lifting outcomes based on certain factors.""}","",NA,NA,"",NA,NA,NA,NA,NA,NA,NA,NA,NA,NA,NA,NA,NA,NA,NA,NA,NA,NA,NA,NA,NA,NA,NA,NA,NA,NA,NA,NA,NA,NA,NA,NA,NA,NA,NA,NA,NA,NA,NA,"",NA,NA,NA,NA,NA,NA,NA,NA,2025-11-21 00:12:32
"9422.200000047684","https://psyc-201.github.io/xiang2023/exp/index1.html?PROLIFIC_PID=REDACTED&STUDY_ID=691f8ca61c6b4dcbb0aeb5f4&SESSION_ID=691fa9c34f29cac536eb24fb","survey-text",48,660287,"0.0-362.0","Of86UU+k2A3bg3Fiu0RQWt/DmXqyiVK4M+k1xAXACrs6wAvSDVRjONj7nUXlzSjwLCfFiZLQOjCKDc3TgWzDCrVxwFn8J0a9jcu/opCWhU15ZYUIxdpbKx/aVHhggud9Ng/XgcZeND6nhuUjuYPJVNy+FR/JHmcRaj2+IA17EHBiPavZYgR7nNlUMuQgJj8dxZiP2oSa7ZHlKi8igtCDPCLQenzn7B+zBbxnQvAFvWBCAXB/R3m3/cHKI43ujBA7lSsWv2YCjZgACVDVWUKomsCiX+qGq7j6ZJdgi0Himt477C30I4YVc/Jem/DYSIUIOvcGf3mmVKgwIe3nuRTpQw==","691f8ca61c6b4dcbb0aeb5f4","691fa9c34f29cac536eb24fb","index1","<span style='color:red'>Fail,<span style='color:red'>Fail,<span style='color:green'>Lift,<span style='color:green'>Lift,<span style='color:red'>Fail,<span style='color:red'>Fail,<span style='color:red'>Fail,<span style='color:red'>Fail,<span style='color:red'>Fail,<span style='color:green'>Lift,<span style='color:green'>Lift,<span style='color:red'>Fail","<span style='color:red'>Fail,<span style='color:red'>Fail,<span style='color:green'>Lift,<span style='color:green'>Lift,<span style='color:green'>Lift,<span style='color:green'>Lift,<span style='color:red'>Fail,<span style='color:green'>Lift,<span style='color:green'>Lift,<span style='color:green'>Lift,<span style='color:green'>Lift,<span style='color:red'>Fail","<span style='color:red'>Fail,<span style='color:green'>Lift,<span style='color:green'>Lift,<span style='color:red'>Fail,<span style='color:green'>Lift,<span style='color:green'>Lift","0,0,1,1,0,0,0,0,0,1,1,0","0,0,1,1,1,1,0,1,1,1,1,0","0,1,1,0,1,1",10,20,20,"","","","","{""Q0"":""N/A""}","",NA,NA,"",NA,NA,NA,NA,NA,NA,NA,NA,NA,NA,NA,NA,NA,NA,NA,NA,NA,NA,NA,NA,NA,NA,NA,NA,NA,NA,NA,NA,NA,NA,NA,NA,NA,NA,NA,NA,NA,NA,NA,"[{""event"":""fullscreenenter"",""trial"":1,""time"":12748}]",6,2,1,25,0,0.75,NA,NA,2025-11-21 00:12:32
"11920.5","https://psyc-201.github.io/xiang2023/exp/index1.html?PROLIFIC_PID=REDACTED&STUDY_ID=691f8ca61c6b4dcbb0aeb5f4&SESSION_ID=691fa9c34f29cac536eb24fb","html-button-response",49,672209,"0.0-363.0","Of86UU+k2A3bg3Fiu0RQWt/DmXqyiVK4M+k1xAXACrs6wAvSDVRjONj7nUXlzSjwLCfFiZLQOjCKDc3TgWzDCrVxwFn8J0a9jcu/opCWhU15ZYUIxdpbKx/aVHhggud9Ng/XgcZeND6nhuUjuYPJVNy+FR/JHmcRaj2+IA17EHBiPavZYgR7nNlUMuQgJj8dxZiP2oSa7ZHlKi8igtCDPCLQenzn7B+zBbxnQvAFvWBCAXB/R3m3/cHKI43ujBA7lSsWv2YCjZgACVDVWUKomsCiX+qGq7j6ZJdgi0Himt477C30I4YVc/Jem/DYSIUIOvcGf3mmVKgwIe3nuRTpQw==","691f8ca61c6b4dcbb0aeb5f4","691fa9c34f29cac536eb24fb","index1","<span style='color:red'>Fail,<span style='color:red'>Fail,<span style='color:green'>Lift,<span style='color:green'>Lift,<span style='color:red'>Fail,<span style='color:red'>Fail,<span style='color:red'>Fail,<span style='color:red'>Fail,<span style='color:red'>Fail,<span style='color:green'>Lift,<span style='color:green'>Lift,<span style='color:red'>Fail","<span style='color:red'>Fail,<span style='color:red'>Fail,<span style='color:green'>Lift,<span style='color:green'>Lift,<span style='color:green'>Lift,<span style='color:green'>Lift,<span style='color:red'>Fail,<span style='color:green'>Lift,<span style='color:green'>Lift,<span style='color:green'>Lift,<span style='color:green'>Lift,<span style='color:red'>Fail","<span style='color:red'>Fail,<span style='color:green'>Lift,<span style='color:green'>Lift,<span style='color:red'>Fail,<span style='color:green'>Lift,<span style='color:green'>Lift","0,0,1,1,0,0,0,0,0,1,1,0","0,0,1,1,1,1,0,1,1,1,1,0","0,1,1,0,1,1",10,20,20,"","","<p> We randomly picked <b>Contest 6, Round 2</b> to calculate your bonus. </p><p> The outcome of Contestant L on that round is <span style='color:red'>Fail</span>. </p><p> The probability you entered was 25. </p><p><b> You won a bonus of $0.75!</b></p><p> IMPORTANT: Please click 'Next' to complete the game.</p>","","","",0,NA,"",NA,NA,NA,NA,NA,NA,NA,NA,NA,NA,NA,NA,NA,NA,NA,NA,NA,NA,NA,NA,NA,NA,NA,NA,NA,NA,NA,NA,NA,NA,NA,NA,NA,NA,NA,NA,NA,NA,NA,"",NA,NA,NA,NA,NA,NA,2,1,2025-11-21 00:12:32
