"rt","url","trial_type","trial_index","time_elapsed","internal_node_id","encryptedProlificId","studyId","sessionId","expIndex","round1_outcomes","round2_outcomes","round3_outcomes","round1_o","round2_o","round3_o","round1_reward","round2_reward","round3_reward","success","view_history","stimulus","key_press","responses","question_order","button_pressed","j","Stage","stage","contest","round","strength_a","strength_b","effort_a","effort_b","outcome_a","outcome_b","reward","r1_strength_a","r1_strength_b","r1_effort_a","r1_effort_b","r1_outcome_a","r1_outcome_b","r1_reward","probability_a","probability_b","r2_prob_a","r2_prob_b","r2_strength_a","r2_strength_b","r2_effort_a","r2_effort_b","r2_outcome_a","r2_outcome_b","r2_reward","r3_prob_a","r3_prob_b","r3_strength_a","r3_strength_b","r3_effort_a","r3_effort_b","r3_outcome_a","r3_outcome_b","r3_reward","attention_check","count","screen","pick_contest","pick_round","pick_side","trial_probability","trial_outcome","bonus","attention_sum","attention","datapipe_meta.attributes.date_modified"
"30570.09999999404","https://psyc-201.github.io/xiang2023/exp/index1.html?PROLIFIC_PID=REDACTED&STUDY_ID=691f8ca61c6b4dcbb0aeb5f4&SESSION_ID=691f9d3853960b2144461833","external-html",0,30636,"0.0-0.0","H3rJAP/djuEwslz7I3IbBhmWCcZoEXHVuzV4OmVxMQhtxXnmTcYXfhEHrtwdDjgWdhEz3d5s0Cd6mQKSbl8EPC0o676sFMbyg32qyGkLG/D7II/SctGsRQH7n2nvVtEuqmvNF00XkgmICyaeqZxE+3OWc3ZYXkFMMuarD8EfbIubMuqGUs+IKqY/rzHk/8I6cefCUr4mj5wj1jP7isWhON9uh79ws8L/Br4J0TsQgsOovvYcT47iauB+zxf13v4TTP3k/W8oyBdaF/TWfzA9SFC4OywqznAEwhknuVh6AomtiaCUHZD/CGBwjJQFQ4WpiZQHZwE7If1YcgVzsinyyw==","691f8ca61c6b4dcbb0aeb5f4","691f9d3853960b2144461833","index1","<span style='color:red'>Fail,<span style='color:red'>Fail,<span style='color:green'>Lift,<span style='color:green'>Lift,<span style='color:red'>Fail,<span style='color:red'>Fail,<span style='color:red'>Fail,<span style='color:red'>Fail,<span style='color:green'>Lift,<span style='color:red'>Fail,<span style='color:green'>Lift,<span style='color:red'>Fail","<span style='color:red'>Fail,<span style='color:red'>Fail,<span style='color:green'>Lift,<span style='color:green'>Lift,<span style='color:green'>Lift,<span style='color:green'>Lift,<span style='color:red'>Fail,<span style='color:green'>Lift,<span style='color:green'>Lift,<span style='color:green'>Lift,<span style='color:green'>Lift,<span style='color:red'>Fail","<span style='color:red'>Fail,<span style='color:green'>Lift,<span style='color:green'>Lift,<span style='color:red'>Fail,<span style='color:green'>Lift,<span style='color:green'>Lift","0,0,1,1,0,0,0,0,1,0,1,0","0,0,1,1,1,1,0,1,1,1,1,0","0,1,1,0,1,1",10,20,20,"","","","","","",NA,NA,"",NA,NA,NA,NA,NA,NA,NA,NA,NA,NA,NA,NA,NA,NA,NA,NA,NA,NA,NA,NA,NA,NA,NA,NA,NA,NA,NA,NA,NA,NA,NA,NA,NA,NA,NA,NA,NA,NA,NA,"",NA,NA,NA,NA,NA,NA,NA,NA,2025-11-20 23:18:11
"","https://psyc-201.github.io/xiang2023/exp/index1.html?PROLIFIC_PID=REDACTED&STUDY_ID=691f8ca61c6b4dcbb0aeb5f4&SESSION_ID=691f9d3853960b2144461833","fullscreen",1,46350,"0.0-1.0","H3rJAP/djuEwslz7I3IbBhmWCcZoEXHVuzV4OmVxMQhtxXnmTcYXfhEHrtwdDjgWdhEz3d5s0Cd6mQKSbl8EPC0o676sFMbyg32qyGkLG/D7II/SctGsRQH7n2nvVtEuqmvNF00XkgmICyaeqZxE+3OWc3ZYXkFMMuarD8EfbIubMuqGUs+IKqY/rzHk/8I6cefCUr4mj5wj1jP7isWhON9uh79ws8L/Br4J0TsQgsOovvYcT47iauB+zxf13v4TTP3k/W8oyBdaF/TWfzA9SFC4OywqznAEwhknuVh6AomtiaCUHZD/CGBwjJQFQ4WpiZQHZwE7If1YcgVzsinyyw==","691f8ca61c6b4dcbb0aeb5f4","691f9d3853960b2144461833","index1","<span style='color:red'>Fail,<span style='color:red'>Fail,<span style='color:green'>Lift,<span style='color:green'>Lift,<span style='color:red'>Fail,<span style='color:red'>Fail,<span style='color:red'>Fail,<span style='color:red'>Fail,<span style='color:green'>Lift,<span style='color:red'>Fail,<span style='color:green'>Lift,<span style='color:red'>Fail","<span style='color:red'>Fail,<span style='color:red'>Fail,<span style='color:green'>Lift,<span style='color:green'>Lift,<span style='color:green'>Lift,<span style='color:green'>Lift,<span style='color:red'>Fail,<span style='color:green'>Lift,<span style='color:green'>Lift,<span style='color:green'>Lift,<span style='color:green'>Lift,<span style='color:red'>Fail","<span style='color:red'>Fail,<span style='color:green'>Lift,<span style='color:green'>Lift,<span style='color:red'>Fail,<span style='color:green'>Lift,<span style='color:green'>Lift","0,0,1,1,0,0,0,0,1,0,1,0","0,0,1,1,1,1,0,1,1,1,1,0","0,1,1,0,1,1",10,20,20,"true","","","","","",NA,NA,"",NA,NA,NA,NA,NA,NA,NA,NA,NA,NA,NA,NA,NA,NA,NA,NA,NA,NA,NA,NA,NA,NA,NA,NA,NA,NA,NA,NA,NA,NA,NA,NA,NA,NA,NA,NA,NA,NA,NA,"",NA,NA,NA,NA,NA,NA,NA,NA,2025-11-20 23:18:11
"160423.59999999404","https://psyc-201.github.io/xiang2023/exp/index1.html?PROLIFIC_PID=REDACTED&STUDY_ID=691f8ca61c6b4dcbb0aeb5f4&SESSION_ID=691f9d3853960b2144461833","instructions",2,206774,"0.0-2.0","H3rJAP/djuEwslz7I3IbBhmWCcZoEXHVuzV4OmVxMQhtxXnmTcYXfhEHrtwdDjgWdhEz3d5s0Cd6mQKSbl8EPC0o676sFMbyg32qyGkLG/D7II/SctGsRQH7n2nvVtEuqmvNF00XkgmICyaeqZxE+3OWc3ZYXkFMMuarD8EfbIubMuqGUs+IKqY/rzHk/8I6cefCUr4mj5wj1jP7isWhON9uh79ws8L/Br4J0TsQgsOovvYcT47iauB+zxf13v4TTP3k/W8oyBdaF/TWfzA9SFC4OywqznAEwhknuVh6AomtiaCUHZD/CGBwjJQFQ4WpiZQHZwE7If1YcgVzsinyyw==","691f8ca61c6b4dcbb0aeb5f4","691f9d3853960b2144461833","index1","<span style='color:red'>Fail,<span style='color:red'>Fail,<span style='color:green'>Lift,<span style='color:green'>Lift,<span style='color:red'>Fail,<span style='color:red'>Fail,<span style='color:red'>Fail,<span style='color:red'>Fail,<span style='color:green'>Lift,<span style='color:red'>Fail,<span style='color:green'>Lift,<span style='color:red'>Fail","<span style='color:red'>Fail,<span style='color:red'>Fail,<span style='color:green'>Lift,<span style='color:green'>Lift,<span style='color:green'>Lift,<span style='color:green'>Lift,<span style='color:red'>Fail,<span style='color:green'>Lift,<span style='color:green'>Lift,<span style='color:green'>Lift,<span style='color:green'>Lift,<span style='color:red'>Fail","<span style='color:red'>Fail,<span style='color:green'>Lift,<span style='color:green'>Lift,<span style='color:red'>Fail,<span style='color:green'>Lift,<span style='color:green'>Lift","0,0,1,1,0,0,0,0,1,0,1,0","0,0,1,1,1,1,0,1,1,1,1,0","0,1,1,0,1,1",10,20,20,"","[{""page_index"":0,""viewing_time"":26981.59999999404},{""page_index"":1,""viewing_time"":33808.80000001192},{""page_index"":2,""viewing_time"":16543.79999998212},{""page_index"":3,""viewing_time"":27352.5},{""page_index"":4,""viewing_time"":14672.300000011921},{""page_index"":5,""viewing_time"":24215.90000000596},{""page_index"":6,""viewing_time"":16848.399999976158}]","","","","",NA,NA,"",NA,NA,NA,NA,NA,NA,NA,NA,NA,NA,NA,NA,NA,NA,NA,NA,NA,NA,NA,NA,NA,NA,NA,NA,NA,NA,NA,NA,NA,NA,NA,NA,NA,NA,NA,NA,NA,NA,NA,"",NA,NA,NA,NA,NA,NA,NA,NA,2025-11-20 23:18:11
"null","https://psyc-201.github.io/xiang2023/exp/index1.html?PROLIFIC_PID=REDACTED&STUDY_ID=691f8ca61c6b4dcbb0aeb5f4&SESSION_ID=691f9d3853960b2144461833","html-keyboard-response",3,207787,"0.0-3.0","H3rJAP/djuEwslz7I3IbBhmWCcZoEXHVuzV4OmVxMQhtxXnmTcYXfhEHrtwdDjgWdhEz3d5s0Cd6mQKSbl8EPC0o676sFMbyg32qyGkLG/D7II/SctGsRQH7n2nvVtEuqmvNF00XkgmICyaeqZxE+3OWc3ZYXkFMMuarD8EfbIubMuqGUs+IKqY/rzHk/8I6cefCUr4mj5wj1jP7isWhON9uh79ws8L/Br4J0TsQgsOovvYcT47iauB+zxf13v4TTP3k/W8oyBdaF/TWfzA9SFC4OywqznAEwhknuVh6AomtiaCUHZD/CGBwjJQFQ4WpiZQHZwE7If1YcgVzsinyyw==","691f8ca61c6b4dcbb0aeb5f4","691f9d3853960b2144461833","index1","<span style='color:red'>Fail,<span style='color:red'>Fail,<span style='color:green'>Lift,<span style='color:green'>Lift,<span style='color:red'>Fail,<span style='color:red'>Fail,<span style='color:red'>Fail,<span style='color:red'>Fail,<span style='color:green'>Lift,<span style='color:red'>Fail,<span style='color:green'>Lift,<span style='color:red'>Fail","<span style='color:red'>Fail,<span style='color:red'>Fail,<span style='color:green'>Lift,<span style='color:green'>Lift,<span style='color:green'>Lift,<span style='color:green'>Lift,<span style='color:red'>Fail,<span style='color:green'>Lift,<span style='color:green'>Lift,<span style='color:green'>Lift,<span style='color:green'>Lift,<span style='color:red'>Fail","<span style='color:red'>Fail,<span style='color:green'>Lift,<span style='color:green'>Lift,<span style='color:red'>Fail,<span style='color:green'>Lift,<span style='color:green'>Lift","0,0,1,1,0,0,0,0,1,0,1,0","0,0,1,1,1,1,0,1,1,1,1,0","0,1,1,0,1,1",10,20,20,"",""," ","null","","",NA,NA,"",NA,NA,NA,NA,NA,NA,NA,NA,NA,NA,NA,NA,NA,NA,NA,NA,NA,NA,NA,NA,NA,NA,NA,NA,NA,NA,NA,NA,NA,NA,NA,NA,NA,NA,NA,NA,NA,NA,NA,"",NA,NA,NA,NA,NA,NA,NA,NA,2025-11-20 23:18:11
"102172.90000000596","https://psyc-201.github.io/xiang2023/exp/index1.html?PROLIFIC_PID=REDACTED&STUDY_ID=691f8ca61c6b4dcbb0aeb5f4&SESSION_ID=691f9d3853960b2144461833","survey-multi-choice",4,309961,"0.0-4.0","H3rJAP/djuEwslz7I3IbBhmWCcZoEXHVuzV4OmVxMQhtxXnmTcYXfhEHrtwdDjgWdhEz3d5s0Cd6mQKSbl8EPC0o676sFMbyg32qyGkLG/D7II/SctGsRQH7n2nvVtEuqmvNF00XkgmICyaeqZxE+3OWc3ZYXkFMMuarD8EfbIubMuqGUs+IKqY/rzHk/8I6cefCUr4mj5wj1jP7isWhON9uh79ws8L/Br4J0TsQgsOovvYcT47iauB+zxf13v4TTP3k/W8oyBdaF/TWfzA9SFC4OywqznAEwhknuVh6AomtiaCUHZD/CGBwjJQFQ4WpiZQHZwE7If1YcgVzsinyyw==","691f8ca61c6b4dcbb0aeb5f4","691f9d3853960b2144461833","index1","<span style='color:red'>Fail,<span style='color:red'>Fail,<span style='color:green'>Lift,<span style='color:green'>Lift,<span style='color:red'>Fail,<span style='color:red'>Fail,<span style='color:red'>Fail,<span style='color:red'>Fail,<span style='color:green'>Lift,<span style='color:red'>Fail,<span style='color:green'>Lift,<span style='color:red'>Fail","<span style='color:red'>Fail,<span style='color:red'>Fail,<span style='color:green'>Lift,<span style='color:green'>Lift,<span style='color:green'>Lift,<span style='color:green'>Lift,<span style='color:red'>Fail,<span style='color:green'>Lift,<span style='color:green'>Lift,<span style='color:green'>Lift,<span style='color:green'>Lift,<span style='color:red'>Fail","<span style='color:red'>Fail,<span style='color:green'>Lift,<span style='color:green'>Lift,<span style='color:red'>Fail,<span style='color:green'>Lift,<span style='color:green'>Lift","0,0,1,1,0,0,0,0,1,0,1,0","0,0,1,1,1,1,0,1,1,1,1,0","0,1,1,0,1,1",10,20,20,"","","","","{""Q0"":""It consists of multiple contests, each contest with three rounds."",""Q1"":""When a new round starts."",""Q2"":""The box weight always stays the same (equivalent to strength of 5)."",""Q3"":""They will split the $20, that is $10 for each."",""Q4"":""How close my guesses are to the actual outcome.""}","[0,1,2,3,4]",NA,NA,"",NA,NA,NA,NA,NA,NA,NA,NA,NA,NA,NA,NA,NA,NA,NA,NA,NA,NA,NA,NA,NA,NA,NA,NA,NA,NA,NA,NA,NA,NA,NA,NA,NA,NA,NA,NA,NA,NA,NA,"",NA,NA,NA,NA,NA,NA,NA,NA,2025-11-20 23:18:11
"6429.699999988079","https://psyc-201.github.io/xiang2023/exp/index1.html?PROLIFIC_PID=REDACTED&STUDY_ID=691f8ca61c6b4dcbb0aeb5f4&SESSION_ID=691f9d3853960b2144461833","html-button-response",5,316392,"0.0-5.0-1.0","H3rJAP/djuEwslz7I3IbBhmWCcZoEXHVuzV4OmVxMQhtxXnmTcYXfhEHrtwdDjgWdhEz3d5s0Cd6mQKSbl8EPC0o676sFMbyg32qyGkLG/D7II/SctGsRQH7n2nvVtEuqmvNF00XkgmICyaeqZxE+3OWc3ZYXkFMMuarD8EfbIubMuqGUs+IKqY/rzHk/8I6cefCUr4mj5wj1jP7isWhON9uh79ws8L/Br4J0TsQgsOovvYcT47iauB+zxf13v4TTP3k/W8oyBdaF/TWfzA9SFC4OywqznAEwhknuVh6AomtiaCUHZD/CGBwjJQFQ4WpiZQHZwE7If1YcgVzsinyyw==","691f8ca61c6b4dcbb0aeb5f4","691f9d3853960b2144461833","index1","<span style='color:red'>Fail,<span style='color:red'>Fail,<span style='color:green'>Lift,<span style='color:green'>Lift,<span style='color:red'>Fail,<span style='color:red'>Fail,<span style='color:red'>Fail,<span style='color:red'>Fail,<span style='color:green'>Lift,<span style='color:red'>Fail,<span style='color:green'>Lift,<span style='color:red'>Fail","<span style='color:red'>Fail,<span style='color:red'>Fail,<span style='color:green'>Lift,<span style='color:green'>Lift,<span style='color:green'>Lift,<span style='color:green'>Lift,<span style='color:red'>Fail,<span style='color:green'>Lift,<span style='color:green'>Lift,<span style='color:green'>Lift,<span style='color:green'>Lift,<span style='color:red'>Fail","<span style='color:red'>Fail,<span style='color:green'>Lift,<span style='color:green'>Lift,<span style='color:red'>Fail,<span style='color:green'>Lift,<span style='color:green'>Lift","0,0,1,1,0,0,0,0,1,0,1,0","0,0,1,1,1,1,0,1,1,1,1,0","0,1,1,0,1,1",10,20,20,"","","<p> Oops! You did not pass the comprehension check. <b>Please note that you have only 1 attempt(s) left.</b> </p>","","","",1,NA,"",NA,NA,NA,NA,NA,NA,NA,NA,NA,NA,NA,NA,NA,NA,NA,NA,NA,NA,NA,NA,NA,NA,NA,NA,NA,NA,NA,NA,NA,NA,NA,NA,NA,NA,NA,NA,NA,NA,NA,"",NA,NA,NA,NA,NA,NA,NA,NA,2025-11-20 23:18:11
"145225.09999999404","https://psyc-201.github.io/xiang2023/exp/index1.html?PROLIFIC_PID=REDACTED&STUDY_ID=691f8ca61c6b4dcbb0aeb5f4&SESSION_ID=691f9d3853960b2144461833","instructions",6,461617,"0.0-6.0-0.0","H3rJAP/djuEwslz7I3IbBhmWCcZoEXHVuzV4OmVxMQhtxXnmTcYXfhEHrtwdDjgWdhEz3d5s0Cd6mQKSbl8EPC0o676sFMbyg32qyGkLG/D7II/SctGsRQH7n2nvVtEuqmvNF00XkgmICyaeqZxE+3OWc3ZYXkFMMuarD8EfbIubMuqGUs+IKqY/rzHk/8I6cefCUr4mj5wj1jP7isWhON9uh79ws8L/Br4J0TsQgsOovvYcT47iauB+zxf13v4TTP3k/W8oyBdaF/TWfzA9SFC4OywqznAEwhknuVh6AomtiaCUHZD/CGBwjJQFQ4WpiZQHZwE7If1YcgVzsinyyw==","691f8ca61c6b4dcbb0aeb5f4","691f9d3853960b2144461833","index1","<span style='color:red'>Fail,<span style='color:red'>Fail,<span style='color:green'>Lift,<span style='color:green'>Lift,<span style='color:red'>Fail,<span style='color:red'>Fail,<span style='color:red'>Fail,<span style='color:red'>Fail,<span style='color:green'>Lift,<span style='color:red'>Fail,<span style='color:green'>Lift,<span style='color:red'>Fail","<span style='color:red'>Fail,<span style='color:red'>Fail,<span style='color:green'>Lift,<span style='color:green'>Lift,<span style='color:green'>Lift,<span style='color:green'>Lift,<span style='color:red'>Fail,<span style='color:green'>Lift,<span style='color:green'>Lift,<span style='color:green'>Lift,<span style='color:green'>Lift,<span style='color:red'>Fail","<span style='color:red'>Fail,<span style='color:green'>Lift,<span style='color:green'>Lift,<span style='color:red'>Fail,<span style='color:green'>Lift,<span style='color:green'>Lift","0,0,1,1,0,0,0,0,1,0,1,0","0,0,1,1,1,1,0,1,1,1,1,0","0,1,1,0,1,1",10,20,20,"","[{""page_index"":0,""viewing_time"":60464.39999997616},{""page_index"":1,""viewing_time"":19663.90000000596},{""page_index"":2,""viewing_time"":12288.300000011921},{""page_index"":3,""viewing_time"":20239.90000000596},{""page_index"":4,""viewing_time"":8767.899999976158},{""page_index"":5,""viewing_time"":19600.90000000596},{""page_index"":6,""viewing_time"":4199.5999999940395}]","","","","",NA,NA,"",NA,NA,NA,NA,NA,NA,NA,NA,NA,NA,NA,NA,NA,NA,NA,NA,NA,NA,NA,NA,NA,NA,NA,NA,NA,NA,NA,NA,NA,NA,NA,NA,NA,NA,NA,NA,NA,NA,NA,"",NA,NA,NA,NA,NA,NA,NA,NA,2025-11-20 23:18:11
"null","https://psyc-201.github.io/xiang2023/exp/index1.html?PROLIFIC_PID=REDACTED&STUDY_ID=691f8ca61c6b4dcbb0aeb5f4&SESSION_ID=691f9d3853960b2144461833","html-keyboard-response",7,462623,"0.0-6.0-1.0","H3rJAP/djuEwslz7I3IbBhmWCcZoEXHVuzV4OmVxMQhtxXnmTcYXfhEHrtwdDjgWdhEz3d5s0Cd6mQKSbl8EPC0o676sFMbyg32qyGkLG/D7II/SctGsRQH7n2nvVtEuqmvNF00XkgmICyaeqZxE+3OWc3ZYXkFMMuarD8EfbIubMuqGUs+IKqY/rzHk/8I6cefCUr4mj5wj1jP7isWhON9uh79ws8L/Br4J0TsQgsOovvYcT47iauB+zxf13v4TTP3k/W8oyBdaF/TWfzA9SFC4OywqznAEwhknuVh6AomtiaCUHZD/CGBwjJQFQ4WpiZQHZwE7If1YcgVzsinyyw==","691f8ca61c6b4dcbb0aeb5f4","691f9d3853960b2144461833","index1","<span style='color:red'>Fail,<span style='color:red'>Fail,<span style='color:green'>Lift,<span style='color:green'>Lift,<span style='color:red'>Fail,<span style='color:red'>Fail,<span style='color:red'>Fail,<span style='color:red'>Fail,<span style='color:green'>Lift,<span style='color:red'>Fail,<span style='color:green'>Lift,<span style='color:red'>Fail","<span style='color:red'>Fail,<span style='color:red'>Fail,<span style='color:green'>Lift,<span style='color:green'>Lift,<span style='color:green'>Lift,<span style='color:green'>Lift,<span style='color:red'>Fail,<span style='color:green'>Lift,<span style='color:green'>Lift,<span style='color:green'>Lift,<span style='color:green'>Lift,<span style='color:red'>Fail","<span style='color:red'>Fail,<span style='color:green'>Lift,<span style='color:green'>Lift,<span style='color:red'>Fail,<span style='color:green'>Lift,<span style='color:green'>Lift","0,0,1,1,0,0,0,0,1,0,1,0","0,0,1,1,1,1,0,1,1,1,1,0","0,1,1,0,1,1",10,20,20,"",""," ","null","","",NA,NA,"",NA,NA,NA,NA,NA,NA,NA,NA,NA,NA,NA,NA,NA,NA,NA,NA,NA,NA,NA,NA,NA,NA,NA,NA,NA,NA,NA,NA,NA,NA,NA,NA,NA,NA,NA,NA,NA,NA,NA,"",NA,NA,NA,NA,NA,NA,NA,NA,2025-11-20 23:18:11
"32378.70000001788","https://psyc-201.github.io/xiang2023/exp/index1.html?PROLIFIC_PID=REDACTED&STUDY_ID=691f8ca61c6b4dcbb0aeb5f4&SESSION_ID=691f9d3853960b2144461833","survey-multi-choice",8,495003,"0.0-7.0-0.0","H3rJAP/djuEwslz7I3IbBhmWCcZoEXHVuzV4OmVxMQhtxXnmTcYXfhEHrtwdDjgWdhEz3d5s0Cd6mQKSbl8EPC0o676sFMbyg32qyGkLG/D7II/SctGsRQH7n2nvVtEuqmvNF00XkgmICyaeqZxE+3OWc3ZYXkFMMuarD8EfbIubMuqGUs+IKqY/rzHk/8I6cefCUr4mj5wj1jP7isWhON9uh79ws8L/Br4J0TsQgsOovvYcT47iauB+zxf13v4TTP3k/W8oyBdaF/TWfzA9SFC4OywqznAEwhknuVh6AomtiaCUHZD/CGBwjJQFQ4WpiZQHZwE7If1YcgVzsinyyw==","691f8ca61c6b4dcbb0aeb5f4","691f9d3853960b2144461833","index1","<span style='color:red'>Fail,<span style='color:red'>Fail,<span style='color:green'>Lift,<span style='color:green'>Lift,<span style='color:red'>Fail,<span style='color:red'>Fail,<span style='color:red'>Fail,<span style='color:red'>Fail,<span style='color:green'>Lift,<span style='color:red'>Fail,<span style='color:green'>Lift,<span style='color:red'>Fail","<span style='color:red'>Fail,<span style='color:red'>Fail,<span style='color:green'>Lift,<span style='color:green'>Lift,<span style='color:green'>Lift,<span style='color:green'>Lift,<span style='color:red'>Fail,<span style='color:green'>Lift,<span style='color:green'>Lift,<span style='color:green'>Lift,<span style='color:green'>Lift,<span style='color:red'>Fail","<span style='color:red'>Fail,<span style='color:green'>Lift,<span style='color:green'>Lift,<span style='color:red'>Fail,<span style='color:green'>Lift,<span style='color:green'>Lift","0,0,1,1,0,0,0,0,1,0,1,0","0,0,1,1,1,1,0,1,1,1,1,0","0,1,1,0,1,1",10,20,20,"","","","","{""Q0"":""It consists of multiple contests, each contest with three rounds."",""Q1"":""When a new contest begins."",""Q2"":""The box weight always stays the same (equivalent to strength of 5)."",""Q3"":""Each will get $20."",""Q4"":""How close my guesses are to the actual outcome.""}","[0,1,2,3,4]",NA,NA,"",NA,NA,NA,NA,NA,NA,NA,NA,NA,NA,NA,NA,NA,NA,NA,NA,NA,NA,NA,NA,NA,NA,NA,NA,NA,NA,NA,NA,NA,NA,NA,NA,NA,NA,NA,NA,NA,NA,NA,"",NA,NA,NA,NA,NA,NA,NA,NA,2025-11-20 23:18:11
"22284.90000000596","https://psyc-201.github.io/xiang2023/exp/index1.html?PROLIFIC_PID=REDACTED&STUDY_ID=691f8ca61c6b4dcbb0aeb5f4&SESSION_ID=691f9d3853960b2144461833","instructions",9,517290,"0.0-305.0","H3rJAP/djuEwslz7I3IbBhmWCcZoEXHVuzV4OmVxMQhtxXnmTcYXfhEHrtwdDjgWdhEz3d5s0Cd6mQKSbl8EPC0o676sFMbyg32qyGkLG/D7II/SctGsRQH7n2nvVtEuqmvNF00XkgmICyaeqZxE+3OWc3ZYXkFMMuarD8EfbIubMuqGUs+IKqY/rzHk/8I6cefCUr4mj5wj1jP7isWhON9uh79ws8L/Br4J0TsQgsOovvYcT47iauB+zxf13v4TTP3k/W8oyBdaF/TWfzA9SFC4OywqznAEwhknuVh6AomtiaCUHZD/CGBwjJQFQ4WpiZQHZwE7If1YcgVzsinyyw==","691f8ca61c6b4dcbb0aeb5f4","691f9d3853960b2144461833","index1","<span style='color:red'>Fail,<span style='color:red'>Fail,<span style='color:green'>Lift,<span style='color:green'>Lift,<span style='color:red'>Fail,<span style='color:red'>Fail,<span style='color:red'>Fail,<span style='color:red'>Fail,<span style='color:green'>Lift,<span style='color:red'>Fail,<span style='color:green'>Lift,<span style='color:red'>Fail","<span style='color:red'>Fail,<span style='color:red'>Fail,<span style='color:green'>Lift,<span style='color:green'>Lift,<span style='color:green'>Lift,<span style='color:green'>Lift,<span style='color:red'>Fail,<span style='color:green'>Lift,<span style='color:green'>Lift,<span style='color:green'>Lift,<span style='color:green'>Lift,<span style='color:red'>Fail","<span style='color:red'>Fail,<span style='color:green'>Lift,<span style='color:green'>Lift,<span style='color:red'>Fail,<span style='color:green'>Lift,<span style='color:green'>Lift","0,0,1,1,0,0,0,0,1,0,1,0","0,0,1,1,1,1,0,1,1,1,1,0","0,1,1,0,1,1",10,20,20,"","[{""page_index"":0,""viewing_time"":15868.600000023842},{""page_index"":1,""viewing_time"":6416.199999988079}]","","","","",NA,NA,"",NA,NA,NA,NA,NA,NA,NA,NA,NA,NA,NA,NA,NA,NA,NA,NA,NA,NA,NA,NA,NA,NA,NA,NA,NA,NA,NA,NA,NA,NA,NA,NA,NA,NA,NA,NA,NA,NA,NA,"",NA,NA,NA,NA,NA,NA,NA,NA,2025-11-20 23:18:11
"null","https://psyc-201.github.io/xiang2023/exp/index1.html?PROLIFIC_PID=REDACTED&STUDY_ID=691f8ca61c6b4dcbb0aeb5f4&SESSION_ID=691f9d3853960b2144461833","html-keyboard-response",10,518290,"0.0-306.0","H3rJAP/djuEwslz7I3IbBhmWCcZoEXHVuzV4OmVxMQhtxXnmTcYXfhEHrtwdDjgWdhEz3d5s0Cd6mQKSbl8EPC0o676sFMbyg32qyGkLG/D7II/SctGsRQH7n2nvVtEuqmvNF00XkgmICyaeqZxE+3OWc3ZYXkFMMuarD8EfbIubMuqGUs+IKqY/rzHk/8I6cefCUr4mj5wj1jP7isWhON9uh79ws8L/Br4J0TsQgsOovvYcT47iauB+zxf13v4TTP3k/W8oyBdaF/TWfzA9SFC4OywqznAEwhknuVh6AomtiaCUHZD/CGBwjJQFQ4WpiZQHZwE7If1YcgVzsinyyw==","691f8ca61c6b4dcbb0aeb5f4","691f9d3853960b2144461833","index1","<span style='color:red'>Fail,<span style='color:red'>Fail,<span style='color:green'>Lift,<span style='color:green'>Lift,<span style='color:red'>Fail,<span style='color:red'>Fail,<span style='color:red'>Fail,<span style='color:red'>Fail,<span style='color:green'>Lift,<span style='color:red'>Fail,<span style='color:green'>Lift,<span style='color:red'>Fail","<span style='color:red'>Fail,<span style='color:red'>Fail,<span style='color:green'>Lift,<span style='color:green'>Lift,<span style='color:green'>Lift,<span style='color:green'>Lift,<span style='color:red'>Fail,<span style='color:green'>Lift,<span style='color:green'>Lift,<span style='color:green'>Lift,<span style='color:green'>Lift,<span style='color:red'>Fail","<span style='color:red'>Fail,<span style='color:green'>Lift,<span style='color:green'>Lift,<span style='color:red'>Fail,<span style='color:green'>Lift,<span style='color:green'>Lift","0,0,1,1,0,0,0,0,1,0,1,0","0,0,1,1,1,1,0,1,1,1,1,0","0,1,1,0,1,1",10,20,20,"",""," ","null","","",NA,1,"",NA,NA,NA,NA,NA,NA,NA,NA,NA,NA,NA,NA,NA,NA,NA,NA,NA,NA,NA,NA,NA,NA,NA,NA,NA,NA,NA,NA,NA,NA,NA,NA,NA,NA,NA,NA,NA,NA,NA,"",NA,NA,NA,NA,NA,NA,NA,NA,2025-11-20 23:18:11
"null","https://psyc-201.github.io/xiang2023/exp/index1.html?PROLIFIC_PID=REDACTED&STUDY_ID=691f8ca61c6b4dcbb0aeb5f4&SESSION_ID=691f9d3853960b2144461833","html-keyboard-response",11,521292,"0.0-307.0","H3rJAP/djuEwslz7I3IbBhmWCcZoEXHVuzV4OmVxMQhtxXnmTcYXfhEHrtwdDjgWdhEz3d5s0Cd6mQKSbl8EPC0o676sFMbyg32qyGkLG/D7II/SctGsRQH7n2nvVtEuqmvNF00XkgmICyaeqZxE+3OWc3ZYXkFMMuarD8EfbIubMuqGUs+IKqY/rzHk/8I6cefCUr4mj5wj1jP7isWhON9uh79ws8L/Br4J0TsQgsOovvYcT47iauB+zxf13v4TTP3k/W8oyBdaF/TWfzA9SFC4OywqznAEwhknuVh6AomtiaCUHZD/CGBwjJQFQ4WpiZQHZwE7If1YcgVzsinyyw==","691f8ca61c6b4dcbb0aeb5f4","691f9d3853960b2144461833","index1","<span style='color:red'>Fail,<span style='color:red'>Fail,<span style='color:green'>Lift,<span style='color:green'>Lift,<span style='color:red'>Fail,<span style='color:red'>Fail,<span style='color:red'>Fail,<span style='color:red'>Fail,<span style='color:green'>Lift,<span style='color:red'>Fail,<span style='color:green'>Lift,<span style='color:red'>Fail","<span style='color:red'>Fail,<span style='color:red'>Fail,<span style='color:green'>Lift,<span style='color:green'>Lift,<span style='color:green'>Lift,<span style='color:green'>Lift,<span style='color:red'>Fail,<span style='color:green'>Lift,<span style='color:green'>Lift,<span style='color:green'>Lift,<span style='color:green'>Lift,<span style='color:red'>Fail","<span style='color:red'>Fail,<span style='color:green'>Lift,<span style='color:green'>Lift,<span style='color:red'>Fail,<span style='color:green'>Lift,<span style='color:green'>Lift","0,0,1,1,0,0,0,0,1,0,1,0","0,0,1,1,1,1,0,1,1,1,1,0","0,1,1,0,1,1",10,20,20,"","","<p style='font-size:30px'><b> New Contest! </b></p>","null","","",NA,1,"",NA,NA,NA,NA,NA,NA,NA,NA,NA,NA,NA,NA,NA,NA,NA,NA,NA,NA,NA,NA,NA,NA,NA,NA,NA,NA,NA,NA,NA,NA,NA,NA,NA,NA,NA,NA,NA,NA,NA,"",NA,NA,NA,NA,NA,NA,NA,NA,2025-11-20 23:18:11
"33693.79999998212","https://psyc-201.github.io/xiang2023/exp/index1.html?PROLIFIC_PID=REDACTED&STUDY_ID=691f8ca61c6b4dcbb0aeb5f4&SESSION_ID=691f9d3853960b2144461833","survey-html-form",12,554987,"0.0-308.0","H3rJAP/djuEwslz7I3IbBhmWCcZoEXHVuzV4OmVxMQhtxXnmTcYXfhEHrtwdDjgWdhEz3d5s0Cd6mQKSbl8EPC0o676sFMbyg32qyGkLG/D7II/SctGsRQH7n2nvVtEuqmvNF00XkgmICyaeqZxE+3OWc3ZYXkFMMuarD8EfbIubMuqGUs+IKqY/rzHk/8I6cefCUr4mj5wj1jP7isWhON9uh79ws8L/Br4J0TsQgsOovvYcT47iauB+zxf13v4TTP3k/W8oyBdaF/TWfzA9SFC4OywqznAEwhknuVh6AomtiaCUHZD/CGBwjJQFQ4WpiZQHZwE7If1YcgVzsinyyw==","691f8ca61c6b4dcbb0aeb5f4","691f9d3853960b2144461833","index1","<span style='color:red'>Fail,<span style='color:red'>Fail,<span style='color:green'>Lift,<span style='color:green'>Lift,<span style='color:red'>Fail,<span style='color:red'>Fail,<span style='color:red'>Fail,<span style='color:red'>Fail,<span style='color:green'>Lift,<span style='color:red'>Fail,<span style='color:green'>Lift,<span style='color:red'>Fail","<span style='color:red'>Fail,<span style='color:red'>Fail,<span style='color:green'>Lift,<span style='color:green'>Lift,<span style='color:green'>Lift,<span style='color:green'>Lift,<span style='color:red'>Fail,<span style='color:green'>Lift,<span style='color:green'>Lift,<span style='color:green'>Lift,<span style='color:green'>Lift,<span style='color:red'>Fail","<span style='color:red'>Fail,<span style='color:green'>Lift,<span style='color:green'>Lift,<span style='color:red'>Fail,<span style='color:green'>Lift,<span style='color:green'>Lift","0,0,1,1,0,0,0,0,1,0,1,0","0,0,1,1,1,1,0,1,1,1,1,0","0,1,1,0,1,1",10,20,20,"","","","","{""box1"":""4"",""box2"":""5""}","",NA,1,"round1_outcome",1,1,1,4,5,NA,NA,0,0,10,4,5,NA,NA,0,0,10,NA,NA,NA,NA,NA,NA,NA,NA,NA,NA,NA,NA,NA,NA,NA,NA,NA,NA,NA,NA,NA,NA,"",NA,NA,NA,NA,NA,NA,NA,NA,2025-11-20 23:18:11
"27686.59999999404","https://psyc-201.github.io/xiang2023/exp/index1.html?PROLIFIC_PID=REDACTED&STUDY_ID=691f8ca61c6b4dcbb0aeb5f4&SESSION_ID=691f9d3853960b2144461833","survey-html-form",13,582675,"0.0-309.0","H3rJAP/djuEwslz7I3IbBhmWCcZoEXHVuzV4OmVxMQhtxXnmTcYXfhEHrtwdDjgWdhEz3d5s0Cd6mQKSbl8EPC0o676sFMbyg32qyGkLG/D7II/SctGsRQH7n2nvVtEuqmvNF00XkgmICyaeqZxE+3OWc3ZYXkFMMuarD8EfbIubMuqGUs+IKqY/rzHk/8I6cefCUr4mj5wj1jP7isWhON9uh79ws8L/Br4J0TsQgsOovvYcT47iauB+zxf13v4TTP3k/W8oyBdaF/TWfzA9SFC4OywqznAEwhknuVh6AomtiaCUHZD/CGBwjJQFQ4WpiZQHZwE7If1YcgVzsinyyw==","691f8ca61c6b4dcbb0aeb5f4","691f9d3853960b2144461833","index1","<span style='color:red'>Fail,<span style='color:red'>Fail,<span style='color:green'>Lift,<span style='color:green'>Lift,<span style='color:red'>Fail,<span style='color:red'>Fail,<span style='color:red'>Fail,<span style='color:red'>Fail,<span style='color:green'>Lift,<span style='color:red'>Fail,<span style='color:green'>Lift,<span style='color:red'>Fail","<span style='color:red'>Fail,<span style='color:red'>Fail,<span style='color:green'>Lift,<span style='color:green'>Lift,<span style='color:green'>Lift,<span style='color:green'>Lift,<span style='color:red'>Fail,<span style='color:green'>Lift,<span style='color:green'>Lift,<span style='color:green'>Lift,<span style='color:green'>Lift,<span style='color:red'>Fail","<span style='color:red'>Fail,<span style='color:green'>Lift,<span style='color:green'>Lift,<span style='color:red'>Fail,<span style='color:green'>Lift,<span style='color:green'>Lift","0,0,1,1,0,0,0,0,1,0,1,0","0,0,1,1,1,1,0,1,1,1,1,0","0,1,1,0,1,1",10,20,20,"","","","","{""box1"":""75"",""box2"":""70""}","",NA,1,"round2_ready",2,1,2,NA,NA,NA,NA,NA,NA,NA,NA,NA,NA,NA,NA,NA,NA,75,70,75,70,NA,NA,NA,NA,NA,NA,NA,NA,NA,NA,NA,NA,NA,NA,NA,NA,NA,NA,"",NA,NA,NA,NA,NA,NA,NA,NA,2025-11-20 23:18:11
"56159.80000001192","https://psyc-201.github.io/xiang2023/exp/index1.html?PROLIFIC_PID=REDACTED&STUDY_ID=691f8ca61c6b4dcbb0aeb5f4&SESSION_ID=691f9d3853960b2144461833","survey-html-form",14,638836,"0.0-310.0","H3rJAP/djuEwslz7I3IbBhmWCcZoEXHVuzV4OmVxMQhtxXnmTcYXfhEHrtwdDjgWdhEz3d5s0Cd6mQKSbl8EPC0o676sFMbyg32qyGkLG/D7II/SctGsRQH7n2nvVtEuqmvNF00XkgmICyaeqZxE+3OWc3ZYXkFMMuarD8EfbIubMuqGUs+IKqY/rzHk/8I6cefCUr4mj5wj1jP7isWhON9uh79ws8L/Br4J0TsQgsOovvYcT47iauB+zxf13v4TTP3k/W8oyBdaF/TWfzA9SFC4OywqznAEwhknuVh6AomtiaCUHZD/CGBwjJQFQ4WpiZQHZwE7If1YcgVzsinyyw==","691f8ca61c6b4dcbb0aeb5f4","691f9d3853960b2144461833","index1","<span style='color:red'>Fail,<span style='color:red'>Fail,<span style='color:green'>Lift,<span style='color:green'>Lift,<span style='color:red'>Fail,<span style='color:red'>Fail,<span style='color:red'>Fail,<span style='color:red'>Fail,<span style='color:green'>Lift,<span style='color:red'>Fail,<span style='color:green'>Lift,<span style='color:red'>Fail","<span style='color:red'>Fail,<span style='color:red'>Fail,<span style='color:green'>Lift,<span style='color:green'>Lift,<span style='color:green'>Lift,<span style='color:green'>Lift,<span style='color:red'>Fail,<span style='color:green'>Lift,<span style='color:green'>Lift,<span style='color:green'>Lift,<span style='color:green'>Lift,<span style='color:red'>Fail","<span style='color:red'>Fail,<span style='color:green'>Lift,<span style='color:green'>Lift,<span style='color:red'>Fail,<span style='color:green'>Lift,<span style='color:green'>Lift","0,0,1,1,0,0,0,0,1,0,1,0","0,0,1,1,1,1,0,1,1,1,1,0","0,1,1,0,1,1",10,20,20,"","","","","{""box1"":""6"",""box2"":""7"",""box3"":""80"",""box4"":""60""}","",NA,1,"round2_outcome",3,1,2,6,7,80,60,1,1,20,NA,NA,NA,NA,NA,NA,NA,NA,NA,NA,NA,6,7,80,60,1,1,20,NA,NA,NA,NA,NA,NA,NA,NA,NA,NA,NA,"",NA,NA,NA,NA,NA,NA,NA,NA,2025-11-20 23:18:11
"11222.59999999404","https://psyc-201.github.io/xiang2023/exp/index1.html?PROLIFIC_PID=REDACTED&STUDY_ID=691f8ca61c6b4dcbb0aeb5f4&SESSION_ID=691f9d3853960b2144461833","survey-html-form",15,650060,"0.0-311.0","H3rJAP/djuEwslz7I3IbBhmWCcZoEXHVuzV4OmVxMQhtxXnmTcYXfhEHrtwdDjgWdhEz3d5s0Cd6mQKSbl8EPC0o676sFMbyg32qyGkLG/D7II/SctGsRQH7n2nvVtEuqmvNF00XkgmICyaeqZxE+3OWc3ZYXkFMMuarD8EfbIubMuqGUs+IKqY/rzHk/8I6cefCUr4mj5wj1jP7isWhON9uh79ws8L/Br4J0TsQgsOovvYcT47iauB+zxf13v4TTP3k/W8oyBdaF/TWfzA9SFC4OywqznAEwhknuVh6AomtiaCUHZD/CGBwjJQFQ4WpiZQHZwE7If1YcgVzsinyyw==","691f8ca61c6b4dcbb0aeb5f4","691f9d3853960b2144461833","index1","<span style='color:red'>Fail,<span style='color:red'>Fail,<span style='color:green'>Lift,<span style='color:green'>Lift,<span style='color:red'>Fail,<span style='color:red'>Fail,<span style='color:red'>Fail,<span style='color:red'>Fail,<span style='color:green'>Lift,<span style='color:red'>Fail,<span style='color:green'>Lift,<span style='color:red'>Fail","<span style='color:red'>Fail,<span style='color:red'>Fail,<span style='color:green'>Lift,<span style='color:green'>Lift,<span style='color:green'>Lift,<span style='color:green'>Lift,<span style='color:red'>Fail,<span style='color:green'>Lift,<span style='color:green'>Lift,<span style='color:green'>Lift,<span style='color:green'>Lift,<span style='color:red'>Fail","<span style='color:red'>Fail,<span style='color:green'>Lift,<span style='color:green'>Lift,<span style='color:red'>Fail,<span style='color:green'>Lift,<span style='color:green'>Lift","0,0,1,1,0,0,0,0,1,0,1,0","0,0,1,1,1,1,0,1,1,1,1,0","0,1,1,0,1,1",10,20,20,"","","","","{""box1"":""100""}","",NA,1,"round3_ready",4,1,3,NA,NA,NA,NA,NA,NA,NA,NA,NA,NA,NA,NA,NA,NA,100,100,NA,NA,NA,NA,NA,NA,NA,NA,NA,100,100,NA,NA,NA,NA,NA,NA,NA,NA,NA,"",NA,NA,NA,NA,NA,NA,NA,NA,2025-11-20 23:18:11
"19959.19999998808","https://psyc-201.github.io/xiang2023/exp/index1.html?PROLIFIC_PID=REDACTED&STUDY_ID=691f8ca61c6b4dcbb0aeb5f4&SESSION_ID=691f9d3853960b2144461833","survey-html-form",16,670020,"0.0-312.0-0.0","H3rJAP/djuEwslz7I3IbBhmWCcZoEXHVuzV4OmVxMQhtxXnmTcYXfhEHrtwdDjgWdhEz3d5s0Cd6mQKSbl8EPC0o676sFMbyg32qyGkLG/D7II/SctGsRQH7n2nvVtEuqmvNF00XkgmICyaeqZxE+3OWc3ZYXkFMMuarD8EfbIubMuqGUs+IKqY/rzHk/8I6cefCUr4mj5wj1jP7isWhON9uh79ws8L/Br4J0TsQgsOovvYcT47iauB+zxf13v4TTP3k/W8oyBdaF/TWfzA9SFC4OywqznAEwhknuVh6AomtiaCUHZD/CGBwjJQFQ4WpiZQHZwE7If1YcgVzsinyyw==","691f8ca61c6b4dcbb0aeb5f4","691f9d3853960b2144461833","index1","<span style='color:red'>Fail,<span style='color:red'>Fail,<span style='color:green'>Lift,<span style='color:green'>Lift,<span style='color:red'>Fail,<span style='color:red'>Fail,<span style='color:red'>Fail,<span style='color:red'>Fail,<span style='color:green'>Lift,<span style='color:red'>Fail,<span style='color:green'>Lift,<span style='color:red'>Fail","<span style='color:red'>Fail,<span style='color:red'>Fail,<span style='color:green'>Lift,<span style='color:green'>Lift,<span style='color:green'>Lift,<span style='color:green'>Lift,<span style='color:red'>Fail,<span style='color:green'>Lift,<span style='color:green'>Lift,<span style='color:green'>Lift,<span style='color:green'>Lift,<span style='color:red'>Fail","<span style='color:red'>Fail,<span style='color:green'>Lift,<span style='color:green'>Lift,<span style='color:red'>Fail,<span style='color:green'>Lift,<span style='color:green'>Lift","0,0,1,1,0,0,0,0,1,0,1,0","0,0,1,1,1,1,0,1,1,1,1,0","0,1,1,0,1,1",10,20,20,"","","","","{""box1"":""8"",""box2"":""6"",""box3"":""50"",""box4"":""50""}","",NA,2,"round3_lift",5,1,3,8,6,50,50,1,1,20,NA,NA,NA,NA,NA,NA,NA,NA,NA,NA,NA,NA,NA,NA,NA,NA,NA,NA,NA,NA,8,6,50,50,1,1,20,NA,NA,"",NA,NA,NA,NA,NA,NA,NA,NA,2025-11-20 23:18:11
"null","https://psyc-201.github.io/xiang2023/exp/index1.html?PROLIFIC_PID=REDACTED&STUDY_ID=691f8ca61c6b4dcbb0aeb5f4&SESSION_ID=691f9d3853960b2144461833","html-keyboard-response",17,673036,"0.0-316.0","H3rJAP/djuEwslz7I3IbBhmWCcZoEXHVuzV4OmVxMQhtxXnmTcYXfhEHrtwdDjgWdhEz3d5s0Cd6mQKSbl8EPC0o676sFMbyg32qyGkLG/D7II/SctGsRQH7n2nvVtEuqmvNF00XkgmICyaeqZxE+3OWc3ZYXkFMMuarD8EfbIubMuqGUs+IKqY/rzHk/8I6cefCUr4mj5wj1jP7isWhON9uh79ws8L/Br4J0TsQgsOovvYcT47iauB+zxf13v4TTP3k/W8oyBdaF/TWfzA9SFC4OywqznAEwhknuVh6AomtiaCUHZD/CGBwjJQFQ4WpiZQHZwE7If1YcgVzsinyyw==","691f8ca61c6b4dcbb0aeb5f4","691f9d3853960b2144461833","index1","<span style='color:red'>Fail,<span style='color:red'>Fail,<span style='color:green'>Lift,<span style='color:green'>Lift,<span style='color:red'>Fail,<span style='color:red'>Fail,<span style='color:red'>Fail,<span style='color:red'>Fail,<span style='color:green'>Lift,<span style='color:red'>Fail,<span style='color:green'>Lift,<span style='color:red'>Fail","<span style='color:red'>Fail,<span style='color:red'>Fail,<span style='color:green'>Lift,<span style='color:green'>Lift,<span style='color:green'>Lift,<span style='color:green'>Lift,<span style='color:red'>Fail,<span style='color:green'>Lift,<span style='color:green'>Lift,<span style='color:green'>Lift,<span style='color:green'>Lift,<span style='color:red'>Fail","<span style='color:red'>Fail,<span style='color:green'>Lift,<span style='color:green'>Lift,<span style='color:red'>Fail,<span style='color:green'>Lift,<span style='color:green'>Lift","0,0,1,1,0,0,0,0,1,0,1,0","0,0,1,1,1,1,0,1,1,1,1,0","0,1,1,0,1,1",10,20,20,"","","<p style='font-size:30px'><b> New Contest! </b></p>","null","","",NA,2,"",NA,NA,NA,NA,NA,NA,NA,NA,NA,NA,NA,NA,NA,NA,NA,NA,NA,NA,NA,NA,NA,NA,NA,NA,NA,NA,NA,NA,NA,NA,NA,NA,NA,NA,NA,NA,NA,NA,NA,"",NA,NA,NA,NA,NA,NA,NA,NA,2025-11-20 23:18:11
"12247.799999982119","https://psyc-201.github.io/xiang2023/exp/index1.html?PROLIFIC_PID=REDACTED&STUDY_ID=691f8ca61c6b4dcbb0aeb5f4&SESSION_ID=691f9d3853960b2144461833","survey-html-form",18,685285,"0.0-317.0","H3rJAP/djuEwslz7I3IbBhmWCcZoEXHVuzV4OmVxMQhtxXnmTcYXfhEHrtwdDjgWdhEz3d5s0Cd6mQKSbl8EPC0o676sFMbyg32qyGkLG/D7II/SctGsRQH7n2nvVtEuqmvNF00XkgmICyaeqZxE+3OWc3ZYXkFMMuarD8EfbIubMuqGUs+IKqY/rzHk/8I6cefCUr4mj5wj1jP7isWhON9uh79ws8L/Br4J0TsQgsOovvYcT47iauB+zxf13v4TTP3k/W8oyBdaF/TWfzA9SFC4OywqznAEwhknuVh6AomtiaCUHZD/CGBwjJQFQ4WpiZQHZwE7If1YcgVzsinyyw==","691f8ca61c6b4dcbb0aeb5f4","691f9d3853960b2144461833","index1","<span style='color:red'>Fail,<span style='color:red'>Fail,<span style='color:green'>Lift,<span style='color:green'>Lift,<span style='color:red'>Fail,<span style='color:red'>Fail,<span style='color:red'>Fail,<span style='color:red'>Fail,<span style='color:green'>Lift,<span style='color:red'>Fail,<span style='color:green'>Lift,<span style='color:red'>Fail","<span style='color:red'>Fail,<span style='color:red'>Fail,<span style='color:green'>Lift,<span style='color:green'>Lift,<span style='color:green'>Lift,<span style='color:green'>Lift,<span style='color:red'>Fail,<span style='color:green'>Lift,<span style='color:green'>Lift,<span style='color:green'>Lift,<span style='color:green'>Lift,<span style='color:red'>Fail","<span style='color:red'>Fail,<span style='color:green'>Lift,<span style='color:green'>Lift,<span style='color:red'>Fail,<span style='color:green'>Lift,<span style='color:green'>Lift","0,0,1,1,0,0,0,0,1,0,1,0","0,0,1,1,1,1,0,1,1,1,1,0","0,1,1,0,1,1",10,20,20,"","","","","{""box1"":""5"",""box2"":""5""}","",NA,2,"round1_outcome",1,2,1,5,5,NA,NA,0,0,10,5,5,NA,NA,0,0,10,NA,NA,NA,NA,NA,NA,NA,NA,NA,NA,NA,NA,NA,NA,NA,NA,NA,NA,NA,NA,NA,NA,"",NA,NA,NA,NA,NA,NA,NA,NA,2025-11-20 23:18:11
"17846.5","https://psyc-201.github.io/xiang2023/exp/index1.html?PROLIFIC_PID=REDACTED&STUDY_ID=691f8ca61c6b4dcbb0aeb5f4&SESSION_ID=691f9d3853960b2144461833","survey-html-form",19,703132,"0.0-318.0","H3rJAP/djuEwslz7I3IbBhmWCcZoEXHVuzV4OmVxMQhtxXnmTcYXfhEHrtwdDjgWdhEz3d5s0Cd6mQKSbl8EPC0o676sFMbyg32qyGkLG/D7II/SctGsRQH7n2nvVtEuqmvNF00XkgmICyaeqZxE+3OWc3ZYXkFMMuarD8EfbIubMuqGUs+IKqY/rzHk/8I6cefCUr4mj5wj1jP7isWhON9uh79ws8L/Br4J0TsQgsOovvYcT47iauB+zxf13v4TTP3k/W8oyBdaF/TWfzA9SFC4OywqznAEwhknuVh6AomtiaCUHZD/CGBwjJQFQ4WpiZQHZwE7If1YcgVzsinyyw==","691f8ca61c6b4dcbb0aeb5f4","691f9d3853960b2144461833","index1","<span style='color:red'>Fail,<span style='color:red'>Fail,<span style='color:green'>Lift,<span style='color:green'>Lift,<span style='color:red'>Fail,<span style='color:red'>Fail,<span style='color:red'>Fail,<span style='color:red'>Fail,<span style='color:green'>Lift,<span style='color:red'>Fail,<span style='color:green'>Lift,<span style='color:red'>Fail","<span style='color:red'>Fail,<span style='color:red'>Fail,<span style='color:green'>Lift,<span style='color:green'>Lift,<span style='color:green'>Lift,<span style='color:green'>Lift,<span style='color:red'>Fail,<span style='color:green'>Lift,<span style='color:green'>Lift,<span style='color:green'>Lift,<span style='color:green'>Lift,<span style='color:red'>Fail","<span style='color:red'>Fail,<span style='color:green'>Lift,<span style='color:green'>Lift,<span style='color:red'>Fail,<span style='color:green'>Lift,<span style='color:green'>Lift","0,0,1,1,0,0,0,0,1,0,1,0","0,0,1,1,1,1,0,1,1,1,1,0","0,1,1,0,1,1",10,20,20,"","","","","{""box1"":""95"",""box2"":""95""}","",NA,2,"round2_ready",2,2,2,NA,NA,NA,NA,NA,NA,NA,NA,NA,NA,NA,NA,NA,NA,95,95,95,95,NA,NA,NA,NA,NA,NA,NA,NA,NA,NA,NA,NA,NA,NA,NA,NA,NA,NA,"",NA,NA,NA,NA,NA,NA,NA,NA,2025-11-20 23:18:11
"7776","https://psyc-201.github.io/xiang2023/exp/index1.html?PROLIFIC_PID=REDACTED&STUDY_ID=691f8ca61c6b4dcbb0aeb5f4&SESSION_ID=691f9d3853960b2144461833","survey-html-form",20,710909,"0.0-319.0","H3rJAP/djuEwslz7I3IbBhmWCcZoEXHVuzV4OmVxMQhtxXnmTcYXfhEHrtwdDjgWdhEz3d5s0Cd6mQKSbl8EPC0o676sFMbyg32qyGkLG/D7II/SctGsRQH7n2nvVtEuqmvNF00XkgmICyaeqZxE+3OWc3ZYXkFMMuarD8EfbIubMuqGUs+IKqY/rzHk/8I6cefCUr4mj5wj1jP7isWhON9uh79ws8L/Br4J0TsQgsOovvYcT47iauB+zxf13v4TTP3k/W8oyBdaF/TWfzA9SFC4OywqznAEwhknuVh6AomtiaCUHZD/CGBwjJQFQ4WpiZQHZwE7If1YcgVzsinyyw==","691f8ca61c6b4dcbb0aeb5f4","691f9d3853960b2144461833","index1","<span style='color:red'>Fail,<span style='color:red'>Fail,<span style='color:green'>Lift,<span style='color:green'>Lift,<span style='color:red'>Fail,<span style='color:red'>Fail,<span style='color:red'>Fail,<span style='color:red'>Fail,<span style='color:green'>Lift,<span style='color:red'>Fail,<span style='color:green'>Lift,<span style='color:red'>Fail","<span style='color:red'>Fail,<span style='color:red'>Fail,<span style='color:green'>Lift,<span style='color:green'>Lift,<span style='color:green'>Lift,<span style='color:green'>Lift,<span style='color:red'>Fail,<span style='color:green'>Lift,<span style='color:green'>Lift,<span style='color:green'>Lift,<span style='color:green'>Lift,<span style='color:red'>Fail","<span style='color:red'>Fail,<span style='color:green'>Lift,<span style='color:green'>Lift,<span style='color:red'>Fail,<span style='color:green'>Lift,<span style='color:green'>Lift","0,0,1,1,0,0,0,0,1,0,1,0","0,0,1,1,1,1,0,1,1,1,1,0","0,1,1,0,1,1",10,20,20,"","","","","{""box1"":""3"",""box2"":""4""}","",NA,2,"round2_outcome",3,2,2,3,4,NA,NA,0,0,20,NA,NA,NA,NA,NA,NA,NA,NA,NA,NA,NA,3,4,NA,NA,0,0,20,NA,NA,NA,NA,NA,NA,NA,NA,NA,NA,NA,"",NA,NA,NA,NA,NA,NA,NA,NA,2025-11-20 23:18:11
"17646.40000000596","https://psyc-201.github.io/xiang2023/exp/index1.html?PROLIFIC_PID=REDACTED&STUDY_ID=691f8ca61c6b4dcbb0aeb5f4&SESSION_ID=691f9d3853960b2144461833","survey-html-form",21,728557,"0.0-320.0","H3rJAP/djuEwslz7I3IbBhmWCcZoEXHVuzV4OmVxMQhtxXnmTcYXfhEHrtwdDjgWdhEz3d5s0Cd6mQKSbl8EPC0o676sFMbyg32qyGkLG/D7II/SctGsRQH7n2nvVtEuqmvNF00XkgmICyaeqZxE+3OWc3ZYXkFMMuarD8EfbIubMuqGUs+IKqY/rzHk/8I6cefCUr4mj5wj1jP7isWhON9uh79ws8L/Br4J0TsQgsOovvYcT47iauB+zxf13v4TTP3k/W8oyBdaF/TWfzA9SFC4OywqznAEwhknuVh6AomtiaCUHZD/CGBwjJQFQ4WpiZQHZwE7If1YcgVzsinyyw==","691f8ca61c6b4dcbb0aeb5f4","691f9d3853960b2144461833","index1","<span style='color:red'>Fail,<span style='color:red'>Fail,<span style='color:green'>Lift,<span style='color:green'>Lift,<span style='color:red'>Fail,<span style='color:red'>Fail,<span style='color:red'>Fail,<span style='color:red'>Fail,<span style='color:green'>Lift,<span style='color:red'>Fail,<span style='color:green'>Lift,<span style='color:red'>Fail","<span style='color:red'>Fail,<span style='color:red'>Fail,<span style='color:green'>Lift,<span style='color:green'>Lift,<span style='color:green'>Lift,<span style='color:green'>Lift,<span style='color:red'>Fail,<span style='color:green'>Lift,<span style='color:green'>Lift,<span style='color:green'>Lift,<span style='color:green'>Lift,<span style='color:red'>Fail","<span style='color:red'>Fail,<span style='color:green'>Lift,<span style='color:green'>Lift,<span style='color:red'>Fail,<span style='color:green'>Lift,<span style='color:green'>Lift","0,0,1,1,0,0,0,0,1,0,1,0","0,0,1,1,1,1,0,1,1,1,1,0","0,1,1,0,1,1",10,20,20,"","","","","{""box1"":""65""}","",NA,2,"round3_ready",4,2,3,NA,NA,NA,NA,NA,NA,NA,NA,NA,NA,NA,NA,NA,NA,65,65,NA,NA,NA,NA,NA,NA,NA,NA,NA,65,65,NA,NA,NA,NA,NA,NA,NA,NA,NA,"",NA,NA,NA,NA,NA,NA,NA,NA,2025-11-20 23:18:11
"23087.5","https://psyc-201.github.io/xiang2023/exp/index1.html?PROLIFIC_PID=REDACTED&STUDY_ID=691f8ca61c6b4dcbb0aeb5f4&SESSION_ID=691f9d3853960b2144461833","survey-html-form",22,751645,"0.0-322.0-0.0","H3rJAP/djuEwslz7I3IbBhmWCcZoEXHVuzV4OmVxMQhtxXnmTcYXfhEHrtwdDjgWdhEz3d5s0Cd6mQKSbl8EPC0o676sFMbyg32qyGkLG/D7II/SctGsRQH7n2nvVtEuqmvNF00XkgmICyaeqZxE+3OWc3ZYXkFMMuarD8EfbIubMuqGUs+IKqY/rzHk/8I6cefCUr4mj5wj1jP7isWhON9uh79ws8L/Br4J0TsQgsOovvYcT47iauB+zxf13v4TTP3k/W8oyBdaF/TWfzA9SFC4OywqznAEwhknuVh6AomtiaCUHZD/CGBwjJQFQ4WpiZQHZwE7If1YcgVzsinyyw==","691f8ca61c6b4dcbb0aeb5f4","691f9d3853960b2144461833","index1","<span style='color:red'>Fail,<span style='color:red'>Fail,<span style='color:green'>Lift,<span style='color:green'>Lift,<span style='color:red'>Fail,<span style='color:red'>Fail,<span style='color:red'>Fail,<span style='color:red'>Fail,<span style='color:green'>Lift,<span style='color:red'>Fail,<span style='color:green'>Lift,<span style='color:red'>Fail","<span style='color:red'>Fail,<span style='color:red'>Fail,<span style='color:green'>Lift,<span style='color:green'>Lift,<span style='color:green'>Lift,<span style='color:green'>Lift,<span style='color:red'>Fail,<span style='color:green'>Lift,<span style='color:green'>Lift,<span style='color:green'>Lift,<span style='color:green'>Lift,<span style='color:red'>Fail","<span style='color:red'>Fail,<span style='color:green'>Lift,<span style='color:green'>Lift,<span style='color:red'>Fail,<span style='color:green'>Lift,<span style='color:green'>Lift","0,0,1,1,0,0,0,0,1,0,1,0","0,0,1,1,1,1,0,1,1,1,1,0","0,1,1,0,1,1",10,20,20,"","","","","{""box1"":""1"",""box2"":""1"",""box3"":""999"",""box4"":""999""}","",NA,3,"round3_fail",5,2,3,1,1,NA,NA,0,0,20,NA,NA,NA,NA,NA,NA,NA,NA,NA,NA,NA,NA,NA,NA,NA,NA,NA,NA,NA,NA,1,1,NA,NA,0,0,20,1,1,"",NA,NA,NA,NA,NA,NA,NA,NA,2025-11-20 23:18:11
"null","https://psyc-201.github.io/xiang2023/exp/index1.html?PROLIFIC_PID=REDACTED&STUDY_ID=691f8ca61c6b4dcbb0aeb5f4&SESSION_ID=691f9d3853960b2144461833","html-keyboard-response",23,754660,"0.0-325.0","H3rJAP/djuEwslz7I3IbBhmWCcZoEXHVuzV4OmVxMQhtxXnmTcYXfhEHrtwdDjgWdhEz3d5s0Cd6mQKSbl8EPC0o676sFMbyg32qyGkLG/D7II/SctGsRQH7n2nvVtEuqmvNF00XkgmICyaeqZxE+3OWc3ZYXkFMMuarD8EfbIubMuqGUs+IKqY/rzHk/8I6cefCUr4mj5wj1jP7isWhON9uh79ws8L/Br4J0TsQgsOovvYcT47iauB+zxf13v4TTP3k/W8oyBdaF/TWfzA9SFC4OywqznAEwhknuVh6AomtiaCUHZD/CGBwjJQFQ4WpiZQHZwE7If1YcgVzsinyyw==","691f8ca61c6b4dcbb0aeb5f4","691f9d3853960b2144461833","index1","<span style='color:red'>Fail,<span style='color:red'>Fail,<span style='color:green'>Lift,<span style='color:green'>Lift,<span style='color:red'>Fail,<span style='color:red'>Fail,<span style='color:red'>Fail,<span style='color:red'>Fail,<span style='color:green'>Lift,<span style='color:red'>Fail,<span style='color:green'>Lift,<span style='color:red'>Fail","<span style='color:red'>Fail,<span style='color:red'>Fail,<span style='color:green'>Lift,<span style='color:green'>Lift,<span style='color:green'>Lift,<span style='color:green'>Lift,<span style='color:red'>Fail,<span style='color:green'>Lift,<span style='color:green'>Lift,<span style='color:green'>Lift,<span style='color:green'>Lift,<span style='color:red'>Fail","<span style='color:red'>Fail,<span style='color:green'>Lift,<span style='color:green'>Lift,<span style='color:red'>Fail,<span style='color:green'>Lift,<span style='color:green'>Lift","0,0,1,1,0,0,0,0,1,0,1,0","0,0,1,1,1,1,0,1,1,1,1,0","0,1,1,0,1,1",10,20,20,"","","<p style='font-size:30px'><b> New Contest! </b></p>","null","","",NA,3,"",NA,NA,NA,NA,NA,NA,NA,NA,NA,NA,NA,NA,NA,NA,NA,NA,NA,NA,NA,NA,NA,NA,NA,NA,NA,NA,NA,NA,NA,NA,NA,NA,NA,NA,NA,NA,NA,NA,NA,"",NA,NA,NA,NA,NA,NA,NA,NA,2025-11-20 23:18:11
"28504.59999999404","https://psyc-201.github.io/xiang2023/exp/index1.html?PROLIFIC_PID=REDACTED&STUDY_ID=691f8ca61c6b4dcbb0aeb5f4&SESSION_ID=691f9d3853960b2144461833","survey-html-form",24,783165,"0.0-326.0","H3rJAP/djuEwslz7I3IbBhmWCcZoEXHVuzV4OmVxMQhtxXnmTcYXfhEHrtwdDjgWdhEz3d5s0Cd6mQKSbl8EPC0o676sFMbyg32qyGkLG/D7II/SctGsRQH7n2nvVtEuqmvNF00XkgmICyaeqZxE+3OWc3ZYXkFMMuarD8EfbIubMuqGUs+IKqY/rzHk/8I6cefCUr4mj5wj1jP7isWhON9uh79ws8L/Br4J0TsQgsOovvYcT47iauB+zxf13v4TTP3k/W8oyBdaF/TWfzA9SFC4OywqznAEwhknuVh6AomtiaCUHZD/CGBwjJQFQ4WpiZQHZwE7If1YcgVzsinyyw==","691f8ca61c6b4dcbb0aeb5f4","691f9d3853960b2144461833","index1","<span style='color:red'>Fail,<span style='color:red'>Fail,<span style='color:green'>Lift,<span style='color:green'>Lift,<span style='color:red'>Fail,<span style='color:red'>Fail,<span style='color:red'>Fail,<span style='color:red'>Fail,<span style='color:green'>Lift,<span style='color:red'>Fail,<span style='color:green'>Lift,<span style='color:red'>Fail","<span style='color:red'>Fail,<span style='color:red'>Fail,<span style='color:green'>Lift,<span style='color:green'>Lift,<span style='color:green'>Lift,<span style='color:green'>Lift,<span style='color:red'>Fail,<span style='color:green'>Lift,<span style='color:green'>Lift,<span style='color:green'>Lift,<span style='color:green'>Lift,<span style='color:red'>Fail","<span style='color:red'>Fail,<span style='color:green'>Lift,<span style='color:green'>Lift,<span style='color:red'>Fail,<span style='color:green'>Lift,<span style='color:green'>Lift","0,0,1,1,0,0,0,0,1,0,1,0","0,0,1,1,1,1,0,1,1,1,1,0","0,1,1,0,1,1",10,20,20,"","","","","{""box1"":""7"",""box2"":""7"",""box3"":""36"",""box4"":""40""}","",NA,3,"round1_outcome",1,3,1,7,7,36,40,1,1,10,7,7,36,40,1,1,10,NA,NA,NA,NA,NA,NA,NA,NA,NA,NA,NA,NA,NA,NA,NA,NA,NA,NA,NA,NA,NA,NA,"",NA,NA,NA,NA,NA,NA,NA,NA,2025-11-20 23:18:11
"10335.59999999404","https://psyc-201.github.io/xiang2023/exp/index1.html?PROLIFIC_PID=REDACTED&STUDY_ID=691f8ca61c6b4dcbb0aeb5f4&SESSION_ID=691f9d3853960b2144461833","survey-html-form",25,793502,"0.0-327.0","H3rJAP/djuEwslz7I3IbBhmWCcZoEXHVuzV4OmVxMQhtxXnmTcYXfhEHrtwdDjgWdhEz3d5s0Cd6mQKSbl8EPC0o676sFMbyg32qyGkLG/D7II/SctGsRQH7n2nvVtEuqmvNF00XkgmICyaeqZxE+3OWc3ZYXkFMMuarD8EfbIubMuqGUs+IKqY/rzHk/8I6cefCUr4mj5wj1jP7isWhON9uh79ws8L/Br4J0TsQgsOovvYcT47iauB+zxf13v4TTP3k/W8oyBdaF/TWfzA9SFC4OywqznAEwhknuVh6AomtiaCUHZD/CGBwjJQFQ4WpiZQHZwE7If1YcgVzsinyyw==","691f8ca61c6b4dcbb0aeb5f4","691f9d3853960b2144461833","index1","<span style='color:red'>Fail,<span style='color:red'>Fail,<span style='color:green'>Lift,<span style='color:green'>Lift,<span style='color:red'>Fail,<span style='color:red'>Fail,<span style='color:red'>Fail,<span style='color:red'>Fail,<span style='color:green'>Lift,<span style='color:red'>Fail,<span style='color:green'>Lift,<span style='color:red'>Fail","<span style='color:red'>Fail,<span style='color:red'>Fail,<span style='color:green'>Lift,<span style='color:green'>Lift,<span style='color:green'>Lift,<span style='color:green'>Lift,<span style='color:red'>Fail,<span style='color:green'>Lift,<span style='color:green'>Lift,<span style='color:green'>Lift,<span style='color:green'>Lift,<span style='color:red'>Fail","<span style='color:red'>Fail,<span style='color:green'>Lift,<span style='color:green'>Lift,<span style='color:red'>Fail,<span style='color:green'>Lift,<span style='color:green'>Lift","0,0,1,1,0,0,0,0,1,0,1,0","0,0,1,1,1,1,0,1,1,1,1,0","0,1,1,0,1,1",10,20,20,"","","","","{""box1"":""100"",""box2"":""100""}","",NA,3,"round2_ready",2,3,2,NA,NA,NA,NA,NA,NA,NA,NA,NA,NA,NA,NA,NA,NA,100,100,100,100,NA,NA,NA,NA,NA,NA,NA,NA,NA,NA,NA,NA,NA,NA,NA,NA,NA,NA,"",NA,NA,NA,NA,NA,NA,NA,NA,2025-11-20 23:18:11
"17118.30000001192","https://psyc-201.github.io/xiang2023/exp/index1.html?PROLIFIC_PID=REDACTED&STUDY_ID=691f8ca61c6b4dcbb0aeb5f4&SESSION_ID=691f9d3853960b2144461833","survey-html-form",26,810622,"0.0-328.0","H3rJAP/djuEwslz7I3IbBhmWCcZoEXHVuzV4OmVxMQhtxXnmTcYXfhEHrtwdDjgWdhEz3d5s0Cd6mQKSbl8EPC0o676sFMbyg32qyGkLG/D7II/SctGsRQH7n2nvVtEuqmvNF00XkgmICyaeqZxE+3OWc3ZYXkFMMuarD8EfbIubMuqGUs+IKqY/rzHk/8I6cefCUr4mj5wj1jP7isWhON9uh79ws8L/Br4J0TsQgsOovvYcT47iauB+zxf13v4TTP3k/W8oyBdaF/TWfzA9SFC4OywqznAEwhknuVh6AomtiaCUHZD/CGBwjJQFQ4WpiZQHZwE7If1YcgVzsinyyw==","691f8ca61c6b4dcbb0aeb5f4","691f9d3853960b2144461833","index1","<span style='color:red'>Fail,<span style='color:red'>Fail,<span style='color:green'>Lift,<span style='color:green'>Lift,<span style='color:red'>Fail,<span style='color:red'>Fail,<span style='color:red'>Fail,<span style='color:red'>Fail,<span style='color:green'>Lift,<span style='color:red'>Fail,<span style='color:green'>Lift,<span style='color:red'>Fail","<span style='color:red'>Fail,<span style='color:red'>Fail,<span style='color:green'>Lift,<span style='color:green'>Lift,<span style='color:green'>Lift,<span style='color:green'>Lift,<span style='color:red'>Fail,<span style='color:green'>Lift,<span style='color:green'>Lift,<span style='color:green'>Lift,<span style='color:green'>Lift,<span style='color:red'>Fail","<span style='color:red'>Fail,<span style='color:green'>Lift,<span style='color:green'>Lift,<span style='color:red'>Fail,<span style='color:green'>Lift,<span style='color:green'>Lift","0,0,1,1,0,0,0,0,1,0,1,0","0,0,1,1,1,1,0,1,1,1,1,0","0,1,1,0,1,1",10,20,20,"","","","","{""box1"":""8"",""box2"":""8"",""box3"":""30"",""box4"":""30""}","",NA,3,"round2_outcome",3,3,2,8,8,30,30,1,1,20,NA,NA,NA,NA,NA,NA,NA,NA,NA,NA,NA,8,8,30,30,1,1,20,NA,NA,NA,NA,NA,NA,NA,NA,NA,NA,NA,"",NA,NA,NA,NA,NA,NA,NA,NA,2025-11-20 23:18:11
"5510.799999982119","https://psyc-201.github.io/xiang2023/exp/index1.html?PROLIFIC_PID=REDACTED&STUDY_ID=691f8ca61c6b4dcbb0aeb5f4&SESSION_ID=691f9d3853960b2144461833","survey-html-form",27,816133,"0.0-329.0","H3rJAP/djuEwslz7I3IbBhmWCcZoEXHVuzV4OmVxMQhtxXnmTcYXfhEHrtwdDjgWdhEz3d5s0Cd6mQKSbl8EPC0o676sFMbyg32qyGkLG/D7II/SctGsRQH7n2nvVtEuqmvNF00XkgmICyaeqZxE+3OWc3ZYXkFMMuarD8EfbIubMuqGUs+IKqY/rzHk/8I6cefCUr4mj5wj1jP7isWhON9uh79ws8L/Br4J0TsQgsOovvYcT47iauB+zxf13v4TTP3k/W8oyBdaF/TWfzA9SFC4OywqznAEwhknuVh6AomtiaCUHZD/CGBwjJQFQ4WpiZQHZwE7If1YcgVzsinyyw==","691f8ca61c6b4dcbb0aeb5f4","691f9d3853960b2144461833","index1","<span style='color:red'>Fail,<span style='color:red'>Fail,<span style='color:green'>Lift,<span style='color:green'>Lift,<span style='color:red'>Fail,<span style='color:red'>Fail,<span style='color:red'>Fail,<span style='color:red'>Fail,<span style='color:green'>Lift,<span style='color:red'>Fail,<span style='color:green'>Lift,<span style='color:red'>Fail","<span style='color:red'>Fail,<span style='color:red'>Fail,<span style='color:green'>Lift,<span style='color:green'>Lift,<span style='color:green'>Lift,<span style='color:green'>Lift,<span style='color:red'>Fail,<span style='color:green'>Lift,<span style='color:green'>Lift,<span style='color:green'>Lift,<span style='color:green'>Lift,<span style='color:red'>Fail","<span style='color:red'>Fail,<span style='color:green'>Lift,<span style='color:green'>Lift,<span style='color:red'>Fail,<span style='color:green'>Lift,<span style='color:green'>Lift","0,0,1,1,0,0,0,0,1,0,1,0","0,0,1,1,1,1,0,1,1,1,1,0","0,1,1,0,1,1",10,20,20,"","","","","{""box1"":""100""}","",NA,3,"round3_ready",4,3,3,NA,NA,NA,NA,NA,NA,NA,NA,NA,NA,NA,NA,NA,NA,100,100,NA,NA,NA,NA,NA,NA,NA,NA,NA,100,100,NA,NA,NA,NA,NA,NA,NA,NA,NA,"",NA,NA,NA,NA,NA,NA,NA,NA,2025-11-20 23:18:11
"18880.09999999404","https://psyc-201.github.io/xiang2023/exp/index1.html?PROLIFIC_PID=REDACTED&STUDY_ID=691f8ca61c6b4dcbb0aeb5f4&SESSION_ID=691f9d3853960b2144461833","survey-html-form",28,835014,"0.0-330.0-0.0","H3rJAP/djuEwslz7I3IbBhmWCcZoEXHVuzV4OmVxMQhtxXnmTcYXfhEHrtwdDjgWdhEz3d5s0Cd6mQKSbl8EPC0o676sFMbyg32qyGkLG/D7II/SctGsRQH7n2nvVtEuqmvNF00XkgmICyaeqZxE+3OWc3ZYXkFMMuarD8EfbIubMuqGUs+IKqY/rzHk/8I6cefCUr4mj5wj1jP7isWhON9uh79ws8L/Br4J0TsQgsOovvYcT47iauB+zxf13v4TTP3k/W8oyBdaF/TWfzA9SFC4OywqznAEwhknuVh6AomtiaCUHZD/CGBwjJQFQ4WpiZQHZwE7If1YcgVzsinyyw==","691f8ca61c6b4dcbb0aeb5f4","691f9d3853960b2144461833","index1","<span style='color:red'>Fail,<span style='color:red'>Fail,<span style='color:green'>Lift,<span style='color:green'>Lift,<span style='color:red'>Fail,<span style='color:red'>Fail,<span style='color:red'>Fail,<span style='color:red'>Fail,<span style='color:green'>Lift,<span style='color:red'>Fail,<span style='color:green'>Lift,<span style='color:red'>Fail","<span style='color:red'>Fail,<span style='color:red'>Fail,<span style='color:green'>Lift,<span style='color:green'>Lift,<span style='color:green'>Lift,<span style='color:green'>Lift,<span style='color:red'>Fail,<span style='color:green'>Lift,<span style='color:green'>Lift,<span style='color:green'>Lift,<span style='color:green'>Lift,<span style='color:red'>Fail","<span style='color:red'>Fail,<span style='color:green'>Lift,<span style='color:green'>Lift,<span style='color:red'>Fail,<span style='color:green'>Lift,<span style='color:green'>Lift","0,0,1,1,0,0,0,0,1,0,1,0","0,0,1,1,1,1,0,1,1,1,1,0","0,1,1,0,1,1",10,20,20,"","","","","{""box1"":""7"",""box2"":""7"",""box3"":""20"",""box4"":""20""}","",NA,4,"round3_lift",5,3,3,7,7,20,20,1,1,20,NA,NA,NA,NA,NA,NA,NA,NA,NA,NA,NA,NA,NA,NA,NA,NA,NA,NA,NA,NA,7,7,20,20,1,1,20,NA,NA,"",NA,NA,NA,NA,NA,NA,NA,NA,2025-11-20 23:18:11
"null","https://psyc-201.github.io/xiang2023/exp/index1.html?PROLIFIC_PID=REDACTED&STUDY_ID=691f8ca61c6b4dcbb0aeb5f4&SESSION_ID=691f9d3853960b2144461833","html-keyboard-response",29,838020,"0.0-334.0","H3rJAP/djuEwslz7I3IbBhmWCcZoEXHVuzV4OmVxMQhtxXnmTcYXfhEHrtwdDjgWdhEz3d5s0Cd6mQKSbl8EPC0o676sFMbyg32qyGkLG/D7II/SctGsRQH7n2nvVtEuqmvNF00XkgmICyaeqZxE+3OWc3ZYXkFMMuarD8EfbIubMuqGUs+IKqY/rzHk/8I6cefCUr4mj5wj1jP7isWhON9uh79ws8L/Br4J0TsQgsOovvYcT47iauB+zxf13v4TTP3k/W8oyBdaF/TWfzA9SFC4OywqznAEwhknuVh6AomtiaCUHZD/CGBwjJQFQ4WpiZQHZwE7If1YcgVzsinyyw==","691f8ca61c6b4dcbb0aeb5f4","691f9d3853960b2144461833","index1","<span style='color:red'>Fail,<span style='color:red'>Fail,<span style='color:green'>Lift,<span style='color:green'>Lift,<span style='color:red'>Fail,<span style='color:red'>Fail,<span style='color:red'>Fail,<span style='color:red'>Fail,<span style='color:green'>Lift,<span style='color:red'>Fail,<span style='color:green'>Lift,<span style='color:red'>Fail","<span style='color:red'>Fail,<span style='color:red'>Fail,<span style='color:green'>Lift,<span style='color:green'>Lift,<span style='color:green'>Lift,<span style='color:green'>Lift,<span style='color:red'>Fail,<span style='color:green'>Lift,<span style='color:green'>Lift,<span style='color:green'>Lift,<span style='color:green'>Lift,<span style='color:red'>Fail","<span style='color:red'>Fail,<span style='color:green'>Lift,<span style='color:green'>Lift,<span style='color:red'>Fail,<span style='color:green'>Lift,<span style='color:green'>Lift","0,0,1,1,0,0,0,0,1,0,1,0","0,0,1,1,1,1,0,1,1,1,1,0","0,1,1,0,1,1",10,20,20,"","","<p style='font-size:30px'><b> New Contest! </b></p>","null","","",NA,4,"",NA,NA,NA,NA,NA,NA,NA,NA,NA,NA,NA,NA,NA,NA,NA,NA,NA,NA,NA,NA,NA,NA,NA,NA,NA,NA,NA,NA,NA,NA,NA,NA,NA,NA,NA,NA,NA,NA,NA,"",NA,NA,NA,NA,NA,NA,NA,NA,2025-11-20 23:18:11
"7504.699999988079","https://psyc-201.github.io/xiang2023/exp/index1.html?PROLIFIC_PID=REDACTED&STUDY_ID=691f8ca61c6b4dcbb0aeb5f4&SESSION_ID=691f9d3853960b2144461833","survey-html-form",30,845526,"0.0-335.0","H3rJAP/djuEwslz7I3IbBhmWCcZoEXHVuzV4OmVxMQhtxXnmTcYXfhEHrtwdDjgWdhEz3d5s0Cd6mQKSbl8EPC0o676sFMbyg32qyGkLG/D7II/SctGsRQH7n2nvVtEuqmvNF00XkgmICyaeqZxE+3OWc3ZYXkFMMuarD8EfbIubMuqGUs+IKqY/rzHk/8I6cefCUr4mj5wj1jP7isWhON9uh79ws8L/Br4J0TsQgsOovvYcT47iauB+zxf13v4TTP3k/W8oyBdaF/TWfzA9SFC4OywqznAEwhknuVh6AomtiaCUHZD/CGBwjJQFQ4WpiZQHZwE7If1YcgVzsinyyw==","691f8ca61c6b4dcbb0aeb5f4","691f9d3853960b2144461833","index1","<span style='color:red'>Fail,<span style='color:red'>Fail,<span style='color:green'>Lift,<span style='color:green'>Lift,<span style='color:red'>Fail,<span style='color:red'>Fail,<span style='color:red'>Fail,<span style='color:red'>Fail,<span style='color:green'>Lift,<span style='color:red'>Fail,<span style='color:green'>Lift,<span style='color:red'>Fail","<span style='color:red'>Fail,<span style='color:red'>Fail,<span style='color:green'>Lift,<span style='color:green'>Lift,<span style='color:green'>Lift,<span style='color:green'>Lift,<span style='color:red'>Fail,<span style='color:green'>Lift,<span style='color:green'>Lift,<span style='color:green'>Lift,<span style='color:green'>Lift,<span style='color:red'>Fail","<span style='color:red'>Fail,<span style='color:green'>Lift,<span style='color:green'>Lift,<span style='color:red'>Fail,<span style='color:green'>Lift,<span style='color:green'>Lift","0,0,1,1,0,0,0,0,1,0,1,0","0,0,1,1,1,1,0,1,1,1,1,0","0,1,1,0,1,1",10,20,20,"","","","","{""box1"":""3"",""box2"":""3""}","",NA,4,"round1_outcome",1,4,1,3,3,NA,NA,0,0,10,3,3,NA,NA,0,0,10,NA,NA,NA,NA,NA,NA,NA,NA,NA,NA,NA,NA,NA,NA,NA,NA,NA,NA,NA,NA,NA,NA,"",NA,NA,NA,NA,NA,NA,NA,NA,2025-11-20 23:18:11
"9167.300000011921","https://psyc-201.github.io/xiang2023/exp/index1.html?PROLIFIC_PID=REDACTED&STUDY_ID=691f8ca61c6b4dcbb0aeb5f4&SESSION_ID=691f9d3853960b2144461833","survey-html-form",31,854694,"0.0-336.0","H3rJAP/djuEwslz7I3IbBhmWCcZoEXHVuzV4OmVxMQhtxXnmTcYXfhEHrtwdDjgWdhEz3d5s0Cd6mQKSbl8EPC0o676sFMbyg32qyGkLG/D7II/SctGsRQH7n2nvVtEuqmvNF00XkgmICyaeqZxE+3OWc3ZYXkFMMuarD8EfbIubMuqGUs+IKqY/rzHk/8I6cefCUr4mj5wj1jP7isWhON9uh79ws8L/Br4J0TsQgsOovvYcT47iauB+zxf13v4TTP3k/W8oyBdaF/TWfzA9SFC4OywqznAEwhknuVh6AomtiaCUHZD/CGBwjJQFQ4WpiZQHZwE7If1YcgVzsinyyw==","691f8ca61c6b4dcbb0aeb5f4","691f9d3853960b2144461833","index1","<span style='color:red'>Fail,<span style='color:red'>Fail,<span style='color:green'>Lift,<span style='color:green'>Lift,<span style='color:red'>Fail,<span style='color:red'>Fail,<span style='color:red'>Fail,<span style='color:red'>Fail,<span style='color:green'>Lift,<span style='color:red'>Fail,<span style='color:green'>Lift,<span style='color:red'>Fail","<span style='color:red'>Fail,<span style='color:red'>Fail,<span style='color:green'>Lift,<span style='color:green'>Lift,<span style='color:green'>Lift,<span style='color:green'>Lift,<span style='color:red'>Fail,<span style='color:green'>Lift,<span style='color:green'>Lift,<span style='color:green'>Lift,<span style='color:green'>Lift,<span style='color:red'>Fail","<span style='color:red'>Fail,<span style='color:green'>Lift,<span style='color:green'>Lift,<span style='color:red'>Fail,<span style='color:green'>Lift,<span style='color:green'>Lift","0,0,1,1,0,0,0,0,1,0,1,0","0,0,1,1,1,1,0,1,1,1,1,0","0,1,1,0,1,1",10,20,20,"","","","","{""box1"":""51"",""box2"":""49""}","",NA,4,"round2_ready",2,4,2,NA,NA,NA,NA,NA,NA,NA,NA,NA,NA,NA,NA,NA,NA,51,49,51,49,NA,NA,NA,NA,NA,NA,NA,NA,NA,NA,NA,NA,NA,NA,NA,NA,NA,NA,"",NA,NA,NA,NA,NA,NA,NA,NA,2025-11-20 23:18:11
"19791.40000000596","https://psyc-201.github.io/xiang2023/exp/index1.html?PROLIFIC_PID=REDACTED&STUDY_ID=691f8ca61c6b4dcbb0aeb5f4&SESSION_ID=691f9d3853960b2144461833","survey-html-form",32,874486,"0.0-337.0","H3rJAP/djuEwslz7I3IbBhmWCcZoEXHVuzV4OmVxMQhtxXnmTcYXfhEHrtwdDjgWdhEz3d5s0Cd6mQKSbl8EPC0o676sFMbyg32qyGkLG/D7II/SctGsRQH7n2nvVtEuqmvNF00XkgmICyaeqZxE+3OWc3ZYXkFMMuarD8EfbIubMuqGUs+IKqY/rzHk/8I6cefCUr4mj5wj1jP7isWhON9uh79ws8L/Br4J0TsQgsOovvYcT47iauB+zxf13v4TTP3k/W8oyBdaF/TWfzA9SFC4OywqznAEwhknuVh6AomtiaCUHZD/CGBwjJQFQ4WpiZQHZwE7If1YcgVzsinyyw==","691f8ca61c6b4dcbb0aeb5f4","691f9d3853960b2144461833","index1","<span style='color:red'>Fail,<span style='color:red'>Fail,<span style='color:green'>Lift,<span style='color:green'>Lift,<span style='color:red'>Fail,<span style='color:red'>Fail,<span style='color:red'>Fail,<span style='color:red'>Fail,<span style='color:green'>Lift,<span style='color:red'>Fail,<span style='color:green'>Lift,<span style='color:red'>Fail","<span style='color:red'>Fail,<span style='color:red'>Fail,<span style='color:green'>Lift,<span style='color:green'>Lift,<span style='color:green'>Lift,<span style='color:green'>Lift,<span style='color:red'>Fail,<span style='color:green'>Lift,<span style='color:green'>Lift,<span style='color:green'>Lift,<span style='color:green'>Lift,<span style='color:red'>Fail","<span style='color:red'>Fail,<span style='color:green'>Lift,<span style='color:green'>Lift,<span style='color:red'>Fail,<span style='color:green'>Lift,<span style='color:green'>Lift","0,0,1,1,0,0,0,0,1,0,1,0","0,0,1,1,1,1,0,1,1,1,1,0","0,1,1,0,1,1",10,20,20,"","","","","{""box1"":""2"",""box2"":""6"",""box4"":""40""}","",NA,4,"round2_outcome",3,4,2,2,6,NA,40,0,1,20,NA,NA,NA,NA,NA,NA,NA,NA,NA,NA,NA,2,6,NA,40,0,1,20,NA,NA,NA,NA,NA,NA,NA,NA,NA,NA,NA,"",NA,NA,NA,NA,NA,NA,NA,NA,2025-11-20 23:18:11
"8023.5999999940395","https://psyc-201.github.io/xiang2023/exp/index1.html?PROLIFIC_PID=REDACTED&STUDY_ID=691f8ca61c6b4dcbb0aeb5f4&SESSION_ID=691f9d3853960b2144461833","survey-html-form",33,882511,"0.0-338.0","H3rJAP/djuEwslz7I3IbBhmWCcZoEXHVuzV4OmVxMQhtxXnmTcYXfhEHrtwdDjgWdhEz3d5s0Cd6mQKSbl8EPC0o676sFMbyg32qyGkLG/D7II/SctGsRQH7n2nvVtEuqmvNF00XkgmICyaeqZxE+3OWc3ZYXkFMMuarD8EfbIubMuqGUs+IKqY/rzHk/8I6cefCUr4mj5wj1jP7isWhON9uh79ws8L/Br4J0TsQgsOovvYcT47iauB+zxf13v4TTP3k/W8oyBdaF/TWfzA9SFC4OywqznAEwhknuVh6AomtiaCUHZD/CGBwjJQFQ4WpiZQHZwE7If1YcgVzsinyyw==","691f8ca61c6b4dcbb0aeb5f4","691f9d3853960b2144461833","index1","<span style='color:red'>Fail,<span style='color:red'>Fail,<span style='color:green'>Lift,<span style='color:green'>Lift,<span style='color:red'>Fail,<span style='color:red'>Fail,<span style='color:red'>Fail,<span style='color:red'>Fail,<span style='color:green'>Lift,<span style='color:red'>Fail,<span style='color:green'>Lift,<span style='color:red'>Fail","<span style='color:red'>Fail,<span style='color:red'>Fail,<span style='color:green'>Lift,<span style='color:green'>Lift,<span style='color:green'>Lift,<span style='color:green'>Lift,<span style='color:red'>Fail,<span style='color:green'>Lift,<span style='color:green'>Lift,<span style='color:green'>Lift,<span style='color:green'>Lift,<span style='color:red'>Fail","<span style='color:red'>Fail,<span style='color:green'>Lift,<span style='color:green'>Lift,<span style='color:red'>Fail,<span style='color:green'>Lift,<span style='color:green'>Lift","0,0,1,1,0,0,0,0,1,0,1,0","0,0,1,1,1,1,0,1,1,1,1,0","0,1,1,0,1,1",10,20,20,"","","","","{""box1"":""95""}","",NA,4,"round3_ready",4,4,3,NA,NA,NA,NA,NA,NA,NA,NA,NA,NA,NA,NA,NA,NA,95,95,NA,NA,NA,NA,NA,NA,NA,NA,NA,95,95,NA,NA,NA,NA,NA,NA,NA,NA,NA,"",NA,NA,NA,NA,NA,NA,NA,NA,2025-11-20 23:18:11
"17535.09999999404","https://psyc-201.github.io/xiang2023/exp/index1.html?PROLIFIC_PID=REDACTED&STUDY_ID=691f8ca61c6b4dcbb0aeb5f4&SESSION_ID=691f9d3853960b2144461833","survey-html-form",34,900047,"0.0-340.0-0.0","H3rJAP/djuEwslz7I3IbBhmWCcZoEXHVuzV4OmVxMQhtxXnmTcYXfhEHrtwdDjgWdhEz3d5s0Cd6mQKSbl8EPC0o676sFMbyg32qyGkLG/D7II/SctGsRQH7n2nvVtEuqmvNF00XkgmICyaeqZxE+3OWc3ZYXkFMMuarD8EfbIubMuqGUs+IKqY/rzHk/8I6cefCUr4mj5wj1jP7isWhON9uh79ws8L/Br4J0TsQgsOovvYcT47iauB+zxf13v4TTP3k/W8oyBdaF/TWfzA9SFC4OywqznAEwhknuVh6AomtiaCUHZD/CGBwjJQFQ4WpiZQHZwE7If1YcgVzsinyyw==","691f8ca61c6b4dcbb0aeb5f4","691f9d3853960b2144461833","index1","<span style='color:red'>Fail,<span style='color:red'>Fail,<span style='color:green'>Lift,<span style='color:green'>Lift,<span style='color:red'>Fail,<span style='color:red'>Fail,<span style='color:red'>Fail,<span style='color:red'>Fail,<span style='color:green'>Lift,<span style='color:red'>Fail,<span style='color:green'>Lift,<span style='color:red'>Fail","<span style='color:red'>Fail,<span style='color:red'>Fail,<span style='color:green'>Lift,<span style='color:green'>Lift,<span style='color:green'>Lift,<span style='color:green'>Lift,<span style='color:red'>Fail,<span style='color:green'>Lift,<span style='color:green'>Lift,<span style='color:green'>Lift,<span style='color:green'>Lift,<span style='color:red'>Fail","<span style='color:red'>Fail,<span style='color:green'>Lift,<span style='color:green'>Lift,<span style='color:red'>Fail,<span style='color:green'>Lift,<span style='color:green'>Lift","0,0,1,1,0,0,0,0,1,0,1,0","0,0,1,1,1,1,0,1,1,1,1,0","0,1,1,0,1,1",10,20,20,"","","","","{""box1"":""1"",""box2"":""5"",""box3"":""999"",""box4"":""999""}","",NA,5,"round3_fail",5,4,3,1,5,NA,NA,0,0,20,NA,NA,NA,NA,NA,NA,NA,NA,NA,NA,NA,NA,NA,NA,NA,NA,NA,NA,NA,NA,1,5,NA,NA,0,0,20,1,1,"",NA,NA,NA,NA,NA,NA,NA,NA,2025-11-20 23:18:11
"null","https://psyc-201.github.io/xiang2023/exp/index1.html?PROLIFIC_PID=REDACTED&STUDY_ID=691f8ca61c6b4dcbb0aeb5f4&SESSION_ID=691f9d3853960b2144461833","html-keyboard-response",35,903055,"0.0-343.0","H3rJAP/djuEwslz7I3IbBhmWCcZoEXHVuzV4OmVxMQhtxXnmTcYXfhEHrtwdDjgWdhEz3d5s0Cd6mQKSbl8EPC0o676sFMbyg32qyGkLG/D7II/SctGsRQH7n2nvVtEuqmvNF00XkgmICyaeqZxE+3OWc3ZYXkFMMuarD8EfbIubMuqGUs+IKqY/rzHk/8I6cefCUr4mj5wj1jP7isWhON9uh79ws8L/Br4J0TsQgsOovvYcT47iauB+zxf13v4TTP3k/W8oyBdaF/TWfzA9SFC4OywqznAEwhknuVh6AomtiaCUHZD/CGBwjJQFQ4WpiZQHZwE7If1YcgVzsinyyw==","691f8ca61c6b4dcbb0aeb5f4","691f9d3853960b2144461833","index1","<span style='color:red'>Fail,<span style='color:red'>Fail,<span style='color:green'>Lift,<span style='color:green'>Lift,<span style='color:red'>Fail,<span style='color:red'>Fail,<span style='color:red'>Fail,<span style='color:red'>Fail,<span style='color:green'>Lift,<span style='color:red'>Fail,<span style='color:green'>Lift,<span style='color:red'>Fail","<span style='color:red'>Fail,<span style='color:red'>Fail,<span style='color:green'>Lift,<span style='color:green'>Lift,<span style='color:green'>Lift,<span style='color:green'>Lift,<span style='color:red'>Fail,<span style='color:green'>Lift,<span style='color:green'>Lift,<span style='color:green'>Lift,<span style='color:green'>Lift,<span style='color:red'>Fail","<span style='color:red'>Fail,<span style='color:green'>Lift,<span style='color:green'>Lift,<span style='color:red'>Fail,<span style='color:green'>Lift,<span style='color:green'>Lift","0,0,1,1,0,0,0,0,1,0,1,0","0,0,1,1,1,1,0,1,1,1,1,0","0,1,1,0,1,1",10,20,20,"","","<p style='font-size:30px'><b> New Contest! </b></p>","null","","",NA,5,"",NA,NA,NA,NA,NA,NA,NA,NA,NA,NA,NA,NA,NA,NA,NA,NA,NA,NA,NA,NA,NA,NA,NA,NA,NA,NA,NA,NA,NA,NA,NA,NA,NA,NA,NA,NA,NA,NA,NA,"",NA,NA,NA,NA,NA,NA,NA,NA,2025-11-20 23:18:11
"26167.30000001192","https://psyc-201.github.io/xiang2023/exp/index1.html?PROLIFIC_PID=REDACTED&STUDY_ID=691f8ca61c6b4dcbb0aeb5f4&SESSION_ID=691f9d3853960b2144461833","survey-html-form",36,929223,"0.0-344.0","H3rJAP/djuEwslz7I3IbBhmWCcZoEXHVuzV4OmVxMQhtxXnmTcYXfhEHrtwdDjgWdhEz3d5s0Cd6mQKSbl8EPC0o676sFMbyg32qyGkLG/D7II/SctGsRQH7n2nvVtEuqmvNF00XkgmICyaeqZxE+3OWc3ZYXkFMMuarD8EfbIubMuqGUs+IKqY/rzHk/8I6cefCUr4mj5wj1jP7isWhON9uh79ws8L/Br4J0TsQgsOovvYcT47iauB+zxf13v4TTP3k/W8oyBdaF/TWfzA9SFC4OywqznAEwhknuVh6AomtiaCUHZD/CGBwjJQFQ4WpiZQHZwE7If1YcgVzsinyyw==","691f8ca61c6b4dcbb0aeb5f4","691f9d3853960b2144461833","index1","<span style='color:red'>Fail,<span style='color:red'>Fail,<span style='color:green'>Lift,<span style='color:green'>Lift,<span style='color:red'>Fail,<span style='color:red'>Fail,<span style='color:red'>Fail,<span style='color:red'>Fail,<span style='color:green'>Lift,<span style='color:red'>Fail,<span style='color:green'>Lift,<span style='color:red'>Fail","<span style='color:red'>Fail,<span style='color:red'>Fail,<span style='color:green'>Lift,<span style='color:green'>Lift,<span style='color:green'>Lift,<span style='color:green'>Lift,<span style='color:red'>Fail,<span style='color:green'>Lift,<span style='color:green'>Lift,<span style='color:green'>Lift,<span style='color:green'>Lift,<span style='color:red'>Fail","<span style='color:red'>Fail,<span style='color:green'>Lift,<span style='color:green'>Lift,<span style='color:red'>Fail,<span style='color:green'>Lift,<span style='color:green'>Lift","0,0,1,1,0,0,0,0,1,0,1,0","0,0,1,1,1,1,0,1,1,1,1,0","0,1,1,0,1,1",10,20,20,"","","","","{""box1"":""5"",""box2"":""2"",""box3"":""40""}","",NA,5,"round1_outcome",1,5,1,5,2,40,NA,1,0,10,5,2,40,NA,1,0,10,NA,NA,NA,NA,NA,NA,NA,NA,NA,NA,NA,NA,NA,NA,NA,NA,NA,NA,NA,NA,NA,NA,"",NA,NA,NA,NA,NA,NA,NA,NA,2025-11-20 23:18:11
"9311.09999999404","https://psyc-201.github.io/xiang2023/exp/index1.html?PROLIFIC_PID=REDACTED&STUDY_ID=691f8ca61c6b4dcbb0aeb5f4&SESSION_ID=691f9d3853960b2144461833","survey-html-form",37,938535,"0.0-345.0","H3rJAP/djuEwslz7I3IbBhmWCcZoEXHVuzV4OmVxMQhtxXnmTcYXfhEHrtwdDjgWdhEz3d5s0Cd6mQKSbl8EPC0o676sFMbyg32qyGkLG/D7II/SctGsRQH7n2nvVtEuqmvNF00XkgmICyaeqZxE+3OWc3ZYXkFMMuarD8EfbIubMuqGUs+IKqY/rzHk/8I6cefCUr4mj5wj1jP7isWhON9uh79ws8L/Br4J0TsQgsOovvYcT47iauB+zxf13v4TTP3k/W8oyBdaF/TWfzA9SFC4OywqznAEwhknuVh6AomtiaCUHZD/CGBwjJQFQ4WpiZQHZwE7If1YcgVzsinyyw==","691f8ca61c6b4dcbb0aeb5f4","691f9d3853960b2144461833","index1","<span style='color:red'>Fail,<span style='color:red'>Fail,<span style='color:green'>Lift,<span style='color:green'>Lift,<span style='color:red'>Fail,<span style='color:red'>Fail,<span style='color:red'>Fail,<span style='color:red'>Fail,<span style='color:green'>Lift,<span style='color:red'>Fail,<span style='color:green'>Lift,<span style='color:red'>Fail","<span style='color:red'>Fail,<span style='color:red'>Fail,<span style='color:green'>Lift,<span style='color:green'>Lift,<span style='color:green'>Lift,<span style='color:green'>Lift,<span style='color:red'>Fail,<span style='color:green'>Lift,<span style='color:green'>Lift,<span style='color:green'>Lift,<span style='color:green'>Lift,<span style='color:red'>Fail","<span style='color:red'>Fail,<span style='color:green'>Lift,<span style='color:green'>Lift,<span style='color:red'>Fail,<span style='color:green'>Lift,<span style='color:green'>Lift","0,0,1,1,0,0,0,0,1,0,1,0","0,0,1,1,1,1,0,1,1,1,1,0","0,1,1,0,1,1",10,20,20,"","","","","{""box1"":""100"",""box2"":""75""}","",NA,5,"round2_ready",2,5,2,NA,NA,NA,NA,NA,NA,NA,NA,NA,NA,NA,NA,NA,NA,100,75,100,75,NA,NA,NA,NA,NA,NA,NA,NA,NA,NA,NA,NA,NA,NA,NA,NA,NA,NA,"",NA,NA,NA,NA,NA,NA,NA,NA,2025-11-20 23:18:11
"19279.5","https://psyc-201.github.io/xiang2023/exp/index1.html?PROLIFIC_PID=REDACTED&STUDY_ID=691f8ca61c6b4dcbb0aeb5f4&SESSION_ID=691f9d3853960b2144461833","survey-html-form",38,957816,"0.0-346.0","H3rJAP/djuEwslz7I3IbBhmWCcZoEXHVuzV4OmVxMQhtxXnmTcYXfhEHrtwdDjgWdhEz3d5s0Cd6mQKSbl8EPC0o676sFMbyg32qyGkLG/D7II/SctGsRQH7n2nvVtEuqmvNF00XkgmICyaeqZxE+3OWc3ZYXkFMMuarD8EfbIubMuqGUs+IKqY/rzHk/8I6cefCUr4mj5wj1jP7isWhON9uh79ws8L/Br4J0TsQgsOovvYcT47iauB+zxf13v4TTP3k/W8oyBdaF/TWfzA9SFC4OywqznAEwhknuVh6AomtiaCUHZD/CGBwjJQFQ4WpiZQHZwE7If1YcgVzsinyyw==","691f8ca61c6b4dcbb0aeb5f4","691f9d3853960b2144461833","index1","<span style='color:red'>Fail,<span style='color:red'>Fail,<span style='color:green'>Lift,<span style='color:green'>Lift,<span style='color:red'>Fail,<span style='color:red'>Fail,<span style='color:red'>Fail,<span style='color:red'>Fail,<span style='color:green'>Lift,<span style='color:red'>Fail,<span style='color:green'>Lift,<span style='color:red'>Fail","<span style='color:red'>Fail,<span style='color:red'>Fail,<span style='color:green'>Lift,<span style='color:green'>Lift,<span style='color:green'>Lift,<span style='color:green'>Lift,<span style='color:red'>Fail,<span style='color:green'>Lift,<span style='color:green'>Lift,<span style='color:green'>Lift,<span style='color:green'>Lift,<span style='color:red'>Fail","<span style='color:red'>Fail,<span style='color:green'>Lift,<span style='color:green'>Lift,<span style='color:red'>Fail,<span style='color:green'>Lift,<span style='color:green'>Lift","0,0,1,1,0,0,0,0,1,0,1,0","0,0,1,1,1,1,0,1,1,1,1,0","0,1,1,0,1,1",10,20,20,"","","","","{""box1"":""6"",""box2"":""5"",""box3"":""30"",""box4"":""30""}","",NA,5,"round2_outcome",3,5,2,6,5,30,30,1,1,20,NA,NA,NA,NA,NA,NA,NA,NA,NA,NA,NA,6,5,30,30,1,1,20,NA,NA,NA,NA,NA,NA,NA,NA,NA,NA,NA,"",NA,NA,NA,NA,NA,NA,NA,NA,2025-11-20 23:18:11
"5238.799999982119","https://psyc-201.github.io/xiang2023/exp/index1.html?PROLIFIC_PID=REDACTED&STUDY_ID=691f8ca61c6b4dcbb0aeb5f4&SESSION_ID=691f9d3853960b2144461833","survey-html-form",39,963055,"0.0-347.0","H3rJAP/djuEwslz7I3IbBhmWCcZoEXHVuzV4OmVxMQhtxXnmTcYXfhEHrtwdDjgWdhEz3d5s0Cd6mQKSbl8EPC0o676sFMbyg32qyGkLG/D7II/SctGsRQH7n2nvVtEuqmvNF00XkgmICyaeqZxE+3OWc3ZYXkFMMuarD8EfbIubMuqGUs+IKqY/rzHk/8I6cefCUr4mj5wj1jP7isWhON9uh79ws8L/Br4J0TsQgsOovvYcT47iauB+zxf13v4TTP3k/W8oyBdaF/TWfzA9SFC4OywqznAEwhknuVh6AomtiaCUHZD/CGBwjJQFQ4WpiZQHZwE7If1YcgVzsinyyw==","691f8ca61c6b4dcbb0aeb5f4","691f9d3853960b2144461833","index1","<span style='color:red'>Fail,<span style='color:red'>Fail,<span style='color:green'>Lift,<span style='color:green'>Lift,<span style='color:red'>Fail,<span style='color:red'>Fail,<span style='color:red'>Fail,<span style='color:red'>Fail,<span style='color:green'>Lift,<span style='color:red'>Fail,<span style='color:green'>Lift,<span style='color:red'>Fail","<span style='color:red'>Fail,<span style='color:red'>Fail,<span style='color:green'>Lift,<span style='color:green'>Lift,<span style='color:green'>Lift,<span style='color:green'>Lift,<span style='color:red'>Fail,<span style='color:green'>Lift,<span style='color:green'>Lift,<span style='color:green'>Lift,<span style='color:green'>Lift,<span style='color:red'>Fail","<span style='color:red'>Fail,<span style='color:green'>Lift,<span style='color:green'>Lift,<span style='color:red'>Fail,<span style='color:green'>Lift,<span style='color:green'>Lift","0,0,1,1,0,0,0,0,1,0,1,0","0,0,1,1,1,1,0,1,1,1,1,0","0,1,1,0,1,1",10,20,20,"","","","","{""box1"":""100""}","",NA,5,"round3_ready",4,5,3,NA,NA,NA,NA,NA,NA,NA,NA,NA,NA,NA,NA,NA,NA,100,100,NA,NA,NA,NA,NA,NA,NA,NA,NA,100,100,NA,NA,NA,NA,NA,NA,NA,NA,NA,"",NA,NA,NA,NA,NA,NA,NA,NA,2025-11-20 23:18:11
"15711.5","https://psyc-201.github.io/xiang2023/exp/index1.html?PROLIFIC_PID=REDACTED&STUDY_ID=691f8ca61c6b4dcbb0aeb5f4&SESSION_ID=691f9d3853960b2144461833","survey-html-form",40,978768,"0.0-348.0-0.0","H3rJAP/djuEwslz7I3IbBhmWCcZoEXHVuzV4OmVxMQhtxXnmTcYXfhEHrtwdDjgWdhEz3d5s0Cd6mQKSbl8EPC0o676sFMbyg32qyGkLG/D7II/SctGsRQH7n2nvVtEuqmvNF00XkgmICyaeqZxE+3OWc3ZYXkFMMuarD8EfbIubMuqGUs+IKqY/rzHk/8I6cefCUr4mj5wj1jP7isWhON9uh79ws8L/Br4J0TsQgsOovvYcT47iauB+zxf13v4TTP3k/W8oyBdaF/TWfzA9SFC4OywqznAEwhknuVh6AomtiaCUHZD/CGBwjJQFQ4WpiZQHZwE7If1YcgVzsinyyw==","691f8ca61c6b4dcbb0aeb5f4","691f9d3853960b2144461833","index1","<span style='color:red'>Fail,<span style='color:red'>Fail,<span style='color:green'>Lift,<span style='color:green'>Lift,<span style='color:red'>Fail,<span style='color:red'>Fail,<span style='color:red'>Fail,<span style='color:red'>Fail,<span style='color:green'>Lift,<span style='color:red'>Fail,<span style='color:green'>Lift,<span style='color:red'>Fail","<span style='color:red'>Fail,<span style='color:red'>Fail,<span style='color:green'>Lift,<span style='color:green'>Lift,<span style='color:green'>Lift,<span style='color:green'>Lift,<span style='color:red'>Fail,<span style='color:green'>Lift,<span style='color:green'>Lift,<span style='color:green'>Lift,<span style='color:green'>Lift,<span style='color:red'>Fail","<span style='color:red'>Fail,<span style='color:green'>Lift,<span style='color:green'>Lift,<span style='color:red'>Fail,<span style='color:green'>Lift,<span style='color:green'>Lift","0,0,1,1,0,0,0,0,1,0,1,0","0,0,1,1,1,1,0,1,1,1,1,0","0,1,1,0,1,1",10,20,20,"","","","","{""box1"":""7"",""box2"":""5"",""box3"":""30"",""box4"":""20""}","",NA,6,"round3_lift",5,5,3,7,5,30,20,1,1,20,NA,NA,NA,NA,NA,NA,NA,NA,NA,NA,NA,NA,NA,NA,NA,NA,NA,NA,NA,NA,7,5,30,20,1,1,20,NA,NA,"",NA,NA,NA,NA,NA,NA,NA,NA,2025-11-20 23:18:11
"null","https://psyc-201.github.io/xiang2023/exp/index1.html?PROLIFIC_PID=REDACTED&STUDY_ID=691f8ca61c6b4dcbb0aeb5f4&SESSION_ID=691f9d3853960b2144461833","html-keyboard-response",41,981773,"0.0-352.0","H3rJAP/djuEwslz7I3IbBhmWCcZoEXHVuzV4OmVxMQhtxXnmTcYXfhEHrtwdDjgWdhEz3d5s0Cd6mQKSbl8EPC0o676sFMbyg32qyGkLG/D7II/SctGsRQH7n2nvVtEuqmvNF00XkgmICyaeqZxE+3OWc3ZYXkFMMuarD8EfbIubMuqGUs+IKqY/rzHk/8I6cefCUr4mj5wj1jP7isWhON9uh79ws8L/Br4J0TsQgsOovvYcT47iauB+zxf13v4TTP3k/W8oyBdaF/TWfzA9SFC4OywqznAEwhknuVh6AomtiaCUHZD/CGBwjJQFQ4WpiZQHZwE7If1YcgVzsinyyw==","691f8ca61c6b4dcbb0aeb5f4","691f9d3853960b2144461833","index1","<span style='color:red'>Fail,<span style='color:red'>Fail,<span style='color:green'>Lift,<span style='color:green'>Lift,<span style='color:red'>Fail,<span style='color:red'>Fail,<span style='color:red'>Fail,<span style='color:red'>Fail,<span style='color:green'>Lift,<span style='color:red'>Fail,<span style='color:green'>Lift,<span style='color:red'>Fail","<span style='color:red'>Fail,<span style='color:red'>Fail,<span style='color:green'>Lift,<span style='color:green'>Lift,<span style='color:green'>Lift,<span style='color:green'>Lift,<span style='color:red'>Fail,<span style='color:green'>Lift,<span style='color:green'>Lift,<span style='color:green'>Lift,<span style='color:green'>Lift,<span style='color:red'>Fail","<span style='color:red'>Fail,<span style='color:green'>Lift,<span style='color:green'>Lift,<span style='color:red'>Fail,<span style='color:green'>Lift,<span style='color:green'>Lift","0,0,1,1,0,0,0,0,1,0,1,0","0,0,1,1,1,1,0,1,1,1,1,0","0,1,1,0,1,1",10,20,20,"","","<p style='font-size:30px'><b> New Contest! </b></p>","null","","",NA,6,"",NA,NA,NA,NA,NA,NA,NA,NA,NA,NA,NA,NA,NA,NA,NA,NA,NA,NA,NA,NA,NA,NA,NA,NA,NA,NA,NA,NA,NA,NA,NA,NA,NA,NA,NA,NA,NA,NA,NA,"",NA,NA,NA,NA,NA,NA,NA,NA,2025-11-20 23:18:11
"16234.399999976158","https://psyc-201.github.io/xiang2023/exp/index1.html?PROLIFIC_PID=REDACTED&STUDY_ID=691f8ca61c6b4dcbb0aeb5f4&SESSION_ID=691f9d3853960b2144461833","survey-html-form",42,998008,"0.0-353.0","H3rJAP/djuEwslz7I3IbBhmWCcZoEXHVuzV4OmVxMQhtxXnmTcYXfhEHrtwdDjgWdhEz3d5s0Cd6mQKSbl8EPC0o676sFMbyg32qyGkLG/D7II/SctGsRQH7n2nvVtEuqmvNF00XkgmICyaeqZxE+3OWc3ZYXkFMMuarD8EfbIubMuqGUs+IKqY/rzHk/8I6cefCUr4mj5wj1jP7isWhON9uh79ws8L/Br4J0TsQgsOovvYcT47iauB+zxf13v4TTP3k/W8oyBdaF/TWfzA9SFC4OywqznAEwhknuVh6AomtiaCUHZD/CGBwjJQFQ4WpiZQHZwE7If1YcgVzsinyyw==","691f8ca61c6b4dcbb0aeb5f4","691f9d3853960b2144461833","index1","<span style='color:red'>Fail,<span style='color:red'>Fail,<span style='color:green'>Lift,<span style='color:green'>Lift,<span style='color:red'>Fail,<span style='color:red'>Fail,<span style='color:red'>Fail,<span style='color:red'>Fail,<span style='color:green'>Lift,<span style='color:red'>Fail,<span style='color:green'>Lift,<span style='color:red'>Fail","<span style='color:red'>Fail,<span style='color:red'>Fail,<span style='color:green'>Lift,<span style='color:green'>Lift,<span style='color:green'>Lift,<span style='color:green'>Lift,<span style='color:red'>Fail,<span style='color:green'>Lift,<span style='color:green'>Lift,<span style='color:green'>Lift,<span style='color:green'>Lift,<span style='color:red'>Fail","<span style='color:red'>Fail,<span style='color:green'>Lift,<span style='color:green'>Lift,<span style='color:red'>Fail,<span style='color:green'>Lift,<span style='color:green'>Lift","0,0,1,1,0,0,0,0,1,0,1,0","0,0,1,1,1,1,0,1,1,1,1,0","0,1,1,0,1,1",10,20,20,"","","","","{""box1"":""5"",""box2"":""2"",""box3"":""40""}","",NA,6,"round1_outcome",1,6,1,5,2,40,NA,1,0,10,5,2,40,NA,1,0,10,NA,NA,NA,NA,NA,NA,NA,NA,NA,NA,NA,NA,NA,NA,NA,NA,NA,NA,NA,NA,NA,NA,"",NA,NA,NA,NA,NA,NA,NA,NA,2025-11-20 23:18:11
"9799.59999999404","https://psyc-201.github.io/xiang2023/exp/index1.html?PROLIFIC_PID=REDACTED&STUDY_ID=691f8ca61c6b4dcbb0aeb5f4&SESSION_ID=691f9d3853960b2144461833","survey-html-form",43,1007809,"0.0-354.0","H3rJAP/djuEwslz7I3IbBhmWCcZoEXHVuzV4OmVxMQhtxXnmTcYXfhEHrtwdDjgWdhEz3d5s0Cd6mQKSbl8EPC0o676sFMbyg32qyGkLG/D7II/SctGsRQH7n2nvVtEuqmvNF00XkgmICyaeqZxE+3OWc3ZYXkFMMuarD8EfbIubMuqGUs+IKqY/rzHk/8I6cefCUr4mj5wj1jP7isWhON9uh79ws8L/Br4J0TsQgsOovvYcT47iauB+zxf13v4TTP3k/W8oyBdaF/TWfzA9SFC4OywqznAEwhknuVh6AomtiaCUHZD/CGBwjJQFQ4WpiZQHZwE7If1YcgVzsinyyw==","691f8ca61c6b4dcbb0aeb5f4","691f9d3853960b2144461833","index1","<span style='color:red'>Fail,<span style='color:red'>Fail,<span style='color:green'>Lift,<span style='color:green'>Lift,<span style='color:red'>Fail,<span style='color:red'>Fail,<span style='color:red'>Fail,<span style='color:red'>Fail,<span style='color:green'>Lift,<span style='color:red'>Fail,<span style='color:green'>Lift,<span style='color:red'>Fail","<span style='color:red'>Fail,<span style='color:red'>Fail,<span style='color:green'>Lift,<span style='color:green'>Lift,<span style='color:green'>Lift,<span style='color:green'>Lift,<span style='color:red'>Fail,<span style='color:green'>Lift,<span style='color:green'>Lift,<span style='color:green'>Lift,<span style='color:green'>Lift,<span style='color:red'>Fail","<span style='color:red'>Fail,<span style='color:green'>Lift,<span style='color:green'>Lift,<span style='color:red'>Fail,<span style='color:green'>Lift,<span style='color:green'>Lift","0,0,1,1,0,0,0,0,1,0,1,0","0,0,1,1,1,1,0,1,1,1,1,0","0,1,1,0,1,1",10,20,20,"","","","","{""box1"":""100"",""box2"":""70""}","",NA,6,"round2_ready",2,6,2,NA,NA,NA,NA,NA,NA,NA,NA,NA,NA,NA,NA,NA,NA,100,70,100,70,NA,NA,NA,NA,NA,NA,NA,NA,NA,NA,NA,NA,NA,NA,NA,NA,NA,NA,"",NA,NA,NA,NA,NA,NA,NA,NA,2025-11-20 23:18:11
"11622.800000011921","https://psyc-201.github.io/xiang2023/exp/index1.html?PROLIFIC_PID=REDACTED&STUDY_ID=691f8ca61c6b4dcbb0aeb5f4&SESSION_ID=691f9d3853960b2144461833","survey-html-form",44,1019433,"0.0-355.0","H3rJAP/djuEwslz7I3IbBhmWCcZoEXHVuzV4OmVxMQhtxXnmTcYXfhEHrtwdDjgWdhEz3d5s0Cd6mQKSbl8EPC0o676sFMbyg32qyGkLG/D7II/SctGsRQH7n2nvVtEuqmvNF00XkgmICyaeqZxE+3OWc3ZYXkFMMuarD8EfbIubMuqGUs+IKqY/rzHk/8I6cefCUr4mj5wj1jP7isWhON9uh79ws8L/Br4J0TsQgsOovvYcT47iauB+zxf13v4TTP3k/W8oyBdaF/TWfzA9SFC4OywqznAEwhknuVh6AomtiaCUHZD/CGBwjJQFQ4WpiZQHZwE7If1YcgVzsinyyw==","691f8ca61c6b4dcbb0aeb5f4","691f9d3853960b2144461833","index1","<span style='color:red'>Fail,<span style='color:red'>Fail,<span style='color:green'>Lift,<span style='color:green'>Lift,<span style='color:red'>Fail,<span style='color:red'>Fail,<span style='color:red'>Fail,<span style='color:red'>Fail,<span style='color:green'>Lift,<span style='color:red'>Fail,<span style='color:green'>Lift,<span style='color:red'>Fail","<span style='color:red'>Fail,<span style='color:red'>Fail,<span style='color:green'>Lift,<span style='color:green'>Lift,<span style='color:green'>Lift,<span style='color:green'>Lift,<span style='color:red'>Fail,<span style='color:green'>Lift,<span style='color:green'>Lift,<span style='color:green'>Lift,<span style='color:green'>Lift,<span style='color:red'>Fail","<span style='color:red'>Fail,<span style='color:green'>Lift,<span style='color:green'>Lift,<span style='color:red'>Fail,<span style='color:green'>Lift,<span style='color:green'>Lift","0,0,1,1,0,0,0,0,1,0,1,0","0,0,1,1,1,1,0,1,1,1,1,0","0,1,1,0,1,1",10,20,20,"","","","","{""box1"":""6"",""box2"":""2"",""box3"":""40""}","",NA,6,"round2_outcome",3,6,2,6,2,40,NA,1,0,20,NA,NA,NA,NA,NA,NA,NA,NA,NA,NA,NA,6,2,40,NA,1,0,20,NA,NA,NA,NA,NA,NA,NA,NA,NA,NA,NA,"",NA,NA,NA,NA,NA,NA,NA,NA,2025-11-20 23:18:11
"9053.699999988079","https://psyc-201.github.io/xiang2023/exp/index1.html?PROLIFIC_PID=REDACTED&STUDY_ID=691f8ca61c6b4dcbb0aeb5f4&SESSION_ID=691f9d3853960b2144461833","survey-html-form",45,1028488,"0.0-356.0","H3rJAP/djuEwslz7I3IbBhmWCcZoEXHVuzV4OmVxMQhtxXnmTcYXfhEHrtwdDjgWdhEz3d5s0Cd6mQKSbl8EPC0o676sFMbyg32qyGkLG/D7II/SctGsRQH7n2nvVtEuqmvNF00XkgmICyaeqZxE+3OWc3ZYXkFMMuarD8EfbIubMuqGUs+IKqY/rzHk/8I6cefCUr4mj5wj1jP7isWhON9uh79ws8L/Br4J0TsQgsOovvYcT47iauB+zxf13v4TTP3k/W8oyBdaF/TWfzA9SFC4OywqznAEwhknuVh6AomtiaCUHZD/CGBwjJQFQ4WpiZQHZwE7If1YcgVzsinyyw==","691f8ca61c6b4dcbb0aeb5f4","691f9d3853960b2144461833","index1","<span style='color:red'>Fail,<span style='color:red'>Fail,<span style='color:green'>Lift,<span style='color:green'>Lift,<span style='color:red'>Fail,<span style='color:red'>Fail,<span style='color:red'>Fail,<span style='color:red'>Fail,<span style='color:green'>Lift,<span style='color:red'>Fail,<span style='color:green'>Lift,<span style='color:red'>Fail","<span style='color:red'>Fail,<span style='color:red'>Fail,<span style='color:green'>Lift,<span style='color:green'>Lift,<span style='color:green'>Lift,<span style='color:green'>Lift,<span style='color:red'>Fail,<span style='color:green'>Lift,<span style='color:green'>Lift,<span style='color:green'>Lift,<span style='color:green'>Lift,<span style='color:red'>Fail","<span style='color:red'>Fail,<span style='color:green'>Lift,<span style='color:green'>Lift,<span style='color:red'>Fail,<span style='color:green'>Lift,<span style='color:green'>Lift","0,0,1,1,0,0,0,0,1,0,1,0","0,0,1,1,1,1,0,1,1,1,1,0","0,1,1,0,1,1",10,20,20,"","","","","{""box1"":""70""}","",NA,6,"round3_ready",4,6,3,NA,NA,NA,NA,NA,NA,NA,NA,NA,NA,NA,NA,NA,NA,70,70,NA,NA,NA,NA,NA,NA,NA,NA,NA,70,70,NA,NA,NA,NA,NA,NA,NA,NA,NA,"",NA,NA,NA,NA,NA,NA,NA,NA,2025-11-20 23:18:11
"21192.29999998212","https://psyc-201.github.io/xiang2023/exp/index1.html?PROLIFIC_PID=REDACTED&STUDY_ID=691f8ca61c6b4dcbb0aeb5f4&SESSION_ID=691f9d3853960b2144461833","survey-html-form",46,1049681,"0.0-357.0-0.0","H3rJAP/djuEwslz7I3IbBhmWCcZoEXHVuzV4OmVxMQhtxXnmTcYXfhEHrtwdDjgWdhEz3d5s0Cd6mQKSbl8EPC0o676sFMbyg32qyGkLG/D7II/SctGsRQH7n2nvVtEuqmvNF00XkgmICyaeqZxE+3OWc3ZYXkFMMuarD8EfbIubMuqGUs+IKqY/rzHk/8I6cefCUr4mj5wj1jP7isWhON9uh79ws8L/Br4J0TsQgsOovvYcT47iauB+zxf13v4TTP3k/W8oyBdaF/TWfzA9SFC4OywqznAEwhknuVh6AomtiaCUHZD/CGBwjJQFQ4WpiZQHZwE7If1YcgVzsinyyw==","691f8ca61c6b4dcbb0aeb5f4","691f9d3853960b2144461833","index1","<span style='color:red'>Fail,<span style='color:red'>Fail,<span style='color:green'>Lift,<span style='color:green'>Lift,<span style='color:red'>Fail,<span style='color:red'>Fail,<span style='color:red'>Fail,<span style='color:red'>Fail,<span style='color:green'>Lift,<span style='color:red'>Fail,<span style='color:green'>Lift,<span style='color:red'>Fail","<span style='color:red'>Fail,<span style='color:red'>Fail,<span style='color:green'>Lift,<span style='color:green'>Lift,<span style='color:green'>Lift,<span style='color:green'>Lift,<span style='color:red'>Fail,<span style='color:green'>Lift,<span style='color:green'>Lift,<span style='color:green'>Lift,<span style='color:green'>Lift,<span style='color:red'>Fail","<span style='color:red'>Fail,<span style='color:green'>Lift,<span style='color:green'>Lift,<span style='color:red'>Fail,<span style='color:green'>Lift,<span style='color:green'>Lift","0,0,1,1,0,0,0,0,1,0,1,0","0,0,1,1,1,1,0,1,1,1,1,0","0,1,1,0,1,1",10,20,20,"","","","","{""box1"":""8"",""box2"":""2"",""box3"":""50"",""box4"":""20""}","",NA,6,"round3_lift",5,6,3,8,2,50,20,1,1,20,NA,NA,NA,NA,NA,NA,NA,NA,NA,NA,NA,NA,NA,NA,NA,NA,NA,NA,NA,NA,8,2,50,20,1,1,20,NA,NA,"",NA,NA,NA,NA,NA,NA,NA,NA,2025-11-20 23:18:11
"42742.30000001192","https://psyc-201.github.io/xiang2023/exp/index1.html?PROLIFIC_PID=REDACTED&STUDY_ID=691f8ca61c6b4dcbb0aeb5f4&SESSION_ID=691f9d3853960b2144461833","survey-text",47,1092425,"0.0-361.0","H3rJAP/djuEwslz7I3IbBhmWCcZoEXHVuzV4OmVxMQhtxXnmTcYXfhEHrtwdDjgWdhEz3d5s0Cd6mQKSbl8EPC0o676sFMbyg32qyGkLG/D7II/SctGsRQH7n2nvVtEuqmvNF00XkgmICyaeqZxE+3OWc3ZYXkFMMuarD8EfbIubMuqGUs+IKqY/rzHk/8I6cefCUr4mj5wj1jP7isWhON9uh79ws8L/Br4J0TsQgsOovvYcT47iauB+zxf13v4TTP3k/W8oyBdaF/TWfzA9SFC4OywqznAEwhknuVh6AomtiaCUHZD/CGBwjJQFQ4WpiZQHZwE7If1YcgVzsinyyw==","691f8ca61c6b4dcbb0aeb5f4","691f9d3853960b2144461833","index1","<span style='color:red'>Fail,<span style='color:red'>Fail,<span style='color:green'>Lift,<span style='color:green'>Lift,<span style='color:red'>Fail,<span style='color:red'>Fail,<span style='color:red'>Fail,<span style='color:red'>Fail,<span style='color:green'>Lift,<span style='color:red'>Fail,<span style='color:green'>Lift,<span style='color:red'>Fail","<span style='color:red'>Fail,<span style='color:red'>Fail,<span style='color:green'>Lift,<span style='color:green'>Lift,<span style='color:green'>Lift,<span style='color:green'>Lift,<span style='color:red'>Fail,<span style='color:green'>Lift,<span style='color:green'>Lift,<span style='color:green'>Lift,<span style='color:green'>Lift,<span style='color:red'>Fail","<span style='color:red'>Fail,<span style='color:green'>Lift,<span style='color:green'>Lift,<span style='color:red'>Fail,<span style='color:green'>Lift,<span style='color:green'>Lift","0,0,1,1,0,0,0,0,1,0,1,0","0,0,1,1,1,1,0,1,1,1,1,0","0,1,1,0,1,1",10,20,20,"","","","","{""Q0"":""I had to predict how strong and how much effort was put into lifting a box. I made predictions based of their previous efforts.""}","",NA,NA,"",NA,NA,NA,NA,NA,NA,NA,NA,NA,NA,NA,NA,NA,NA,NA,NA,NA,NA,NA,NA,NA,NA,NA,NA,NA,NA,NA,NA,NA,NA,NA,NA,NA,NA,NA,NA,NA,NA,NA,"",NA,NA,NA,NA,NA,NA,NA,NA,2025-11-20 23:18:11
"26231","https://psyc-201.github.io/xiang2023/exp/index1.html?PROLIFIC_PID=REDACTED&STUDY_ID=691f8ca61c6b4dcbb0aeb5f4&SESSION_ID=691f9d3853960b2144461833","survey-text",48,1118657,"0.0-362.0","H3rJAP/djuEwslz7I3IbBhmWCcZoEXHVuzV4OmVxMQhtxXnmTcYXfhEHrtwdDjgWdhEz3d5s0Cd6mQKSbl8EPC0o676sFMbyg32qyGkLG/D7II/SctGsRQH7n2nvVtEuqmvNF00XkgmICyaeqZxE+3OWc3ZYXkFMMuarD8EfbIubMuqGUs+IKqY/rzHk/8I6cefCUr4mj5wj1jP7isWhON9uh79ws8L/Br4J0TsQgsOovvYcT47iauB+zxf13v4TTP3k/W8oyBdaF/TWfzA9SFC4OywqznAEwhknuVh6AomtiaCUHZD/CGBwjJQFQ4WpiZQHZwE7If1YcgVzsinyyw==","691f8ca61c6b4dcbb0aeb5f4","691f9d3853960b2144461833","index1","<span style='color:red'>Fail,<span style='color:red'>Fail,<span style='color:green'>Lift,<span style='color:green'>Lift,<span style='color:red'>Fail,<span style='color:red'>Fail,<span style='color:red'>Fail,<span style='color:red'>Fail,<span style='color:green'>Lift,<span style='color:red'>Fail,<span style='color:green'>Lift,<span style='color:red'>Fail","<span style='color:red'>Fail,<span style='color:red'>Fail,<span style='color:green'>Lift,<span style='color:green'>Lift,<span style='color:green'>Lift,<span style='color:green'>Lift,<span style='color:red'>Fail,<span style='color:green'>Lift,<span style='color:green'>Lift,<span style='color:green'>Lift,<span style='color:green'>Lift,<span style='color:red'>Fail","<span style='color:red'>Fail,<span style='color:green'>Lift,<span style='color:green'>Lift,<span style='color:red'>Fail,<span style='color:green'>Lift,<span style='color:green'>Lift","0,0,1,1,0,0,0,0,1,0,1,0","0,0,1,1,1,1,0,1,1,1,1,0","0,1,1,0,1,1",10,20,20,"","","","","{""Q0"":""This was a fun study to try to predict the outcomes.""}","",NA,NA,"",NA,NA,NA,NA,NA,NA,NA,NA,NA,NA,NA,NA,NA,NA,NA,NA,NA,NA,NA,NA,NA,NA,NA,NA,NA,NA,NA,NA,NA,NA,NA,NA,NA,NA,NA,NA,NA,NA,NA,"[{""event"":""fullscreenenter"",""trial"":1,""time"":45348}]",6,3,NA,70,1,0.7,NA,NA,2025-11-20 23:18:11
"12975.699999988079","https://psyc-201.github.io/xiang2023/exp/index1.html?PROLIFIC_PID=REDACTED&STUDY_ID=691f8ca61c6b4dcbb0aeb5f4&SESSION_ID=691f9d3853960b2144461833","html-button-response",49,1131634,"0.0-363.0","H3rJAP/djuEwslz7I3IbBhmWCcZoEXHVuzV4OmVxMQhtxXnmTcYXfhEHrtwdDjgWdhEz3d5s0Cd6mQKSbl8EPC0o676sFMbyg32qyGkLG/D7II/SctGsRQH7n2nvVtEuqmvNF00XkgmICyaeqZxE+3OWc3ZYXkFMMuarD8EfbIubMuqGUs+IKqY/rzHk/8I6cefCUr4mj5wj1jP7isWhON9uh79ws8L/Br4J0TsQgsOovvYcT47iauB+zxf13v4TTP3k/W8oyBdaF/TWfzA9SFC4OywqznAEwhknuVh6AomtiaCUHZD/CGBwjJQFQ4WpiZQHZwE7If1YcgVzsinyyw==","691f8ca61c6b4dcbb0aeb5f4","691f9d3853960b2144461833","index1","<span style='color:red'>Fail,<span style='color:red'>Fail,<span style='color:green'>Lift,<span style='color:green'>Lift,<span style='color:red'>Fail,<span style='color:red'>Fail,<span style='color:red'>Fail,<span style='color:red'>Fail,<span style='color:green'>Lift,<span style='color:red'>Fail,<span style='color:green'>Lift,<span style='color:red'>Fail","<span style='color:red'>Fail,<span style='color:red'>Fail,<span style='color:green'>Lift,<span style='color:green'>Lift,<span style='color:green'>Lift,<span style='color:green'>Lift,<span style='color:red'>Fail,<span style='color:green'>Lift,<span style='color:green'>Lift,<span style='color:green'>Lift,<span style='color:green'>Lift,<span style='color:red'>Fail","<span style='color:red'>Fail,<span style='color:green'>Lift,<span style='color:green'>Lift,<span style='color:red'>Fail,<span style='color:green'>Lift,<span style='color:green'>Lift","0,0,1,1,0,0,0,0,1,0,1,0","0,0,1,1,1,1,0,1,1,1,1,0","0,1,1,0,1,1",10,20,20,"","","<p> We randomly picked <b>Contest 6, Round 3</b> to calculate your bonus. </p><p> The outcome of Contestant K and L on that round is <span style='color:green'>Lift</span>. </p><p> The probability you entered was 70. </p><p><b> You won a bonus of $0.70!</b></p><p> IMPORTANT: Please click 'Next' to complete the game. </p>","","","",0,NA,"",NA,NA,NA,NA,NA,NA,NA,NA,NA,NA,NA,NA,NA,NA,NA,NA,NA,NA,NA,NA,NA,NA,NA,NA,NA,NA,NA,NA,NA,NA,NA,NA,NA,NA,NA,NA,NA,NA,NA,"",NA,NA,NA,NA,NA,NA,2,1,2025-11-20 23:18:11
