"rt","url","trial_type","trial_index","time_elapsed","internal_node_id","encryptedProlificId","studyId","sessionId","expIndex","round1_outcomes","round2_outcomes","round3_outcomes","round1_o","round2_o","round3_o","round1_reward","round2_reward","round3_reward","success","view_history","stimulus","key_press","responses","question_order","j","Stage","stage","contest","round","strength_a","strength_b","effort_a","effort_b","outcome_a","outcome_b","reward","r1_strength_a","r1_strength_b","r1_effort_a","r1_effort_b","r1_outcome_a","r1_outcome_b","r1_reward","probability_a","probability_b","r2_prob_a","r2_prob_b","r2_strength_a","r2_strength_b","r2_effort_a","r2_effort_b","r2_outcome_a","r2_outcome_b","r2_reward","r3_prob_a","r3_prob_b","r3_strength_a","r3_strength_b","r3_effort_a","r3_effort_b","r3_outcome_a","r3_outcome_b","r3_reward","attention_check","count","screen","pick_contest","pick_round","pick_side","trial_probability","trial_outcome","bonus","button_pressed","attention_sum","attention","datapipe_meta.attributes.date_modified"
"82540.69999998808","https://psyc-201.github.io/xiang2023/exp/index1.html?PROLIFIC_PID=REDACTED&STUDY_ID=691f8ca61c6b4dcbb0aeb5f4&SESSION_ID=691fb864ca03c05a1c360eb9","external-html",0,82601,"0.0-0.0","jQbOqBtMvLb1Qpnc2S+JRdQ30jtCnBerP+QTnzvBB9A2WKR49zQGbargoUk+dK+Eng1SEo1ebN4MnWQxegcp2Ep+3//SX/fqoTIPMmLA8U+ONkbD5ETvE49pQU9zNExpatn+z5q6zHUBW/y11J6ZCgwDi2HttFDPAQXaIl0zB0BW7sYQm8ttuN16oDCh0uGlch9pRJTYbkAWQ56xg/9KIq6MOtPiQV+qFMIWQuZ+jgQNhzTOelMUQKTFY/qCzlrJ5jpDlHqLFhZJgLk5NTY+rZitrulTwA4d341+xy5AfZfqx/Tn6XhcnZE1b6BvR1nEtS26Rj0S2jYS/aOEG5s3Dg==","691f8ca61c6b4dcbb0aeb5f4","691fb864ca03c05a1c360eb9","index1","<span style='color:red'>Fail,<span style='color:red'>Fail,<span style='color:green'>Lift,<span style='color:green'>Lift,<span style='color:red'>Fail,<span style='color:red'>Fail,<span style='color:red'>Fail,<span style='color:red'>Fail,<span style='color:red'>Fail,<span style='color:green'>Lift,<span style='color:red'>Fail,<span style='color:green'>Lift","<span style='color:red'>Fail,<span style='color:red'>Fail,<span style='color:green'>Lift,<span style='color:green'>Lift,<span style='color:green'>Lift,<span style='color:green'>Lift,<span style='color:green'>Lift,<span style='color:red'>Fail,<span style='color:green'>Lift,<span style='color:green'>Lift,<span style='color:red'>Fail,<span style='color:green'>Lift","<span style='color:red'>Fail,<span style='color:green'>Lift,<span style='color:green'>Lift,<span style='color:red'>Fail,<span style='color:green'>Lift,<span style='color:green'>Lift","0,0,1,1,0,0,0,0,0,1,0,1","0,0,1,1,1,1,1,0,1,1,0,1","0,1,1,0,1,1",10,20,20,"","","","","","",NA,"",NA,NA,NA,NA,NA,NA,NA,NA,NA,NA,NA,NA,NA,NA,NA,NA,NA,NA,NA,NA,NA,NA,NA,NA,NA,NA,NA,NA,NA,NA,NA,NA,NA,NA,NA,NA,NA,NA,NA,"",NA,NA,NA,NA,NA,NA,NA,NA,NA,2025-11-21 01:05:07
"","https://psyc-201.github.io/xiang2023/exp/index1.html?PROLIFIC_PID=REDACTED&STUDY_ID=691f8ca61c6b4dcbb0aeb5f4&SESSION_ID=691fb864ca03c05a1c360eb9","fullscreen",1,88253,"0.0-1.0","jQbOqBtMvLb1Qpnc2S+JRdQ30jtCnBerP+QTnzvBB9A2WKR49zQGbargoUk+dK+Eng1SEo1ebN4MnWQxegcp2Ep+3//SX/fqoTIPMmLA8U+ONkbD5ETvE49pQU9zNExpatn+z5q6zHUBW/y11J6ZCgwDi2HttFDPAQXaIl0zB0BW7sYQm8ttuN16oDCh0uGlch9pRJTYbkAWQ56xg/9KIq6MOtPiQV+qFMIWQuZ+jgQNhzTOelMUQKTFY/qCzlrJ5jpDlHqLFhZJgLk5NTY+rZitrulTwA4d341+xy5AfZfqx/Tn6XhcnZE1b6BvR1nEtS26Rj0S2jYS/aOEG5s3Dg==","691f8ca61c6b4dcbb0aeb5f4","691fb864ca03c05a1c360eb9","index1","<span style='color:red'>Fail,<span style='color:red'>Fail,<span style='color:green'>Lift,<span style='color:green'>Lift,<span style='color:red'>Fail,<span style='color:red'>Fail,<span style='color:red'>Fail,<span style='color:red'>Fail,<span style='color:red'>Fail,<span style='color:green'>Lift,<span style='color:red'>Fail,<span style='color:green'>Lift","<span style='color:red'>Fail,<span style='color:red'>Fail,<span style='color:green'>Lift,<span style='color:green'>Lift,<span style='color:green'>Lift,<span style='color:green'>Lift,<span style='color:green'>Lift,<span style='color:red'>Fail,<span style='color:green'>Lift,<span style='color:green'>Lift,<span style='color:red'>Fail,<span style='color:green'>Lift","<span style='color:red'>Fail,<span style='color:green'>Lift,<span style='color:green'>Lift,<span style='color:red'>Fail,<span style='color:green'>Lift,<span style='color:green'>Lift","0,0,1,1,0,0,0,0,0,1,0,1","0,0,1,1,1,1,1,0,1,1,0,1","0,1,1,0,1,1",10,20,20,"true","","","","","",NA,"",NA,NA,NA,NA,NA,NA,NA,NA,NA,NA,NA,NA,NA,NA,NA,NA,NA,NA,NA,NA,NA,NA,NA,NA,NA,NA,NA,NA,NA,NA,NA,NA,NA,NA,NA,NA,NA,NA,NA,"",NA,NA,NA,NA,NA,NA,NA,NA,NA,2025-11-21 01:05:07
"102700.69999998808","https://psyc-201.github.io/xiang2023/exp/index1.html?PROLIFIC_PID=REDACTED&STUDY_ID=691f8ca61c6b4dcbb0aeb5f4&SESSION_ID=691fb864ca03c05a1c360eb9","instructions",2,190956,"0.0-2.0","jQbOqBtMvLb1Qpnc2S+JRdQ30jtCnBerP+QTnzvBB9A2WKR49zQGbargoUk+dK+Eng1SEo1ebN4MnWQxegcp2Ep+3//SX/fqoTIPMmLA8U+ONkbD5ETvE49pQU9zNExpatn+z5q6zHUBW/y11J6ZCgwDi2HttFDPAQXaIl0zB0BW7sYQm8ttuN16oDCh0uGlch9pRJTYbkAWQ56xg/9KIq6MOtPiQV+qFMIWQuZ+jgQNhzTOelMUQKTFY/qCzlrJ5jpDlHqLFhZJgLk5NTY+rZitrulTwA4d341+xy5AfZfqx/Tn6XhcnZE1b6BvR1nEtS26Rj0S2jYS/aOEG5s3Dg==","691f8ca61c6b4dcbb0aeb5f4","691fb864ca03c05a1c360eb9","index1","<span style='color:red'>Fail,<span style='color:red'>Fail,<span style='color:green'>Lift,<span style='color:green'>Lift,<span style='color:red'>Fail,<span style='color:red'>Fail,<span style='color:red'>Fail,<span style='color:red'>Fail,<span style='color:red'>Fail,<span style='color:green'>Lift,<span style='color:red'>Fail,<span style='color:green'>Lift","<span style='color:red'>Fail,<span style='color:red'>Fail,<span style='color:green'>Lift,<span style='color:green'>Lift,<span style='color:green'>Lift,<span style='color:green'>Lift,<span style='color:green'>Lift,<span style='color:red'>Fail,<span style='color:green'>Lift,<span style='color:green'>Lift,<span style='color:red'>Fail,<span style='color:green'>Lift","<span style='color:red'>Fail,<span style='color:green'>Lift,<span style='color:green'>Lift,<span style='color:red'>Fail,<span style='color:green'>Lift,<span style='color:green'>Lift","0,0,1,1,0,0,0,0,0,1,0,1","0,0,1,1,1,1,1,0,1,1,0,1","0,1,1,0,1,1",10,20,20,"","[{""page_index"":0,""viewing_time"":19545},{""page_index"":1,""viewing_time"":17839.899999976158},{""page_index"":2,""viewing_time"":11067.800000011921},{""page_index"":3,""viewing_time"":18850.19999998808},{""page_index"":4,""viewing_time"":12542.699999988079},{""page_index"":5,""viewing_time"":15339.300000011921},{""page_index"":6,""viewing_time"":7515.5}]","","","","",NA,"",NA,NA,NA,NA,NA,NA,NA,NA,NA,NA,NA,NA,NA,NA,NA,NA,NA,NA,NA,NA,NA,NA,NA,NA,NA,NA,NA,NA,NA,NA,NA,NA,NA,NA,NA,NA,NA,NA,NA,"",NA,NA,NA,NA,NA,NA,NA,NA,NA,2025-11-21 01:05:07
"null","https://psyc-201.github.io/xiang2023/exp/index1.html?PROLIFIC_PID=REDACTED&STUDY_ID=691f8ca61c6b4dcbb0aeb5f4&SESSION_ID=691fb864ca03c05a1c360eb9","html-keyboard-response",3,191958,"0.0-3.0","jQbOqBtMvLb1Qpnc2S+JRdQ30jtCnBerP+QTnzvBB9A2WKR49zQGbargoUk+dK+Eng1SEo1ebN4MnWQxegcp2Ep+3//SX/fqoTIPMmLA8U+ONkbD5ETvE49pQU9zNExpatn+z5q6zHUBW/y11J6ZCgwDi2HttFDPAQXaIl0zB0BW7sYQm8ttuN16oDCh0uGlch9pRJTYbkAWQ56xg/9KIq6MOtPiQV+qFMIWQuZ+jgQNhzTOelMUQKTFY/qCzlrJ5jpDlHqLFhZJgLk5NTY+rZitrulTwA4d341+xy5AfZfqx/Tn6XhcnZE1b6BvR1nEtS26Rj0S2jYS/aOEG5s3Dg==","691f8ca61c6b4dcbb0aeb5f4","691fb864ca03c05a1c360eb9","index1","<span style='color:red'>Fail,<span style='color:red'>Fail,<span style='color:green'>Lift,<span style='color:green'>Lift,<span style='color:red'>Fail,<span style='color:red'>Fail,<span style='color:red'>Fail,<span style='color:red'>Fail,<span style='color:red'>Fail,<span style='color:green'>Lift,<span style='color:red'>Fail,<span style='color:green'>Lift","<span style='color:red'>Fail,<span style='color:red'>Fail,<span style='color:green'>Lift,<span style='color:green'>Lift,<span style='color:green'>Lift,<span style='color:green'>Lift,<span style='color:green'>Lift,<span style='color:red'>Fail,<span style='color:green'>Lift,<span style='color:green'>Lift,<span style='color:red'>Fail,<span style='color:green'>Lift","<span style='color:red'>Fail,<span style='color:green'>Lift,<span style='color:green'>Lift,<span style='color:red'>Fail,<span style='color:green'>Lift,<span style='color:green'>Lift","0,0,1,1,0,0,0,0,0,1,0,1","0,0,1,1,1,1,1,0,1,1,0,1","0,1,1,0,1,1",10,20,20,"",""," ","null","","",NA,"",NA,NA,NA,NA,NA,NA,NA,NA,NA,NA,NA,NA,NA,NA,NA,NA,NA,NA,NA,NA,NA,NA,NA,NA,NA,NA,NA,NA,NA,NA,NA,NA,NA,NA,NA,NA,NA,NA,NA,"",NA,NA,NA,NA,NA,NA,NA,NA,NA,2025-11-21 01:05:07
"34149.30000001192","https://psyc-201.github.io/xiang2023/exp/index1.html?PROLIFIC_PID=REDACTED&STUDY_ID=691f8ca61c6b4dcbb0aeb5f4&SESSION_ID=691fb864ca03c05a1c360eb9","survey-multi-choice",4,226108,"0.0-4.0","jQbOqBtMvLb1Qpnc2S+JRdQ30jtCnBerP+QTnzvBB9A2WKR49zQGbargoUk+dK+Eng1SEo1ebN4MnWQxegcp2Ep+3//SX/fqoTIPMmLA8U+ONkbD5ETvE49pQU9zNExpatn+z5q6zHUBW/y11J6ZCgwDi2HttFDPAQXaIl0zB0BW7sYQm8ttuN16oDCh0uGlch9pRJTYbkAWQ56xg/9KIq6MOtPiQV+qFMIWQuZ+jgQNhzTOelMUQKTFY/qCzlrJ5jpDlHqLFhZJgLk5NTY+rZitrulTwA4d341+xy5AfZfqx/Tn6XhcnZE1b6BvR1nEtS26Rj0S2jYS/aOEG5s3Dg==","691f8ca61c6b4dcbb0aeb5f4","691fb864ca03c05a1c360eb9","index1","<span style='color:red'>Fail,<span style='color:red'>Fail,<span style='color:green'>Lift,<span style='color:green'>Lift,<span style='color:red'>Fail,<span style='color:red'>Fail,<span style='color:red'>Fail,<span style='color:red'>Fail,<span style='color:red'>Fail,<span style='color:green'>Lift,<span style='color:red'>Fail,<span style='color:green'>Lift","<span style='color:red'>Fail,<span style='color:red'>Fail,<span style='color:green'>Lift,<span style='color:green'>Lift,<span style='color:green'>Lift,<span style='color:green'>Lift,<span style='color:green'>Lift,<span style='color:red'>Fail,<span style='color:green'>Lift,<span style='color:green'>Lift,<span style='color:red'>Fail,<span style='color:green'>Lift","<span style='color:red'>Fail,<span style='color:green'>Lift,<span style='color:green'>Lift,<span style='color:red'>Fail,<span style='color:green'>Lift,<span style='color:green'>Lift","0,0,1,1,0,0,0,0,0,1,0,1","0,0,1,1,1,1,1,0,1,1,0,1","0,1,1,0,1,1",10,20,20,"","","","","{""Q0"":""It consists of multiple contests, each contest with three rounds."",""Q1"":""When a new contest begins."",""Q2"":""The box weight always stays the same (equivalent to strength of 5)."",""Q3"":""Each will get $20."",""Q4"":""How close my guesses are to the actual outcome.""}","[0,1,2,3,4]",NA,"",NA,NA,NA,NA,NA,NA,NA,NA,NA,NA,NA,NA,NA,NA,NA,NA,NA,NA,NA,NA,NA,NA,NA,NA,NA,NA,NA,NA,NA,NA,NA,NA,NA,NA,NA,NA,NA,NA,NA,"",NA,NA,NA,NA,NA,NA,NA,NA,NA,2025-11-21 01:05:07
"12775.899999976158","https://psyc-201.github.io/xiang2023/exp/index1.html?PROLIFIC_PID=REDACTED&STUDY_ID=691f8ca61c6b4dcbb0aeb5f4&SESSION_ID=691fb864ca03c05a1c360eb9","instructions",5,238887,"0.0-305.0","jQbOqBtMvLb1Qpnc2S+JRdQ30jtCnBerP+QTnzvBB9A2WKR49zQGbargoUk+dK+Eng1SEo1ebN4MnWQxegcp2Ep+3//SX/fqoTIPMmLA8U+ONkbD5ETvE49pQU9zNExpatn+z5q6zHUBW/y11J6ZCgwDi2HttFDPAQXaIl0zB0BW7sYQm8ttuN16oDCh0uGlch9pRJTYbkAWQ56xg/9KIq6MOtPiQV+qFMIWQuZ+jgQNhzTOelMUQKTFY/qCzlrJ5jpDlHqLFhZJgLk5NTY+rZitrulTwA4d341+xy5AfZfqx/Tn6XhcnZE1b6BvR1nEtS26Rj0S2jYS/aOEG5s3Dg==","691f8ca61c6b4dcbb0aeb5f4","691fb864ca03c05a1c360eb9","index1","<span style='color:red'>Fail,<span style='color:red'>Fail,<span style='color:green'>Lift,<span style='color:green'>Lift,<span style='color:red'>Fail,<span style='color:red'>Fail,<span style='color:red'>Fail,<span style='color:red'>Fail,<span style='color:red'>Fail,<span style='color:green'>Lift,<span style='color:red'>Fail,<span style='color:green'>Lift","<span style='color:red'>Fail,<span style='color:red'>Fail,<span style='color:green'>Lift,<span style='color:green'>Lift,<span style='color:green'>Lift,<span style='color:green'>Lift,<span style='color:green'>Lift,<span style='color:red'>Fail,<span style='color:green'>Lift,<span style='color:green'>Lift,<span style='color:red'>Fail,<span style='color:green'>Lift","<span style='color:red'>Fail,<span style='color:green'>Lift,<span style='color:green'>Lift,<span style='color:red'>Fail,<span style='color:green'>Lift,<span style='color:green'>Lift","0,0,1,1,0,0,0,0,0,1,0,1","0,0,1,1,1,1,1,0,1,1,0,1","0,1,1,0,1,1",10,20,20,"","[{""page_index"":0,""viewing_time"":7877.800000011921},{""page_index"":1,""viewing_time"":4898}]","","","","",NA,"",NA,NA,NA,NA,NA,NA,NA,NA,NA,NA,NA,NA,NA,NA,NA,NA,NA,NA,NA,NA,NA,NA,NA,NA,NA,NA,NA,NA,NA,NA,NA,NA,NA,NA,NA,NA,NA,NA,NA,"",NA,NA,NA,NA,NA,NA,NA,NA,NA,2025-11-21 01:05:07
"null","https://psyc-201.github.io/xiang2023/exp/index1.html?PROLIFIC_PID=REDACTED&STUDY_ID=691f8ca61c6b4dcbb0aeb5f4&SESSION_ID=691fb864ca03c05a1c360eb9","html-keyboard-response",6,239901,"0.0-306.0","jQbOqBtMvLb1Qpnc2S+JRdQ30jtCnBerP+QTnzvBB9A2WKR49zQGbargoUk+dK+Eng1SEo1ebN4MnWQxegcp2Ep+3//SX/fqoTIPMmLA8U+ONkbD5ETvE49pQU9zNExpatn+z5q6zHUBW/y11J6ZCgwDi2HttFDPAQXaIl0zB0BW7sYQm8ttuN16oDCh0uGlch9pRJTYbkAWQ56xg/9KIq6MOtPiQV+qFMIWQuZ+jgQNhzTOelMUQKTFY/qCzlrJ5jpDlHqLFhZJgLk5NTY+rZitrulTwA4d341+xy5AfZfqx/Tn6XhcnZE1b6BvR1nEtS26Rj0S2jYS/aOEG5s3Dg==","691f8ca61c6b4dcbb0aeb5f4","691fb864ca03c05a1c360eb9","index1","<span style='color:red'>Fail,<span style='color:red'>Fail,<span style='color:green'>Lift,<span style='color:green'>Lift,<span style='color:red'>Fail,<span style='color:red'>Fail,<span style='color:red'>Fail,<span style='color:red'>Fail,<span style='color:red'>Fail,<span style='color:green'>Lift,<span style='color:red'>Fail,<span style='color:green'>Lift","<span style='color:red'>Fail,<span style='color:red'>Fail,<span style='color:green'>Lift,<span style='color:green'>Lift,<span style='color:green'>Lift,<span style='color:green'>Lift,<span style='color:green'>Lift,<span style='color:red'>Fail,<span style='color:green'>Lift,<span style='color:green'>Lift,<span style='color:red'>Fail,<span style='color:green'>Lift","<span style='color:red'>Fail,<span style='color:green'>Lift,<span style='color:green'>Lift,<span style='color:red'>Fail,<span style='color:green'>Lift,<span style='color:green'>Lift","0,0,1,1,0,0,0,0,0,1,0,1","0,0,1,1,1,1,1,0,1,1,0,1","0,1,1,0,1,1",10,20,20,"",""," ","null","","",1,"",NA,NA,NA,NA,NA,NA,NA,NA,NA,NA,NA,NA,NA,NA,NA,NA,NA,NA,NA,NA,NA,NA,NA,NA,NA,NA,NA,NA,NA,NA,NA,NA,NA,NA,NA,NA,NA,NA,NA,"",NA,NA,NA,NA,NA,NA,NA,NA,NA,2025-11-21 01:05:07
"null","https://psyc-201.github.io/xiang2023/exp/index1.html?PROLIFIC_PID=REDACTED&STUDY_ID=691f8ca61c6b4dcbb0aeb5f4&SESSION_ID=691fb864ca03c05a1c360eb9","html-keyboard-response",7,242910,"0.0-307.0","jQbOqBtMvLb1Qpnc2S+JRdQ30jtCnBerP+QTnzvBB9A2WKR49zQGbargoUk+dK+Eng1SEo1ebN4MnWQxegcp2Ep+3//SX/fqoTIPMmLA8U+ONkbD5ETvE49pQU9zNExpatn+z5q6zHUBW/y11J6ZCgwDi2HttFDPAQXaIl0zB0BW7sYQm8ttuN16oDCh0uGlch9pRJTYbkAWQ56xg/9KIq6MOtPiQV+qFMIWQuZ+jgQNhzTOelMUQKTFY/qCzlrJ5jpDlHqLFhZJgLk5NTY+rZitrulTwA4d341+xy5AfZfqx/Tn6XhcnZE1b6BvR1nEtS26Rj0S2jYS/aOEG5s3Dg==","691f8ca61c6b4dcbb0aeb5f4","691fb864ca03c05a1c360eb9","index1","<span style='color:red'>Fail,<span style='color:red'>Fail,<span style='color:green'>Lift,<span style='color:green'>Lift,<span style='color:red'>Fail,<span style='color:red'>Fail,<span style='color:red'>Fail,<span style='color:red'>Fail,<span style='color:red'>Fail,<span style='color:green'>Lift,<span style='color:red'>Fail,<span style='color:green'>Lift","<span style='color:red'>Fail,<span style='color:red'>Fail,<span style='color:green'>Lift,<span style='color:green'>Lift,<span style='color:green'>Lift,<span style='color:green'>Lift,<span style='color:green'>Lift,<span style='color:red'>Fail,<span style='color:green'>Lift,<span style='color:green'>Lift,<span style='color:red'>Fail,<span style='color:green'>Lift","<span style='color:red'>Fail,<span style='color:green'>Lift,<span style='color:green'>Lift,<span style='color:red'>Fail,<span style='color:green'>Lift,<span style='color:green'>Lift","0,0,1,1,0,0,0,0,0,1,0,1","0,0,1,1,1,1,1,0,1,1,0,1","0,1,1,0,1,1",10,20,20,"","","<p style='font-size:30px'><b> New Contest! </b></p>","null","","",1,"",NA,NA,NA,NA,NA,NA,NA,NA,NA,NA,NA,NA,NA,NA,NA,NA,NA,NA,NA,NA,NA,NA,NA,NA,NA,NA,NA,NA,NA,NA,NA,NA,NA,NA,NA,NA,NA,NA,NA,"",NA,NA,NA,NA,NA,NA,NA,NA,NA,2025-11-21 01:05:07
"13023.100000023842","https://psyc-201.github.io/xiang2023/exp/index1.html?PROLIFIC_PID=REDACTED&STUDY_ID=691f8ca61c6b4dcbb0aeb5f4&SESSION_ID=691fb864ca03c05a1c360eb9","survey-html-form",8,255934,"0.0-308.0","jQbOqBtMvLb1Qpnc2S+JRdQ30jtCnBerP+QTnzvBB9A2WKR49zQGbargoUk+dK+Eng1SEo1ebN4MnWQxegcp2Ep+3//SX/fqoTIPMmLA8U+ONkbD5ETvE49pQU9zNExpatn+z5q6zHUBW/y11J6ZCgwDi2HttFDPAQXaIl0zB0BW7sYQm8ttuN16oDCh0uGlch9pRJTYbkAWQ56xg/9KIq6MOtPiQV+qFMIWQuZ+jgQNhzTOelMUQKTFY/qCzlrJ5jpDlHqLFhZJgLk5NTY+rZitrulTwA4d341+xy5AfZfqx/Tn6XhcnZE1b6BvR1nEtS26Rj0S2jYS/aOEG5s3Dg==","691f8ca61c6b4dcbb0aeb5f4","691fb864ca03c05a1c360eb9","index1","<span style='color:red'>Fail,<span style='color:red'>Fail,<span style='color:green'>Lift,<span style='color:green'>Lift,<span style='color:red'>Fail,<span style='color:red'>Fail,<span style='color:red'>Fail,<span style='color:red'>Fail,<span style='color:red'>Fail,<span style='color:green'>Lift,<span style='color:red'>Fail,<span style='color:green'>Lift","<span style='color:red'>Fail,<span style='color:red'>Fail,<span style='color:green'>Lift,<span style='color:green'>Lift,<span style='color:green'>Lift,<span style='color:green'>Lift,<span style='color:green'>Lift,<span style='color:red'>Fail,<span style='color:green'>Lift,<span style='color:green'>Lift,<span style='color:red'>Fail,<span style='color:green'>Lift","<span style='color:red'>Fail,<span style='color:green'>Lift,<span style='color:green'>Lift,<span style='color:red'>Fail,<span style='color:green'>Lift,<span style='color:green'>Lift","0,0,1,1,0,0,0,0,0,1,0,1","0,0,1,1,1,1,1,0,1,1,0,1","0,1,1,0,1,1",10,20,20,"","","","","{""box1"":""2"",""box2"":""2""}","",1,"round1_outcome",1,1,1,2,2,NA,NA,0,0,10,2,2,NA,NA,0,0,10,NA,NA,NA,NA,NA,NA,NA,NA,NA,NA,NA,NA,NA,NA,NA,NA,NA,NA,NA,NA,NA,NA,"",NA,NA,NA,NA,NA,NA,NA,NA,NA,2025-11-21 01:05:07
"14118.800000011921","https://psyc-201.github.io/xiang2023/exp/index1.html?PROLIFIC_PID=REDACTED&STUDY_ID=691f8ca61c6b4dcbb0aeb5f4&SESSION_ID=691fb864ca03c05a1c360eb9","survey-html-form",9,270054,"0.0-309.0","jQbOqBtMvLb1Qpnc2S+JRdQ30jtCnBerP+QTnzvBB9A2WKR49zQGbargoUk+dK+Eng1SEo1ebN4MnWQxegcp2Ep+3//SX/fqoTIPMmLA8U+ONkbD5ETvE49pQU9zNExpatn+z5q6zHUBW/y11J6ZCgwDi2HttFDPAQXaIl0zB0BW7sYQm8ttuN16oDCh0uGlch9pRJTYbkAWQ56xg/9KIq6MOtPiQV+qFMIWQuZ+jgQNhzTOelMUQKTFY/qCzlrJ5jpDlHqLFhZJgLk5NTY+rZitrulTwA4d341+xy5AfZfqx/Tn6XhcnZE1b6BvR1nEtS26Rj0S2jYS/aOEG5s3Dg==","691f8ca61c6b4dcbb0aeb5f4","691fb864ca03c05a1c360eb9","index1","<span style='color:red'>Fail,<span style='color:red'>Fail,<span style='color:green'>Lift,<span style='color:green'>Lift,<span style='color:red'>Fail,<span style='color:red'>Fail,<span style='color:red'>Fail,<span style='color:red'>Fail,<span style='color:red'>Fail,<span style='color:green'>Lift,<span style='color:red'>Fail,<span style='color:green'>Lift","<span style='color:red'>Fail,<span style='color:red'>Fail,<span style='color:green'>Lift,<span style='color:green'>Lift,<span style='color:green'>Lift,<span style='color:green'>Lift,<span style='color:green'>Lift,<span style='color:red'>Fail,<span style='color:green'>Lift,<span style='color:green'>Lift,<span style='color:red'>Fail,<span style='color:green'>Lift","<span style='color:red'>Fail,<span style='color:green'>Lift,<span style='color:green'>Lift,<span style='color:red'>Fail,<span style='color:green'>Lift,<span style='color:green'>Lift","0,0,1,1,0,0,0,0,0,1,0,1","0,0,1,1,1,1,1,0,1,1,0,1","0,1,1,0,1,1",10,20,20,"","","","","{""box1"":""3"",""box2"":""3""}","",1,"round2_ready",2,1,2,NA,NA,NA,NA,NA,NA,NA,NA,NA,NA,NA,NA,NA,NA,3,3,3,3,NA,NA,NA,NA,NA,NA,NA,NA,NA,NA,NA,NA,NA,NA,NA,NA,NA,NA,"",NA,NA,NA,NA,NA,NA,NA,NA,NA,2025-11-21 01:05:07
"19894.700000047684","https://psyc-201.github.io/xiang2023/exp/index1.html?PROLIFIC_PID=REDACTED&STUDY_ID=691f8ca61c6b4dcbb0aeb5f4&SESSION_ID=691fb864ca03c05a1c360eb9","survey-html-form",10,289950,"0.0-310.0","jQbOqBtMvLb1Qpnc2S+JRdQ30jtCnBerP+QTnzvBB9A2WKR49zQGbargoUk+dK+Eng1SEo1ebN4MnWQxegcp2Ep+3//SX/fqoTIPMmLA8U+ONkbD5ETvE49pQU9zNExpatn+z5q6zHUBW/y11J6ZCgwDi2HttFDPAQXaIl0zB0BW7sYQm8ttuN16oDCh0uGlch9pRJTYbkAWQ56xg/9KIq6MOtPiQV+qFMIWQuZ+jgQNhzTOelMUQKTFY/qCzlrJ5jpDlHqLFhZJgLk5NTY+rZitrulTwA4d341+xy5AfZfqx/Tn6XhcnZE1b6BvR1nEtS26Rj0S2jYS/aOEG5s3Dg==","691f8ca61c6b4dcbb0aeb5f4","691fb864ca03c05a1c360eb9","index1","<span style='color:red'>Fail,<span style='color:red'>Fail,<span style='color:green'>Lift,<span style='color:green'>Lift,<span style='color:red'>Fail,<span style='color:red'>Fail,<span style='color:red'>Fail,<span style='color:red'>Fail,<span style='color:red'>Fail,<span style='color:green'>Lift,<span style='color:red'>Fail,<span style='color:green'>Lift","<span style='color:red'>Fail,<span style='color:red'>Fail,<span style='color:green'>Lift,<span style='color:green'>Lift,<span style='color:green'>Lift,<span style='color:green'>Lift,<span style='color:green'>Lift,<span style='color:red'>Fail,<span style='color:green'>Lift,<span style='color:green'>Lift,<span style='color:red'>Fail,<span style='color:green'>Lift","<span style='color:red'>Fail,<span style='color:green'>Lift,<span style='color:green'>Lift,<span style='color:red'>Fail,<span style='color:green'>Lift,<span style='color:green'>Lift","0,0,1,1,0,0,0,0,0,1,0,1","0,0,1,1,1,1,1,0,1,1,0,1","0,1,1,0,1,1",10,20,20,"","","","","{""box1"":""6"",""box2"":""6"",""box3"":""70"",""box4"":""70""}","",1,"round2_outcome",3,1,2,6,6,70,70,1,1,20,NA,NA,NA,NA,NA,NA,NA,NA,NA,NA,NA,6,6,70,70,1,1,20,NA,NA,NA,NA,NA,NA,NA,NA,NA,NA,NA,"",NA,NA,NA,NA,NA,NA,NA,NA,NA,2025-11-21 01:05:07
"4910.699999988079","https://psyc-201.github.io/xiang2023/exp/index1.html?PROLIFIC_PID=REDACTED&STUDY_ID=691f8ca61c6b4dcbb0aeb5f4&SESSION_ID=691fb864ca03c05a1c360eb9","survey-html-form",11,294862,"0.0-311.0","jQbOqBtMvLb1Qpnc2S+JRdQ30jtCnBerP+QTnzvBB9A2WKR49zQGbargoUk+dK+Eng1SEo1ebN4MnWQxegcp2Ep+3//SX/fqoTIPMmLA8U+ONkbD5ETvE49pQU9zNExpatn+z5q6zHUBW/y11J6ZCgwDi2HttFDPAQXaIl0zB0BW7sYQm8ttuN16oDCh0uGlch9pRJTYbkAWQ56xg/9KIq6MOtPiQV+qFMIWQuZ+jgQNhzTOelMUQKTFY/qCzlrJ5jpDlHqLFhZJgLk5NTY+rZitrulTwA4d341+xy5AfZfqx/Tn6XhcnZE1b6BvR1nEtS26Rj0S2jYS/aOEG5s3Dg==","691f8ca61c6b4dcbb0aeb5f4","691fb864ca03c05a1c360eb9","index1","<span style='color:red'>Fail,<span style='color:red'>Fail,<span style='color:green'>Lift,<span style='color:green'>Lift,<span style='color:red'>Fail,<span style='color:red'>Fail,<span style='color:red'>Fail,<span style='color:red'>Fail,<span style='color:red'>Fail,<span style='color:green'>Lift,<span style='color:red'>Fail,<span style='color:green'>Lift","<span style='color:red'>Fail,<span style='color:red'>Fail,<span style='color:green'>Lift,<span style='color:green'>Lift,<span style='color:green'>Lift,<span style='color:green'>Lift,<span style='color:green'>Lift,<span style='color:red'>Fail,<span style='color:green'>Lift,<span style='color:green'>Lift,<span style='color:red'>Fail,<span style='color:green'>Lift","<span style='color:red'>Fail,<span style='color:green'>Lift,<span style='color:green'>Lift,<span style='color:red'>Fail,<span style='color:green'>Lift,<span style='color:green'>Lift","0,0,1,1,0,0,0,0,0,1,0,1","0,0,1,1,1,1,1,0,1,1,0,1","0,1,1,0,1,1",10,20,20,"","","","","{""box1"":""90""}","",1,"round3_ready",4,1,3,NA,NA,NA,NA,NA,NA,NA,NA,NA,NA,NA,NA,NA,NA,90,90,NA,NA,NA,NA,NA,NA,NA,NA,NA,90,90,NA,NA,NA,NA,NA,NA,NA,NA,NA,"",NA,NA,NA,NA,NA,NA,NA,NA,NA,2025-11-21 01:05:07
"13006.699999988079","https://psyc-201.github.io/xiang2023/exp/index1.html?PROLIFIC_PID=REDACTED&STUDY_ID=691f8ca61c6b4dcbb0aeb5f4&SESSION_ID=691fb864ca03c05a1c360eb9","survey-html-form",12,307870,"0.0-312.0-0.0","jQbOqBtMvLb1Qpnc2S+JRdQ30jtCnBerP+QTnzvBB9A2WKR49zQGbargoUk+dK+Eng1SEo1ebN4MnWQxegcp2Ep+3//SX/fqoTIPMmLA8U+ONkbD5ETvE49pQU9zNExpatn+z5q6zHUBW/y11J6ZCgwDi2HttFDPAQXaIl0zB0BW7sYQm8ttuN16oDCh0uGlch9pRJTYbkAWQ56xg/9KIq6MOtPiQV+qFMIWQuZ+jgQNhzTOelMUQKTFY/qCzlrJ5jpDlHqLFhZJgLk5NTY+rZitrulTwA4d341+xy5AfZfqx/Tn6XhcnZE1b6BvR1nEtS26Rj0S2jYS/aOEG5s3Dg==","691f8ca61c6b4dcbb0aeb5f4","691fb864ca03c05a1c360eb9","index1","<span style='color:red'>Fail,<span style='color:red'>Fail,<span style='color:green'>Lift,<span style='color:green'>Lift,<span style='color:red'>Fail,<span style='color:red'>Fail,<span style='color:red'>Fail,<span style='color:red'>Fail,<span style='color:red'>Fail,<span style='color:green'>Lift,<span style='color:red'>Fail,<span style='color:green'>Lift","<span style='color:red'>Fail,<span style='color:red'>Fail,<span style='color:green'>Lift,<span style='color:green'>Lift,<span style='color:green'>Lift,<span style='color:green'>Lift,<span style='color:green'>Lift,<span style='color:red'>Fail,<span style='color:green'>Lift,<span style='color:green'>Lift,<span style='color:red'>Fail,<span style='color:green'>Lift","<span style='color:red'>Fail,<span style='color:green'>Lift,<span style='color:green'>Lift,<span style='color:red'>Fail,<span style='color:green'>Lift,<span style='color:green'>Lift","0,0,1,1,0,0,0,0,0,1,0,1","0,0,1,1,1,1,1,0,1,1,0,1","0,1,1,0,1,1",10,20,20,"","","","","{""box1"":""7"",""box2"":""7"",""box3"":""70"",""box4"":""70""}","",2,"round3_lift",5,1,3,7,7,70,70,1,1,20,NA,NA,NA,NA,NA,NA,NA,NA,NA,NA,NA,NA,NA,NA,NA,NA,NA,NA,NA,NA,7,7,70,70,1,1,20,NA,NA,"",NA,NA,NA,NA,NA,NA,NA,NA,NA,2025-11-21 01:05:07
"null","https://psyc-201.github.io/xiang2023/exp/index1.html?PROLIFIC_PID=REDACTED&STUDY_ID=691f8ca61c6b4dcbb0aeb5f4&SESSION_ID=691fb864ca03c05a1c360eb9","html-keyboard-response",13,310882,"0.0-316.0","jQbOqBtMvLb1Qpnc2S+JRdQ30jtCnBerP+QTnzvBB9A2WKR49zQGbargoUk+dK+Eng1SEo1ebN4MnWQxegcp2Ep+3//SX/fqoTIPMmLA8U+ONkbD5ETvE49pQU9zNExpatn+z5q6zHUBW/y11J6ZCgwDi2HttFDPAQXaIl0zB0BW7sYQm8ttuN16oDCh0uGlch9pRJTYbkAWQ56xg/9KIq6MOtPiQV+qFMIWQuZ+jgQNhzTOelMUQKTFY/qCzlrJ5jpDlHqLFhZJgLk5NTY+rZitrulTwA4d341+xy5AfZfqx/Tn6XhcnZE1b6BvR1nEtS26Rj0S2jYS/aOEG5s3Dg==","691f8ca61c6b4dcbb0aeb5f4","691fb864ca03c05a1c360eb9","index1","<span style='color:red'>Fail,<span style='color:red'>Fail,<span style='color:green'>Lift,<span style='color:green'>Lift,<span style='color:red'>Fail,<span style='color:red'>Fail,<span style='color:red'>Fail,<span style='color:red'>Fail,<span style='color:red'>Fail,<span style='color:green'>Lift,<span style='color:red'>Fail,<span style='color:green'>Lift","<span style='color:red'>Fail,<span style='color:red'>Fail,<span style='color:green'>Lift,<span style='color:green'>Lift,<span style='color:green'>Lift,<span style='color:green'>Lift,<span style='color:green'>Lift,<span style='color:red'>Fail,<span style='color:green'>Lift,<span style='color:green'>Lift,<span style='color:red'>Fail,<span style='color:green'>Lift","<span style='color:red'>Fail,<span style='color:green'>Lift,<span style='color:green'>Lift,<span style='color:red'>Fail,<span style='color:green'>Lift,<span style='color:green'>Lift","0,0,1,1,0,0,0,0,0,1,0,1","0,0,1,1,1,1,1,0,1,1,0,1","0,1,1,0,1,1",10,20,20,"","","<p style='font-size:30px'><b> New Contest! </b></p>","null","","",2,"",NA,NA,NA,NA,NA,NA,NA,NA,NA,NA,NA,NA,NA,NA,NA,NA,NA,NA,NA,NA,NA,NA,NA,NA,NA,NA,NA,NA,NA,NA,NA,NA,NA,NA,NA,NA,NA,NA,NA,"",NA,NA,NA,NA,NA,NA,NA,NA,NA,2025-11-21 01:05:07
"6381.100000023842","https://psyc-201.github.io/xiang2023/exp/index1.html?PROLIFIC_PID=REDACTED&STUDY_ID=691f8ca61c6b4dcbb0aeb5f4&SESSION_ID=691fb864ca03c05a1c360eb9","survey-html-form",14,317265,"0.0-317.0","jQbOqBtMvLb1Qpnc2S+JRdQ30jtCnBerP+QTnzvBB9A2WKR49zQGbargoUk+dK+Eng1SEo1ebN4MnWQxegcp2Ep+3//SX/fqoTIPMmLA8U+ONkbD5ETvE49pQU9zNExpatn+z5q6zHUBW/y11J6ZCgwDi2HttFDPAQXaIl0zB0BW7sYQm8ttuN16oDCh0uGlch9pRJTYbkAWQ56xg/9KIq6MOtPiQV+qFMIWQuZ+jgQNhzTOelMUQKTFY/qCzlrJ5jpDlHqLFhZJgLk5NTY+rZitrulTwA4d341+xy5AfZfqx/Tn6XhcnZE1b6BvR1nEtS26Rj0S2jYS/aOEG5s3Dg==","691f8ca61c6b4dcbb0aeb5f4","691fb864ca03c05a1c360eb9","index1","<span style='color:red'>Fail,<span style='color:red'>Fail,<span style='color:green'>Lift,<span style='color:green'>Lift,<span style='color:red'>Fail,<span style='color:red'>Fail,<span style='color:red'>Fail,<span style='color:red'>Fail,<span style='color:red'>Fail,<span style='color:green'>Lift,<span style='color:red'>Fail,<span style='color:green'>Lift","<span style='color:red'>Fail,<span style='color:red'>Fail,<span style='color:green'>Lift,<span style='color:green'>Lift,<span style='color:green'>Lift,<span style='color:green'>Lift,<span style='color:green'>Lift,<span style='color:red'>Fail,<span style='color:green'>Lift,<span style='color:green'>Lift,<span style='color:red'>Fail,<span style='color:green'>Lift","<span style='color:red'>Fail,<span style='color:green'>Lift,<span style='color:green'>Lift,<span style='color:red'>Fail,<span style='color:green'>Lift,<span style='color:green'>Lift","0,0,1,1,0,0,0,0,0,1,0,1","0,0,1,1,1,1,1,0,1,1,0,1","0,1,1,0,1,1",10,20,20,"","","","","{""box1"":""4"",""box2"":""4""}","",2,"round1_outcome",1,2,1,4,4,NA,NA,0,0,10,4,4,NA,NA,0,0,10,NA,NA,NA,NA,NA,NA,NA,NA,NA,NA,NA,NA,NA,NA,NA,NA,NA,NA,NA,NA,NA,NA,"",NA,NA,NA,NA,NA,NA,NA,NA,NA,2025-11-21 01:05:07
"8915.199999988079","https://psyc-201.github.io/xiang2023/exp/index1.html?PROLIFIC_PID=REDACTED&STUDY_ID=691f8ca61c6b4dcbb0aeb5f4&SESSION_ID=691fb864ca03c05a1c360eb9","survey-html-form",15,326182,"0.0-318.0","jQbOqBtMvLb1Qpnc2S+JRdQ30jtCnBerP+QTnzvBB9A2WKR49zQGbargoUk+dK+Eng1SEo1ebN4MnWQxegcp2Ep+3//SX/fqoTIPMmLA8U+ONkbD5ETvE49pQU9zNExpatn+z5q6zHUBW/y11J6ZCgwDi2HttFDPAQXaIl0zB0BW7sYQm8ttuN16oDCh0uGlch9pRJTYbkAWQ56xg/9KIq6MOtPiQV+qFMIWQuZ+jgQNhzTOelMUQKTFY/qCzlrJ5jpDlHqLFhZJgLk5NTY+rZitrulTwA4d341+xy5AfZfqx/Tn6XhcnZE1b6BvR1nEtS26Rj0S2jYS/aOEG5s3Dg==","691f8ca61c6b4dcbb0aeb5f4","691fb864ca03c05a1c360eb9","index1","<span style='color:red'>Fail,<span style='color:red'>Fail,<span style='color:green'>Lift,<span style='color:green'>Lift,<span style='color:red'>Fail,<span style='color:red'>Fail,<span style='color:red'>Fail,<span style='color:red'>Fail,<span style='color:red'>Fail,<span style='color:green'>Lift,<span style='color:red'>Fail,<span style='color:green'>Lift","<span style='color:red'>Fail,<span style='color:red'>Fail,<span style='color:green'>Lift,<span style='color:green'>Lift,<span style='color:green'>Lift,<span style='color:green'>Lift,<span style='color:green'>Lift,<span style='color:red'>Fail,<span style='color:green'>Lift,<span style='color:green'>Lift,<span style='color:red'>Fail,<span style='color:green'>Lift","<span style='color:red'>Fail,<span style='color:green'>Lift,<span style='color:green'>Lift,<span style='color:red'>Fail,<span style='color:green'>Lift,<span style='color:green'>Lift","0,0,1,1,0,0,0,0,0,1,0,1","0,0,1,1,1,1,1,0,1,1,0,1","0,1,1,0,1,1",10,20,20,"","","","","{""box1"":""30"",""box2"":""30""}","",2,"round2_ready",2,2,2,NA,NA,NA,NA,NA,NA,NA,NA,NA,NA,NA,NA,NA,NA,30,30,30,30,NA,NA,NA,NA,NA,NA,NA,NA,NA,NA,NA,NA,NA,NA,NA,NA,NA,NA,"",NA,NA,NA,NA,NA,NA,NA,NA,NA,2025-11-21 01:05:07
"15592.5","https://psyc-201.github.io/xiang2023/exp/index1.html?PROLIFIC_PID=REDACTED&STUDY_ID=691f8ca61c6b4dcbb0aeb5f4&SESSION_ID=691fb864ca03c05a1c360eb9","survey-html-form",16,341777,"0.0-319.0","jQbOqBtMvLb1Qpnc2S+JRdQ30jtCnBerP+QTnzvBB9A2WKR49zQGbargoUk+dK+Eng1SEo1ebN4MnWQxegcp2Ep+3//SX/fqoTIPMmLA8U+ONkbD5ETvE49pQU9zNExpatn+z5q6zHUBW/y11J6ZCgwDi2HttFDPAQXaIl0zB0BW7sYQm8ttuN16oDCh0uGlch9pRJTYbkAWQ56xg/9KIq6MOtPiQV+qFMIWQuZ+jgQNhzTOelMUQKTFY/qCzlrJ5jpDlHqLFhZJgLk5NTY+rZitrulTwA4d341+xy5AfZfqx/Tn6XhcnZE1b6BvR1nEtS26Rj0S2jYS/aOEG5s3Dg==","691f8ca61c6b4dcbb0aeb5f4","691fb864ca03c05a1c360eb9","index1","<span style='color:red'>Fail,<span style='color:red'>Fail,<span style='color:green'>Lift,<span style='color:green'>Lift,<span style='color:red'>Fail,<span style='color:red'>Fail,<span style='color:red'>Fail,<span style='color:red'>Fail,<span style='color:red'>Fail,<span style='color:green'>Lift,<span style='color:red'>Fail,<span style='color:green'>Lift","<span style='color:red'>Fail,<span style='color:red'>Fail,<span style='color:green'>Lift,<span style='color:green'>Lift,<span style='color:green'>Lift,<span style='color:green'>Lift,<span style='color:green'>Lift,<span style='color:red'>Fail,<span style='color:green'>Lift,<span style='color:green'>Lift,<span style='color:red'>Fail,<span style='color:green'>Lift","<span style='color:red'>Fail,<span style='color:green'>Lift,<span style='color:green'>Lift,<span style='color:red'>Fail,<span style='color:green'>Lift,<span style='color:green'>Lift","0,0,1,1,0,0,0,0,0,1,0,1","0,0,1,1,1,1,1,0,1,1,0,1","0,1,1,0,1,1",10,20,20,"","","","","{""box1"":""6"",""box2"":""3"",""box3"":""70""}","",2,"round2_outcome",3,2,2,6,3,70,NA,1,0,20,NA,NA,NA,NA,NA,NA,NA,NA,NA,NA,NA,6,3,70,NA,1,0,20,NA,NA,NA,NA,NA,NA,NA,NA,NA,NA,NA,"",NA,NA,NA,NA,NA,NA,NA,NA,NA,2025-11-21 01:05:07
"5123","https://psyc-201.github.io/xiang2023/exp/index1.html?PROLIFIC_PID=REDACTED&STUDY_ID=691f8ca61c6b4dcbb0aeb5f4&SESSION_ID=691fb864ca03c05a1c360eb9","survey-html-form",17,346902,"0.0-320.0","jQbOqBtMvLb1Qpnc2S+JRdQ30jtCnBerP+QTnzvBB9A2WKR49zQGbargoUk+dK+Eng1SEo1ebN4MnWQxegcp2Ep+3//SX/fqoTIPMmLA8U+ONkbD5ETvE49pQU9zNExpatn+z5q6zHUBW/y11J6ZCgwDi2HttFDPAQXaIl0zB0BW7sYQm8ttuN16oDCh0uGlch9pRJTYbkAWQ56xg/9KIq6MOtPiQV+qFMIWQuZ+jgQNhzTOelMUQKTFY/qCzlrJ5jpDlHqLFhZJgLk5NTY+rZitrulTwA4d341+xy5AfZfqx/Tn6XhcnZE1b6BvR1nEtS26Rj0S2jYS/aOEG5s3Dg==","691f8ca61c6b4dcbb0aeb5f4","691fb864ca03c05a1c360eb9","index1","<span style='color:red'>Fail,<span style='color:red'>Fail,<span style='color:green'>Lift,<span style='color:green'>Lift,<span style='color:red'>Fail,<span style='color:red'>Fail,<span style='color:red'>Fail,<span style='color:red'>Fail,<span style='color:red'>Fail,<span style='color:green'>Lift,<span style='color:red'>Fail,<span style='color:green'>Lift","<span style='color:red'>Fail,<span style='color:red'>Fail,<span style='color:green'>Lift,<span style='color:green'>Lift,<span style='color:green'>Lift,<span style='color:green'>Lift,<span style='color:green'>Lift,<span style='color:red'>Fail,<span style='color:green'>Lift,<span style='color:green'>Lift,<span style='color:red'>Fail,<span style='color:green'>Lift","<span style='color:red'>Fail,<span style='color:green'>Lift,<span style='color:green'>Lift,<span style='color:red'>Fail,<span style='color:green'>Lift,<span style='color:green'>Lift","0,0,1,1,0,0,0,0,0,1,0,1","0,0,1,1,1,1,1,0,1,1,0,1","0,1,1,0,1,1",10,20,20,"","","","","{""box1"":""10""}","",2,"round3_ready",4,2,3,NA,NA,NA,NA,NA,NA,NA,NA,NA,NA,NA,NA,NA,NA,10,10,NA,NA,NA,NA,NA,NA,NA,NA,NA,10,10,NA,NA,NA,NA,NA,NA,NA,NA,NA,"",NA,NA,NA,NA,NA,NA,NA,NA,NA,2025-11-21 01:05:07
"13424.800000011921","https://psyc-201.github.io/xiang2023/exp/index1.html?PROLIFIC_PID=REDACTED&STUDY_ID=691f8ca61c6b4dcbb0aeb5f4&SESSION_ID=691fb864ca03c05a1c360eb9","survey-html-form",18,360329,"0.0-322.0-0.0","jQbOqBtMvLb1Qpnc2S+JRdQ30jtCnBerP+QTnzvBB9A2WKR49zQGbargoUk+dK+Eng1SEo1ebN4MnWQxegcp2Ep+3//SX/fqoTIPMmLA8U+ONkbD5ETvE49pQU9zNExpatn+z5q6zHUBW/y11J6ZCgwDi2HttFDPAQXaIl0zB0BW7sYQm8ttuN16oDCh0uGlch9pRJTYbkAWQ56xg/9KIq6MOtPiQV+qFMIWQuZ+jgQNhzTOelMUQKTFY/qCzlrJ5jpDlHqLFhZJgLk5NTY+rZitrulTwA4d341+xy5AfZfqx/Tn6XhcnZE1b6BvR1nEtS26Rj0S2jYS/aOEG5s3Dg==","691f8ca61c6b4dcbb0aeb5f4","691fb864ca03c05a1c360eb9","index1","<span style='color:red'>Fail,<span style='color:red'>Fail,<span style='color:green'>Lift,<span style='color:green'>Lift,<span style='color:red'>Fail,<span style='color:red'>Fail,<span style='color:red'>Fail,<span style='color:red'>Fail,<span style='color:red'>Fail,<span style='color:green'>Lift,<span style='color:red'>Fail,<span style='color:green'>Lift","<span style='color:red'>Fail,<span style='color:red'>Fail,<span style='color:green'>Lift,<span style='color:green'>Lift,<span style='color:green'>Lift,<span style='color:green'>Lift,<span style='color:green'>Lift,<span style='color:red'>Fail,<span style='color:green'>Lift,<span style='color:green'>Lift,<span style='color:red'>Fail,<span style='color:green'>Lift","<span style='color:red'>Fail,<span style='color:green'>Lift,<span style='color:green'>Lift,<span style='color:red'>Fail,<span style='color:green'>Lift,<span style='color:green'>Lift","0,0,1,1,0,0,0,0,0,1,0,1","0,0,1,1,1,1,1,0,1,1,0,1","0,1,1,0,1,1",10,20,20,"","","","","{""box1"":""7"",""box2"":""2"",""box3"":""999"",""box4"":""999""}","",3,"round3_fail",5,2,3,7,2,NA,NA,0,0,20,NA,NA,NA,NA,NA,NA,NA,NA,NA,NA,NA,NA,NA,NA,NA,NA,NA,NA,NA,NA,7,2,NA,NA,0,0,20,1,1,"",NA,NA,NA,NA,NA,NA,NA,NA,NA,2025-11-21 01:05:07
"null","https://psyc-201.github.io/xiang2023/exp/index1.html?PROLIFIC_PID=REDACTED&STUDY_ID=691f8ca61c6b4dcbb0aeb5f4&SESSION_ID=691fb864ca03c05a1c360eb9","html-keyboard-response",19,363344,"0.0-325.0","jQbOqBtMvLb1Qpnc2S+JRdQ30jtCnBerP+QTnzvBB9A2WKR49zQGbargoUk+dK+Eng1SEo1ebN4MnWQxegcp2Ep+3//SX/fqoTIPMmLA8U+ONkbD5ETvE49pQU9zNExpatn+z5q6zHUBW/y11J6ZCgwDi2HttFDPAQXaIl0zB0BW7sYQm8ttuN16oDCh0uGlch9pRJTYbkAWQ56xg/9KIq6MOtPiQV+qFMIWQuZ+jgQNhzTOelMUQKTFY/qCzlrJ5jpDlHqLFhZJgLk5NTY+rZitrulTwA4d341+xy5AfZfqx/Tn6XhcnZE1b6BvR1nEtS26Rj0S2jYS/aOEG5s3Dg==","691f8ca61c6b4dcbb0aeb5f4","691fb864ca03c05a1c360eb9","index1","<span style='color:red'>Fail,<span style='color:red'>Fail,<span style='color:green'>Lift,<span style='color:green'>Lift,<span style='color:red'>Fail,<span style='color:red'>Fail,<span style='color:red'>Fail,<span style='color:red'>Fail,<span style='color:red'>Fail,<span style='color:green'>Lift,<span style='color:red'>Fail,<span style='color:green'>Lift","<span style='color:red'>Fail,<span style='color:red'>Fail,<span style='color:green'>Lift,<span style='color:green'>Lift,<span style='color:green'>Lift,<span style='color:green'>Lift,<span style='color:green'>Lift,<span style='color:red'>Fail,<span style='color:green'>Lift,<span style='color:green'>Lift,<span style='color:red'>Fail,<span style='color:green'>Lift","<span style='color:red'>Fail,<span style='color:green'>Lift,<span style='color:green'>Lift,<span style='color:red'>Fail,<span style='color:green'>Lift,<span style='color:green'>Lift","0,0,1,1,0,0,0,0,0,1,0,1","0,0,1,1,1,1,1,0,1,1,0,1","0,1,1,0,1,1",10,20,20,"","","<p style='font-size:30px'><b> New Contest! </b></p>","null","","",3,"",NA,NA,NA,NA,NA,NA,NA,NA,NA,NA,NA,NA,NA,NA,NA,NA,NA,NA,NA,NA,NA,NA,NA,NA,NA,NA,NA,NA,NA,NA,NA,NA,NA,NA,NA,NA,NA,NA,NA,"",NA,NA,NA,NA,NA,NA,NA,NA,NA,2025-11-21 01:05:07
"8925.199999988079","https://psyc-201.github.io/xiang2023/exp/index1.html?PROLIFIC_PID=REDACTED&STUDY_ID=691f8ca61c6b4dcbb0aeb5f4&SESSION_ID=691fb864ca03c05a1c360eb9","survey-html-form",20,372270,"0.0-326.0","jQbOqBtMvLb1Qpnc2S+JRdQ30jtCnBerP+QTnzvBB9A2WKR49zQGbargoUk+dK+Eng1SEo1ebN4MnWQxegcp2Ep+3//SX/fqoTIPMmLA8U+ONkbD5ETvE49pQU9zNExpatn+z5q6zHUBW/y11J6ZCgwDi2HttFDPAQXaIl0zB0BW7sYQm8ttuN16oDCh0uGlch9pRJTYbkAWQ56xg/9KIq6MOtPiQV+qFMIWQuZ+jgQNhzTOelMUQKTFY/qCzlrJ5jpDlHqLFhZJgLk5NTY+rZitrulTwA4d341+xy5AfZfqx/Tn6XhcnZE1b6BvR1nEtS26Rj0S2jYS/aOEG5s3Dg==","691f8ca61c6b4dcbb0aeb5f4","691fb864ca03c05a1c360eb9","index1","<span style='color:red'>Fail,<span style='color:red'>Fail,<span style='color:green'>Lift,<span style='color:green'>Lift,<span style='color:red'>Fail,<span style='color:red'>Fail,<span style='color:red'>Fail,<span style='color:red'>Fail,<span style='color:red'>Fail,<span style='color:green'>Lift,<span style='color:red'>Fail,<span style='color:green'>Lift","<span style='color:red'>Fail,<span style='color:red'>Fail,<span style='color:green'>Lift,<span style='color:green'>Lift,<span style='color:green'>Lift,<span style='color:green'>Lift,<span style='color:green'>Lift,<span style='color:red'>Fail,<span style='color:green'>Lift,<span style='color:green'>Lift,<span style='color:red'>Fail,<span style='color:green'>Lift","<span style='color:red'>Fail,<span style='color:green'>Lift,<span style='color:green'>Lift,<span style='color:red'>Fail,<span style='color:green'>Lift,<span style='color:green'>Lift","0,0,1,1,0,0,0,0,0,1,0,1","0,0,1,1,1,1,1,0,1,1,0,1","0,1,1,0,1,1",10,20,20,"","","","","{""box1"":""8"",""box2"":""8"",""box3"":""70"",""box4"":""70""}","",3,"round1_outcome",1,3,1,8,8,70,70,1,1,10,8,8,70,70,1,1,10,NA,NA,NA,NA,NA,NA,NA,NA,NA,NA,NA,NA,NA,NA,NA,NA,NA,NA,NA,NA,NA,NA,"",NA,NA,NA,NA,NA,NA,NA,NA,NA,2025-11-21 01:05:07
"7726.399999976158","https://psyc-201.github.io/xiang2023/exp/index1.html?PROLIFIC_PID=REDACTED&STUDY_ID=691f8ca61c6b4dcbb0aeb5f4&SESSION_ID=691fb864ca03c05a1c360eb9","survey-html-form",21,379998,"0.0-327.0","jQbOqBtMvLb1Qpnc2S+JRdQ30jtCnBerP+QTnzvBB9A2WKR49zQGbargoUk+dK+Eng1SEo1ebN4MnWQxegcp2Ep+3//SX/fqoTIPMmLA8U+ONkbD5ETvE49pQU9zNExpatn+z5q6zHUBW/y11J6ZCgwDi2HttFDPAQXaIl0zB0BW7sYQm8ttuN16oDCh0uGlch9pRJTYbkAWQ56xg/9KIq6MOtPiQV+qFMIWQuZ+jgQNhzTOelMUQKTFY/qCzlrJ5jpDlHqLFhZJgLk5NTY+rZitrulTwA4d341+xy5AfZfqx/Tn6XhcnZE1b6BvR1nEtS26Rj0S2jYS/aOEG5s3Dg==","691f8ca61c6b4dcbb0aeb5f4","691fb864ca03c05a1c360eb9","index1","<span style='color:red'>Fail,<span style='color:red'>Fail,<span style='color:green'>Lift,<span style='color:green'>Lift,<span style='color:red'>Fail,<span style='color:red'>Fail,<span style='color:red'>Fail,<span style='color:red'>Fail,<span style='color:red'>Fail,<span style='color:green'>Lift,<span style='color:red'>Fail,<span style='color:green'>Lift","<span style='color:red'>Fail,<span style='color:red'>Fail,<span style='color:green'>Lift,<span style='color:green'>Lift,<span style='color:green'>Lift,<span style='color:green'>Lift,<span style='color:green'>Lift,<span style='color:red'>Fail,<span style='color:green'>Lift,<span style='color:green'>Lift,<span style='color:red'>Fail,<span style='color:green'>Lift","<span style='color:red'>Fail,<span style='color:green'>Lift,<span style='color:green'>Lift,<span style='color:red'>Fail,<span style='color:green'>Lift,<span style='color:green'>Lift","0,0,1,1,0,0,0,0,0,1,0,1","0,0,1,1,1,1,1,0,1,1,0,1","0,1,1,0,1,1",10,20,20,"","","","","{""box1"":""80"",""box2"":""80""}","",3,"round2_ready",2,3,2,NA,NA,NA,NA,NA,NA,NA,NA,NA,NA,NA,NA,NA,NA,80,80,80,80,NA,NA,NA,NA,NA,NA,NA,NA,NA,NA,NA,NA,NA,NA,NA,NA,NA,NA,"",NA,NA,NA,NA,NA,NA,NA,NA,NA,2025-11-21 01:05:07
"7038.800000011921","https://psyc-201.github.io/xiang2023/exp/index1.html?PROLIFIC_PID=REDACTED&STUDY_ID=691f8ca61c6b4dcbb0aeb5f4&SESSION_ID=691fb864ca03c05a1c360eb9","survey-html-form",22,387038,"0.0-328.0","jQbOqBtMvLb1Qpnc2S+JRdQ30jtCnBerP+QTnzvBB9A2WKR49zQGbargoUk+dK+Eng1SEo1ebN4MnWQxegcp2Ep+3//SX/fqoTIPMmLA8U+ONkbD5ETvE49pQU9zNExpatn+z5q6zHUBW/y11J6ZCgwDi2HttFDPAQXaIl0zB0BW7sYQm8ttuN16oDCh0uGlch9pRJTYbkAWQ56xg/9KIq6MOtPiQV+qFMIWQuZ+jgQNhzTOelMUQKTFY/qCzlrJ5jpDlHqLFhZJgLk5NTY+rZitrulTwA4d341+xy5AfZfqx/Tn6XhcnZE1b6BvR1nEtS26Rj0S2jYS/aOEG5s3Dg==","691f8ca61c6b4dcbb0aeb5f4","691fb864ca03c05a1c360eb9","index1","<span style='color:red'>Fail,<span style='color:red'>Fail,<span style='color:green'>Lift,<span style='color:green'>Lift,<span style='color:red'>Fail,<span style='color:red'>Fail,<span style='color:red'>Fail,<span style='color:red'>Fail,<span style='color:red'>Fail,<span style='color:green'>Lift,<span style='color:red'>Fail,<span style='color:green'>Lift","<span style='color:red'>Fail,<span style='color:red'>Fail,<span style='color:green'>Lift,<span style='color:green'>Lift,<span style='color:green'>Lift,<span style='color:green'>Lift,<span style='color:green'>Lift,<span style='color:red'>Fail,<span style='color:green'>Lift,<span style='color:green'>Lift,<span style='color:red'>Fail,<span style='color:green'>Lift","<span style='color:red'>Fail,<span style='color:green'>Lift,<span style='color:green'>Lift,<span style='color:red'>Fail,<span style='color:green'>Lift,<span style='color:green'>Lift","0,0,1,1,0,0,0,0,0,1,0,1","0,0,1,1,1,1,1,0,1,1,0,1","0,1,1,0,1,1",10,20,20,"","","","","{""box1"":""8"",""box2"":""8"",""box3"":""70"",""box4"":""70""}","",3,"round2_outcome",3,3,2,8,8,70,70,1,1,20,NA,NA,NA,NA,NA,NA,NA,NA,NA,NA,NA,8,8,70,70,1,1,20,NA,NA,NA,NA,NA,NA,NA,NA,NA,NA,NA,"",NA,NA,NA,NA,NA,NA,NA,NA,NA,2025-11-21 01:05:07
"4246.800000011921","https://psyc-201.github.io/xiang2023/exp/index1.html?PROLIFIC_PID=REDACTED&STUDY_ID=691f8ca61c6b4dcbb0aeb5f4&SESSION_ID=691fb864ca03c05a1c360eb9","survey-html-form",23,391286,"0.0-329.0","jQbOqBtMvLb1Qpnc2S+JRdQ30jtCnBerP+QTnzvBB9A2WKR49zQGbargoUk+dK+Eng1SEo1ebN4MnWQxegcp2Ep+3//SX/fqoTIPMmLA8U+ONkbD5ETvE49pQU9zNExpatn+z5q6zHUBW/y11J6ZCgwDi2HttFDPAQXaIl0zB0BW7sYQm8ttuN16oDCh0uGlch9pRJTYbkAWQ56xg/9KIq6MOtPiQV+qFMIWQuZ+jgQNhzTOelMUQKTFY/qCzlrJ5jpDlHqLFhZJgLk5NTY+rZitrulTwA4d341+xy5AfZfqx/Tn6XhcnZE1b6BvR1nEtS26Rj0S2jYS/aOEG5s3Dg==","691f8ca61c6b4dcbb0aeb5f4","691fb864ca03c05a1c360eb9","index1","<span style='color:red'>Fail,<span style='color:red'>Fail,<span style='color:green'>Lift,<span style='color:green'>Lift,<span style='color:red'>Fail,<span style='color:red'>Fail,<span style='color:red'>Fail,<span style='color:red'>Fail,<span style='color:red'>Fail,<span style='color:green'>Lift,<span style='color:red'>Fail,<span style='color:green'>Lift","<span style='color:red'>Fail,<span style='color:red'>Fail,<span style='color:green'>Lift,<span style='color:green'>Lift,<span style='color:green'>Lift,<span style='color:green'>Lift,<span style='color:green'>Lift,<span style='color:red'>Fail,<span style='color:green'>Lift,<span style='color:green'>Lift,<span style='color:red'>Fail,<span style='color:green'>Lift","<span style='color:red'>Fail,<span style='color:green'>Lift,<span style='color:green'>Lift,<span style='color:red'>Fail,<span style='color:green'>Lift,<span style='color:green'>Lift","0,0,1,1,0,0,0,0,0,1,0,1","0,0,1,1,1,1,1,0,1,1,0,1","0,1,1,0,1,1",10,20,20,"","","","","{""box1"":""100""}","",3,"round3_ready",4,3,3,NA,NA,NA,NA,NA,NA,NA,NA,NA,NA,NA,NA,NA,NA,100,100,NA,NA,NA,NA,NA,NA,NA,NA,NA,100,100,NA,NA,NA,NA,NA,NA,NA,NA,NA,"",NA,NA,NA,NA,NA,NA,NA,NA,NA,2025-11-21 01:05:07
"7983.600000023842","https://psyc-201.github.io/xiang2023/exp/index1.html?PROLIFIC_PID=REDACTED&STUDY_ID=691f8ca61c6b4dcbb0aeb5f4&SESSION_ID=691fb864ca03c05a1c360eb9","survey-html-form",24,399270,"0.0-330.0-0.0","jQbOqBtMvLb1Qpnc2S+JRdQ30jtCnBerP+QTnzvBB9A2WKR49zQGbargoUk+dK+Eng1SEo1ebN4MnWQxegcp2Ep+3//SX/fqoTIPMmLA8U+ONkbD5ETvE49pQU9zNExpatn+z5q6zHUBW/y11J6ZCgwDi2HttFDPAQXaIl0zB0BW7sYQm8ttuN16oDCh0uGlch9pRJTYbkAWQ56xg/9KIq6MOtPiQV+qFMIWQuZ+jgQNhzTOelMUQKTFY/qCzlrJ5jpDlHqLFhZJgLk5NTY+rZitrulTwA4d341+xy5AfZfqx/Tn6XhcnZE1b6BvR1nEtS26Rj0S2jYS/aOEG5s3Dg==","691f8ca61c6b4dcbb0aeb5f4","691fb864ca03c05a1c360eb9","index1","<span style='color:red'>Fail,<span style='color:red'>Fail,<span style='color:green'>Lift,<span style='color:green'>Lift,<span style='color:red'>Fail,<span style='color:red'>Fail,<span style='color:red'>Fail,<span style='color:red'>Fail,<span style='color:red'>Fail,<span style='color:green'>Lift,<span style='color:red'>Fail,<span style='color:green'>Lift","<span style='color:red'>Fail,<span style='color:red'>Fail,<span style='color:green'>Lift,<span style='color:green'>Lift,<span style='color:green'>Lift,<span style='color:green'>Lift,<span style='color:green'>Lift,<span style='color:red'>Fail,<span style='color:green'>Lift,<span style='color:green'>Lift,<span style='color:red'>Fail,<span style='color:green'>Lift","<span style='color:red'>Fail,<span style='color:green'>Lift,<span style='color:green'>Lift,<span style='color:red'>Fail,<span style='color:green'>Lift,<span style='color:green'>Lift","0,0,1,1,0,0,0,0,0,1,0,1","0,0,1,1,1,1,1,0,1,1,0,1","0,1,1,0,1,1",10,20,20,"","","","","{""box1"":""8"",""box2"":""8"",""box3"":""80"",""box4"":""80""}","",4,"round3_lift",5,3,3,8,8,80,80,1,1,20,NA,NA,NA,NA,NA,NA,NA,NA,NA,NA,NA,NA,NA,NA,NA,NA,NA,NA,NA,NA,8,8,80,80,1,1,20,NA,NA,"",NA,NA,NA,NA,NA,NA,NA,NA,NA,2025-11-21 01:05:07
"null","https://psyc-201.github.io/xiang2023/exp/index1.html?PROLIFIC_PID=REDACTED&STUDY_ID=691f8ca61c6b4dcbb0aeb5f4&SESSION_ID=691fb864ca03c05a1c360eb9","html-keyboard-response",25,402284,"0.0-334.0","jQbOqBtMvLb1Qpnc2S+JRdQ30jtCnBerP+QTnzvBB9A2WKR49zQGbargoUk+dK+Eng1SEo1ebN4MnWQxegcp2Ep+3//SX/fqoTIPMmLA8U+ONkbD5ETvE49pQU9zNExpatn+z5q6zHUBW/y11J6ZCgwDi2HttFDPAQXaIl0zB0BW7sYQm8ttuN16oDCh0uGlch9pRJTYbkAWQ56xg/9KIq6MOtPiQV+qFMIWQuZ+jgQNhzTOelMUQKTFY/qCzlrJ5jpDlHqLFhZJgLk5NTY+rZitrulTwA4d341+xy5AfZfqx/Tn6XhcnZE1b6BvR1nEtS26Rj0S2jYS/aOEG5s3Dg==","691f8ca61c6b4dcbb0aeb5f4","691fb864ca03c05a1c360eb9","index1","<span style='color:red'>Fail,<span style='color:red'>Fail,<span style='color:green'>Lift,<span style='color:green'>Lift,<span style='color:red'>Fail,<span style='color:red'>Fail,<span style='color:red'>Fail,<span style='color:red'>Fail,<span style='color:red'>Fail,<span style='color:green'>Lift,<span style='color:red'>Fail,<span style='color:green'>Lift","<span style='color:red'>Fail,<span style='color:red'>Fail,<span style='color:green'>Lift,<span style='color:green'>Lift,<span style='color:green'>Lift,<span style='color:green'>Lift,<span style='color:green'>Lift,<span style='color:red'>Fail,<span style='color:green'>Lift,<span style='color:green'>Lift,<span style='color:red'>Fail,<span style='color:green'>Lift","<span style='color:red'>Fail,<span style='color:green'>Lift,<span style='color:green'>Lift,<span style='color:red'>Fail,<span style='color:green'>Lift,<span style='color:green'>Lift","0,0,1,1,0,0,0,0,0,1,0,1","0,0,1,1,1,1,1,0,1,1,0,1","0,1,1,0,1,1",10,20,20,"","","<p style='font-size:30px'><b> New Contest! </b></p>","null","","",4,"",NA,NA,NA,NA,NA,NA,NA,NA,NA,NA,NA,NA,NA,NA,NA,NA,NA,NA,NA,NA,NA,NA,NA,NA,NA,NA,NA,NA,NA,NA,NA,NA,NA,NA,NA,NA,NA,NA,NA,"",NA,NA,NA,NA,NA,NA,NA,NA,NA,2025-11-21 01:05:07
"19409.100000023842","https://psyc-201.github.io/xiang2023/exp/index1.html?PROLIFIC_PID=REDACTED&STUDY_ID=691f8ca61c6b4dcbb0aeb5f4&SESSION_ID=691fb864ca03c05a1c360eb9","survey-html-form",26,421695,"0.0-335.0","jQbOqBtMvLb1Qpnc2S+JRdQ30jtCnBerP+QTnzvBB9A2WKR49zQGbargoUk+dK+Eng1SEo1ebN4MnWQxegcp2Ep+3//SX/fqoTIPMmLA8U+ONkbD5ETvE49pQU9zNExpatn+z5q6zHUBW/y11J6ZCgwDi2HttFDPAQXaIl0zB0BW7sYQm8ttuN16oDCh0uGlch9pRJTYbkAWQ56xg/9KIq6MOtPiQV+qFMIWQuZ+jgQNhzTOelMUQKTFY/qCzlrJ5jpDlHqLFhZJgLk5NTY+rZitrulTwA4d341+xy5AfZfqx/Tn6XhcnZE1b6BvR1nEtS26Rj0S2jYS/aOEG5s3Dg==","691f8ca61c6b4dcbb0aeb5f4","691fb864ca03c05a1c360eb9","index1","<span style='color:red'>Fail,<span style='color:red'>Fail,<span style='color:green'>Lift,<span style='color:green'>Lift,<span style='color:red'>Fail,<span style='color:red'>Fail,<span style='color:red'>Fail,<span style='color:red'>Fail,<span style='color:red'>Fail,<span style='color:green'>Lift,<span style='color:red'>Fail,<span style='color:green'>Lift","<span style='color:red'>Fail,<span style='color:red'>Fail,<span style='color:green'>Lift,<span style='color:green'>Lift,<span style='color:green'>Lift,<span style='color:green'>Lift,<span style='color:green'>Lift,<span style='color:red'>Fail,<span style='color:green'>Lift,<span style='color:green'>Lift,<span style='color:red'>Fail,<span style='color:green'>Lift","<span style='color:red'>Fail,<span style='color:green'>Lift,<span style='color:green'>Lift,<span style='color:red'>Fail,<span style='color:green'>Lift,<span style='color:green'>Lift","0,0,1,1,0,0,0,0,0,1,0,1","0,0,1,1,1,1,1,0,1,1,0,1","0,1,1,0,1,1",10,20,20,"","","","","{""box1"":""4"",""box2"":""7"",""box4"":""80""}","",4,"round1_outcome",1,4,1,4,7,NA,80,0,1,10,4,7,NA,80,0,1,10,NA,NA,NA,NA,NA,NA,NA,NA,NA,NA,NA,NA,NA,NA,NA,NA,NA,NA,NA,NA,NA,NA,"",NA,NA,NA,NA,NA,NA,NA,NA,NA,2025-11-21 01:05:07
"6518.200000047684","https://psyc-201.github.io/xiang2023/exp/index1.html?PROLIFIC_PID=REDACTED&STUDY_ID=691f8ca61c6b4dcbb0aeb5f4&SESSION_ID=691fb864ca03c05a1c360eb9","survey-html-form",27,428214,"0.0-336.0","jQbOqBtMvLb1Qpnc2S+JRdQ30jtCnBerP+QTnzvBB9A2WKR49zQGbargoUk+dK+Eng1SEo1ebN4MnWQxegcp2Ep+3//SX/fqoTIPMmLA8U+ONkbD5ETvE49pQU9zNExpatn+z5q6zHUBW/y11J6ZCgwDi2HttFDPAQXaIl0zB0BW7sYQm8ttuN16oDCh0uGlch9pRJTYbkAWQ56xg/9KIq6MOtPiQV+qFMIWQuZ+jgQNhzTOelMUQKTFY/qCzlrJ5jpDlHqLFhZJgLk5NTY+rZitrulTwA4d341+xy5AfZfqx/Tn6XhcnZE1b6BvR1nEtS26Rj0S2jYS/aOEG5s3Dg==","691f8ca61c6b4dcbb0aeb5f4","691fb864ca03c05a1c360eb9","index1","<span style='color:red'>Fail,<span style='color:red'>Fail,<span style='color:green'>Lift,<span style='color:green'>Lift,<span style='color:red'>Fail,<span style='color:red'>Fail,<span style='color:red'>Fail,<span style='color:red'>Fail,<span style='color:red'>Fail,<span style='color:green'>Lift,<span style='color:red'>Fail,<span style='color:green'>Lift","<span style='color:red'>Fail,<span style='color:red'>Fail,<span style='color:green'>Lift,<span style='color:green'>Lift,<span style='color:green'>Lift,<span style='color:green'>Lift,<span style='color:green'>Lift,<span style='color:red'>Fail,<span style='color:green'>Lift,<span style='color:green'>Lift,<span style='color:red'>Fail,<span style='color:green'>Lift","<span style='color:red'>Fail,<span style='color:green'>Lift,<span style='color:green'>Lift,<span style='color:red'>Fail,<span style='color:green'>Lift,<span style='color:green'>Lift","0,0,1,1,0,0,0,0,0,1,0,1","0,0,1,1,1,1,1,0,1,1,0,1","0,1,1,0,1,1",10,20,20,"","","","","{""box1"":""30"",""box2"":""80""}","",4,"round2_ready",2,4,2,NA,NA,NA,NA,NA,NA,NA,NA,NA,NA,NA,NA,NA,NA,30,80,30,80,NA,NA,NA,NA,NA,NA,NA,NA,NA,NA,NA,NA,NA,NA,NA,NA,NA,NA,"",NA,NA,NA,NA,NA,NA,NA,NA,NA,2025-11-21 01:05:07
"14272.899999976158","https://psyc-201.github.io/xiang2023/exp/index1.html?PROLIFIC_PID=REDACTED&STUDY_ID=691f8ca61c6b4dcbb0aeb5f4&SESSION_ID=691fb864ca03c05a1c360eb9","survey-html-form",28,442489,"0.0-337.0","jQbOqBtMvLb1Qpnc2S+JRdQ30jtCnBerP+QTnzvBB9A2WKR49zQGbargoUk+dK+Eng1SEo1ebN4MnWQxegcp2Ep+3//SX/fqoTIPMmLA8U+ONkbD5ETvE49pQU9zNExpatn+z5q6zHUBW/y11J6ZCgwDi2HttFDPAQXaIl0zB0BW7sYQm8ttuN16oDCh0uGlch9pRJTYbkAWQ56xg/9KIq6MOtPiQV+qFMIWQuZ+jgQNhzTOelMUQKTFY/qCzlrJ5jpDlHqLFhZJgLk5NTY+rZitrulTwA4d341+xy5AfZfqx/Tn6XhcnZE1b6BvR1nEtS26Rj0S2jYS/aOEG5s3Dg==","691f8ca61c6b4dcbb0aeb5f4","691fb864ca03c05a1c360eb9","index1","<span style='color:red'>Fail,<span style='color:red'>Fail,<span style='color:green'>Lift,<span style='color:green'>Lift,<span style='color:red'>Fail,<span style='color:red'>Fail,<span style='color:red'>Fail,<span style='color:red'>Fail,<span style='color:red'>Fail,<span style='color:green'>Lift,<span style='color:red'>Fail,<span style='color:green'>Lift","<span style='color:red'>Fail,<span style='color:red'>Fail,<span style='color:green'>Lift,<span style='color:green'>Lift,<span style='color:green'>Lift,<span style='color:green'>Lift,<span style='color:green'>Lift,<span style='color:red'>Fail,<span style='color:green'>Lift,<span style='color:green'>Lift,<span style='color:red'>Fail,<span style='color:green'>Lift","<span style='color:red'>Fail,<span style='color:green'>Lift,<span style='color:green'>Lift,<span style='color:red'>Fail,<span style='color:green'>Lift,<span style='color:green'>Lift","0,0,1,1,0,0,0,0,0,1,0,1","0,0,1,1,1,1,1,0,1,1,0,1","0,1,1,0,1,1",10,20,20,"","","","","{""box1"":""6"",""box2"":""8"",""box3"":""90"",""box4"":""70""}","",4,"round2_outcome",3,4,2,6,8,90,70,1,1,20,NA,NA,NA,NA,NA,NA,NA,NA,NA,NA,NA,6,8,90,70,1,1,20,NA,NA,NA,NA,NA,NA,NA,NA,NA,NA,NA,"",NA,NA,NA,NA,NA,NA,NA,NA,NA,2025-11-21 01:05:07
"3244.599999964237","https://psyc-201.github.io/xiang2023/exp/index1.html?PROLIFIC_PID=REDACTED&STUDY_ID=691f8ca61c6b4dcbb0aeb5f4&SESSION_ID=691fb864ca03c05a1c360eb9","survey-html-form",29,445736,"0.0-338.0","jQbOqBtMvLb1Qpnc2S+JRdQ30jtCnBerP+QTnzvBB9A2WKR49zQGbargoUk+dK+Eng1SEo1ebN4MnWQxegcp2Ep+3//SX/fqoTIPMmLA8U+ONkbD5ETvE49pQU9zNExpatn+z5q6zHUBW/y11J6ZCgwDi2HttFDPAQXaIl0zB0BW7sYQm8ttuN16oDCh0uGlch9pRJTYbkAWQ56xg/9KIq6MOtPiQV+qFMIWQuZ+jgQNhzTOelMUQKTFY/qCzlrJ5jpDlHqLFhZJgLk5NTY+rZitrulTwA4d341+xy5AfZfqx/Tn6XhcnZE1b6BvR1nEtS26Rj0S2jYS/aOEG5s3Dg==","691f8ca61c6b4dcbb0aeb5f4","691fb864ca03c05a1c360eb9","index1","<span style='color:red'>Fail,<span style='color:red'>Fail,<span style='color:green'>Lift,<span style='color:green'>Lift,<span style='color:red'>Fail,<span style='color:red'>Fail,<span style='color:red'>Fail,<span style='color:red'>Fail,<span style='color:red'>Fail,<span style='color:green'>Lift,<span style='color:red'>Fail,<span style='color:green'>Lift","<span style='color:red'>Fail,<span style='color:red'>Fail,<span style='color:green'>Lift,<span style='color:green'>Lift,<span style='color:green'>Lift,<span style='color:green'>Lift,<span style='color:green'>Lift,<span style='color:red'>Fail,<span style='color:green'>Lift,<span style='color:green'>Lift,<span style='color:red'>Fail,<span style='color:green'>Lift","<span style='color:red'>Fail,<span style='color:green'>Lift,<span style='color:green'>Lift,<span style='color:red'>Fail,<span style='color:green'>Lift,<span style='color:green'>Lift","0,0,1,1,0,0,0,0,0,1,0,1","0,0,1,1,1,1,1,0,1,1,0,1","0,1,1,0,1,1",10,20,20,"","","","","{""box1"":""100""}","",4,"round3_ready",4,4,3,NA,NA,NA,NA,NA,NA,NA,NA,NA,NA,NA,NA,NA,NA,100,100,NA,NA,NA,NA,NA,NA,NA,NA,NA,100,100,NA,NA,NA,NA,NA,NA,NA,NA,NA,"",NA,NA,NA,NA,NA,NA,NA,NA,NA,2025-11-21 01:05:07
"16124.899999976158","https://psyc-201.github.io/xiang2023/exp/index1.html?PROLIFIC_PID=REDACTED&STUDY_ID=691f8ca61c6b4dcbb0aeb5f4&SESSION_ID=691fb864ca03c05a1c360eb9","survey-html-form",30,461862,"0.0-339.0-0.0","jQbOqBtMvLb1Qpnc2S+JRdQ30jtCnBerP+QTnzvBB9A2WKR49zQGbargoUk+dK+Eng1SEo1ebN4MnWQxegcp2Ep+3//SX/fqoTIPMmLA8U+ONkbD5ETvE49pQU9zNExpatn+z5q6zHUBW/y11J6ZCgwDi2HttFDPAQXaIl0zB0BW7sYQm8ttuN16oDCh0uGlch9pRJTYbkAWQ56xg/9KIq6MOtPiQV+qFMIWQuZ+jgQNhzTOelMUQKTFY/qCzlrJ5jpDlHqLFhZJgLk5NTY+rZitrulTwA4d341+xy5AfZfqx/Tn6XhcnZE1b6BvR1nEtS26Rj0S2jYS/aOEG5s3Dg==","691f8ca61c6b4dcbb0aeb5f4","691fb864ca03c05a1c360eb9","index1","<span style='color:red'>Fail,<span style='color:red'>Fail,<span style='color:green'>Lift,<span style='color:green'>Lift,<span style='color:red'>Fail,<span style='color:red'>Fail,<span style='color:red'>Fail,<span style='color:red'>Fail,<span style='color:red'>Fail,<span style='color:green'>Lift,<span style='color:red'>Fail,<span style='color:green'>Lift","<span style='color:red'>Fail,<span style='color:red'>Fail,<span style='color:green'>Lift,<span style='color:green'>Lift,<span style='color:green'>Lift,<span style='color:green'>Lift,<span style='color:green'>Lift,<span style='color:red'>Fail,<span style='color:green'>Lift,<span style='color:green'>Lift,<span style='color:red'>Fail,<span style='color:green'>Lift","<span style='color:red'>Fail,<span style='color:green'>Lift,<span style='color:green'>Lift,<span style='color:red'>Fail,<span style='color:green'>Lift,<span style='color:green'>Lift","0,0,1,1,0,0,0,0,0,1,0,1","0,0,1,1,1,1,1,0,1,1,0,1","0,1,1,0,1,1",10,20,20,"","","","","{""box1"":""6"",""box2"":""9"",""box3"":""90"",""box4"":""70""}","",5,"round3_lift",5,4,3,6,9,90,70,1,1,20,NA,NA,NA,NA,NA,NA,NA,NA,NA,NA,NA,NA,NA,NA,NA,NA,NA,NA,NA,NA,6,9,90,70,1,1,20,NA,NA,"",NA,NA,NA,NA,NA,NA,NA,NA,NA,2025-11-21 01:05:07
"null","https://psyc-201.github.io/xiang2023/exp/index1.html?PROLIFIC_PID=REDACTED&STUDY_ID=691f8ca61c6b4dcbb0aeb5f4&SESSION_ID=691fb864ca03c05a1c360eb9","html-keyboard-response",31,464865,"0.0-343.0","jQbOqBtMvLb1Qpnc2S+JRdQ30jtCnBerP+QTnzvBB9A2WKR49zQGbargoUk+dK+Eng1SEo1ebN4MnWQxegcp2Ep+3//SX/fqoTIPMmLA8U+ONkbD5ETvE49pQU9zNExpatn+z5q6zHUBW/y11J6ZCgwDi2HttFDPAQXaIl0zB0BW7sYQm8ttuN16oDCh0uGlch9pRJTYbkAWQ56xg/9KIq6MOtPiQV+qFMIWQuZ+jgQNhzTOelMUQKTFY/qCzlrJ5jpDlHqLFhZJgLk5NTY+rZitrulTwA4d341+xy5AfZfqx/Tn6XhcnZE1b6BvR1nEtS26Rj0S2jYS/aOEG5s3Dg==","691f8ca61c6b4dcbb0aeb5f4","691fb864ca03c05a1c360eb9","index1","<span style='color:red'>Fail,<span style='color:red'>Fail,<span style='color:green'>Lift,<span style='color:green'>Lift,<span style='color:red'>Fail,<span style='color:red'>Fail,<span style='color:red'>Fail,<span style='color:red'>Fail,<span style='color:red'>Fail,<span style='color:green'>Lift,<span style='color:red'>Fail,<span style='color:green'>Lift","<span style='color:red'>Fail,<span style='color:red'>Fail,<span style='color:green'>Lift,<span style='color:green'>Lift,<span style='color:green'>Lift,<span style='color:green'>Lift,<span style='color:green'>Lift,<span style='color:red'>Fail,<span style='color:green'>Lift,<span style='color:green'>Lift,<span style='color:red'>Fail,<span style='color:green'>Lift","<span style='color:red'>Fail,<span style='color:green'>Lift,<span style='color:green'>Lift,<span style='color:red'>Fail,<span style='color:green'>Lift,<span style='color:green'>Lift","0,0,1,1,0,0,0,0,0,1,0,1","0,0,1,1,1,1,1,0,1,1,0,1","0,1,1,0,1,1",10,20,20,"","","<p style='font-size:30px'><b> New Contest! </b></p>","null","","",5,"",NA,NA,NA,NA,NA,NA,NA,NA,NA,NA,NA,NA,NA,NA,NA,NA,NA,NA,NA,NA,NA,NA,NA,NA,NA,NA,NA,NA,NA,NA,NA,NA,NA,NA,NA,NA,NA,NA,NA,"",NA,NA,NA,NA,NA,NA,NA,NA,NA,2025-11-21 01:05:07
"7710.199999988079","https://psyc-201.github.io/xiang2023/exp/index1.html?PROLIFIC_PID=REDACTED&STUDY_ID=691f8ca61c6b4dcbb0aeb5f4&SESSION_ID=691fb864ca03c05a1c360eb9","survey-html-form",32,472576,"0.0-344.0","jQbOqBtMvLb1Qpnc2S+JRdQ30jtCnBerP+QTnzvBB9A2WKR49zQGbargoUk+dK+Eng1SEo1ebN4MnWQxegcp2Ep+3//SX/fqoTIPMmLA8U+ONkbD5ETvE49pQU9zNExpatn+z5q6zHUBW/y11J6ZCgwDi2HttFDPAQXaIl0zB0BW7sYQm8ttuN16oDCh0uGlch9pRJTYbkAWQ56xg/9KIq6MOtPiQV+qFMIWQuZ+jgQNhzTOelMUQKTFY/qCzlrJ5jpDlHqLFhZJgLk5NTY+rZitrulTwA4d341+xy5AfZfqx/Tn6XhcnZE1b6BvR1nEtS26Rj0S2jYS/aOEG5s3Dg==","691f8ca61c6b4dcbb0aeb5f4","691fb864ca03c05a1c360eb9","index1","<span style='color:red'>Fail,<span style='color:red'>Fail,<span style='color:green'>Lift,<span style='color:green'>Lift,<span style='color:red'>Fail,<span style='color:red'>Fail,<span style='color:red'>Fail,<span style='color:red'>Fail,<span style='color:red'>Fail,<span style='color:green'>Lift,<span style='color:red'>Fail,<span style='color:green'>Lift","<span style='color:red'>Fail,<span style='color:red'>Fail,<span style='color:green'>Lift,<span style='color:green'>Lift,<span style='color:green'>Lift,<span style='color:green'>Lift,<span style='color:green'>Lift,<span style='color:red'>Fail,<span style='color:green'>Lift,<span style='color:green'>Lift,<span style='color:red'>Fail,<span style='color:green'>Lift","<span style='color:red'>Fail,<span style='color:green'>Lift,<span style='color:green'>Lift,<span style='color:red'>Fail,<span style='color:green'>Lift,<span style='color:green'>Lift","0,0,1,1,0,0,0,0,0,1,0,1","0,0,1,1,1,1,1,0,1,1,0,1","0,1,1,0,1,1",10,20,20,"","","","","{""box1"":""3"",""box2"":""3""}","",5,"round1_outcome",1,5,1,3,3,NA,NA,0,0,10,3,3,NA,NA,0,0,10,NA,NA,NA,NA,NA,NA,NA,NA,NA,NA,NA,NA,NA,NA,NA,NA,NA,NA,NA,NA,NA,NA,"",NA,NA,NA,NA,NA,NA,NA,NA,NA,2025-11-21 01:05:07
"7259.399999976158","https://psyc-201.github.io/xiang2023/exp/index1.html?PROLIFIC_PID=REDACTED&STUDY_ID=691f8ca61c6b4dcbb0aeb5f4&SESSION_ID=691fb864ca03c05a1c360eb9","survey-html-form",33,479838,"0.0-345.0","jQbOqBtMvLb1Qpnc2S+JRdQ30jtCnBerP+QTnzvBB9A2WKR49zQGbargoUk+dK+Eng1SEo1ebN4MnWQxegcp2Ep+3//SX/fqoTIPMmLA8U+ONkbD5ETvE49pQU9zNExpatn+z5q6zHUBW/y11J6ZCgwDi2HttFDPAQXaIl0zB0BW7sYQm8ttuN16oDCh0uGlch9pRJTYbkAWQ56xg/9KIq6MOtPiQV+qFMIWQuZ+jgQNhzTOelMUQKTFY/qCzlrJ5jpDlHqLFhZJgLk5NTY+rZitrulTwA4d341+xy5AfZfqx/Tn6XhcnZE1b6BvR1nEtS26Rj0S2jYS/aOEG5s3Dg==","691f8ca61c6b4dcbb0aeb5f4","691fb864ca03c05a1c360eb9","index1","<span style='color:red'>Fail,<span style='color:red'>Fail,<span style='color:green'>Lift,<span style='color:green'>Lift,<span style='color:red'>Fail,<span style='color:red'>Fail,<span style='color:red'>Fail,<span style='color:red'>Fail,<span style='color:red'>Fail,<span style='color:green'>Lift,<span style='color:red'>Fail,<span style='color:green'>Lift","<span style='color:red'>Fail,<span style='color:red'>Fail,<span style='color:green'>Lift,<span style='color:green'>Lift,<span style='color:green'>Lift,<span style='color:green'>Lift,<span style='color:green'>Lift,<span style='color:red'>Fail,<span style='color:green'>Lift,<span style='color:green'>Lift,<span style='color:red'>Fail,<span style='color:green'>Lift","<span style='color:red'>Fail,<span style='color:green'>Lift,<span style='color:green'>Lift,<span style='color:red'>Fail,<span style='color:green'>Lift,<span style='color:green'>Lift","0,0,1,1,0,0,0,0,0,1,0,1","0,0,1,1,1,1,1,0,1,1,0,1","0,1,1,0,1,1",10,20,20,"","","","","{""box1"":""30"",""box2"":""30""}","",5,"round2_ready",2,5,2,NA,NA,NA,NA,NA,NA,NA,NA,NA,NA,NA,NA,NA,NA,30,30,30,30,NA,NA,NA,NA,NA,NA,NA,NA,NA,NA,NA,NA,NA,NA,NA,NA,NA,NA,"",NA,NA,NA,NA,NA,NA,NA,NA,NA,2025-11-21 01:05:07
"11078.899999976158","https://psyc-201.github.io/xiang2023/exp/index1.html?PROLIFIC_PID=REDACTED&STUDY_ID=691f8ca61c6b4dcbb0aeb5f4&SESSION_ID=691fb864ca03c05a1c360eb9","survey-html-form",34,490918,"0.0-346.0","jQbOqBtMvLb1Qpnc2S+JRdQ30jtCnBerP+QTnzvBB9A2WKR49zQGbargoUk+dK+Eng1SEo1ebN4MnWQxegcp2Ep+3//SX/fqoTIPMmLA8U+ONkbD5ETvE49pQU9zNExpatn+z5q6zHUBW/y11J6ZCgwDi2HttFDPAQXaIl0zB0BW7sYQm8ttuN16oDCh0uGlch9pRJTYbkAWQ56xg/9KIq6MOtPiQV+qFMIWQuZ+jgQNhzTOelMUQKTFY/qCzlrJ5jpDlHqLFhZJgLk5NTY+rZitrulTwA4d341+xy5AfZfqx/Tn6XhcnZE1b6BvR1nEtS26Rj0S2jYS/aOEG5s3Dg==","691f8ca61c6b4dcbb0aeb5f4","691fb864ca03c05a1c360eb9","index1","<span style='color:red'>Fail,<span style='color:red'>Fail,<span style='color:green'>Lift,<span style='color:green'>Lift,<span style='color:red'>Fail,<span style='color:red'>Fail,<span style='color:red'>Fail,<span style='color:red'>Fail,<span style='color:red'>Fail,<span style='color:green'>Lift,<span style='color:red'>Fail,<span style='color:green'>Lift","<span style='color:red'>Fail,<span style='color:red'>Fail,<span style='color:green'>Lift,<span style='color:green'>Lift,<span style='color:green'>Lift,<span style='color:green'>Lift,<span style='color:green'>Lift,<span style='color:red'>Fail,<span style='color:green'>Lift,<span style='color:green'>Lift,<span style='color:red'>Fail,<span style='color:green'>Lift","<span style='color:red'>Fail,<span style='color:green'>Lift,<span style='color:green'>Lift,<span style='color:red'>Fail,<span style='color:green'>Lift,<span style='color:green'>Lift","0,0,1,1,0,0,0,0,0,1,0,1","0,0,1,1,1,1,1,0,1,1,0,1","0,1,1,0,1,1",10,20,20,"","","","","{""box1"":""2"",""box2"":""2""}","",5,"round2_outcome",3,5,2,2,2,NA,NA,0,0,20,NA,NA,NA,NA,NA,NA,NA,NA,NA,NA,NA,2,2,NA,NA,0,0,20,NA,NA,NA,NA,NA,NA,NA,NA,NA,NA,NA,"",NA,NA,NA,NA,NA,NA,NA,NA,NA,2025-11-21 01:05:07
"2751","https://psyc-201.github.io/xiang2023/exp/index1.html?PROLIFIC_PID=REDACTED&STUDY_ID=691f8ca61c6b4dcbb0aeb5f4&SESSION_ID=691fb864ca03c05a1c360eb9","survey-html-form",35,493670,"0.0-347.0","jQbOqBtMvLb1Qpnc2S+JRdQ30jtCnBerP+QTnzvBB9A2WKR49zQGbargoUk+dK+Eng1SEo1ebN4MnWQxegcp2Ep+3//SX/fqoTIPMmLA8U+ONkbD5ETvE49pQU9zNExpatn+z5q6zHUBW/y11J6ZCgwDi2HttFDPAQXaIl0zB0BW7sYQm8ttuN16oDCh0uGlch9pRJTYbkAWQ56xg/9KIq6MOtPiQV+qFMIWQuZ+jgQNhzTOelMUQKTFY/qCzlrJ5jpDlHqLFhZJgLk5NTY+rZitrulTwA4d341+xy5AfZfqx/Tn6XhcnZE1b6BvR1nEtS26Rj0S2jYS/aOEG5s3Dg==","691f8ca61c6b4dcbb0aeb5f4","691fb864ca03c05a1c360eb9","index1","<span style='color:red'>Fail,<span style='color:red'>Fail,<span style='color:green'>Lift,<span style='color:green'>Lift,<span style='color:red'>Fail,<span style='color:red'>Fail,<span style='color:red'>Fail,<span style='color:red'>Fail,<span style='color:red'>Fail,<span style='color:green'>Lift,<span style='color:red'>Fail,<span style='color:green'>Lift","<span style='color:red'>Fail,<span style='color:red'>Fail,<span style='color:green'>Lift,<span style='color:green'>Lift,<span style='color:green'>Lift,<span style='color:green'>Lift,<span style='color:green'>Lift,<span style='color:red'>Fail,<span style='color:green'>Lift,<span style='color:green'>Lift,<span style='color:red'>Fail,<span style='color:green'>Lift","<span style='color:red'>Fail,<span style='color:green'>Lift,<span style='color:green'>Lift,<span style='color:red'>Fail,<span style='color:green'>Lift,<span style='color:green'>Lift","0,0,1,1,0,0,0,0,0,1,0,1","0,0,1,1,1,1,1,0,1,1,0,1","0,1,1,0,1,1",10,20,20,"","","","","{""box1"":""10""}","",5,"round3_ready",4,5,3,NA,NA,NA,NA,NA,NA,NA,NA,NA,NA,NA,NA,NA,NA,10,10,NA,NA,NA,NA,NA,NA,NA,NA,NA,10,10,NA,NA,NA,NA,NA,NA,NA,NA,NA,"",NA,NA,NA,NA,NA,NA,NA,NA,NA,2025-11-21 01:05:07
"7215.200000047684","https://psyc-201.github.io/xiang2023/exp/index1.html?PROLIFIC_PID=REDACTED&STUDY_ID=691f8ca61c6b4dcbb0aeb5f4&SESSION_ID=691fb864ca03c05a1c360eb9","survey-html-form",36,500886,"0.0-349.0-0.0","jQbOqBtMvLb1Qpnc2S+JRdQ30jtCnBerP+QTnzvBB9A2WKR49zQGbargoUk+dK+Eng1SEo1ebN4MnWQxegcp2Ep+3//SX/fqoTIPMmLA8U+ONkbD5ETvE49pQU9zNExpatn+z5q6zHUBW/y11J6ZCgwDi2HttFDPAQXaIl0zB0BW7sYQm8ttuN16oDCh0uGlch9pRJTYbkAWQ56xg/9KIq6MOtPiQV+qFMIWQuZ+jgQNhzTOelMUQKTFY/qCzlrJ5jpDlHqLFhZJgLk5NTY+rZitrulTwA4d341+xy5AfZfqx/Tn6XhcnZE1b6BvR1nEtS26Rj0S2jYS/aOEG5s3Dg==","691f8ca61c6b4dcbb0aeb5f4","691fb864ca03c05a1c360eb9","index1","<span style='color:red'>Fail,<span style='color:red'>Fail,<span style='color:green'>Lift,<span style='color:green'>Lift,<span style='color:red'>Fail,<span style='color:red'>Fail,<span style='color:red'>Fail,<span style='color:red'>Fail,<span style='color:red'>Fail,<span style='color:green'>Lift,<span style='color:red'>Fail,<span style='color:green'>Lift","<span style='color:red'>Fail,<span style='color:red'>Fail,<span style='color:green'>Lift,<span style='color:green'>Lift,<span style='color:green'>Lift,<span style='color:green'>Lift,<span style='color:green'>Lift,<span style='color:red'>Fail,<span style='color:green'>Lift,<span style='color:green'>Lift,<span style='color:red'>Fail,<span style='color:green'>Lift","<span style='color:red'>Fail,<span style='color:green'>Lift,<span style='color:green'>Lift,<span style='color:red'>Fail,<span style='color:green'>Lift,<span style='color:green'>Lift","0,0,1,1,0,0,0,0,0,1,0,1","0,0,1,1,1,1,1,0,1,1,0,1","0,1,1,0,1,1",10,20,20,"","","","","{""box1"":""2"",""box2"":""2"",""box3"":""999"",""box4"":""999""}","",6,"round3_fail",5,5,3,2,2,NA,NA,0,0,20,NA,NA,NA,NA,NA,NA,NA,NA,NA,NA,NA,NA,NA,NA,NA,NA,NA,NA,NA,NA,2,2,NA,NA,0,0,20,1,1,"",NA,NA,NA,NA,NA,NA,NA,NA,NA,2025-11-21 01:05:07
"null","https://psyc-201.github.io/xiang2023/exp/index1.html?PROLIFIC_PID=REDACTED&STUDY_ID=691f8ca61c6b4dcbb0aeb5f4&SESSION_ID=691fb864ca03c05a1c360eb9","html-keyboard-response",37,503893,"0.0-352.0","jQbOqBtMvLb1Qpnc2S+JRdQ30jtCnBerP+QTnzvBB9A2WKR49zQGbargoUk+dK+Eng1SEo1ebN4MnWQxegcp2Ep+3//SX/fqoTIPMmLA8U+ONkbD5ETvE49pQU9zNExpatn+z5q6zHUBW/y11J6ZCgwDi2HttFDPAQXaIl0zB0BW7sYQm8ttuN16oDCh0uGlch9pRJTYbkAWQ56xg/9KIq6MOtPiQV+qFMIWQuZ+jgQNhzTOelMUQKTFY/qCzlrJ5jpDlHqLFhZJgLk5NTY+rZitrulTwA4d341+xy5AfZfqx/Tn6XhcnZE1b6BvR1nEtS26Rj0S2jYS/aOEG5s3Dg==","691f8ca61c6b4dcbb0aeb5f4","691fb864ca03c05a1c360eb9","index1","<span style='color:red'>Fail,<span style='color:red'>Fail,<span style='color:green'>Lift,<span style='color:green'>Lift,<span style='color:red'>Fail,<span style='color:red'>Fail,<span style='color:red'>Fail,<span style='color:red'>Fail,<span style='color:red'>Fail,<span style='color:green'>Lift,<span style='color:red'>Fail,<span style='color:green'>Lift","<span style='color:red'>Fail,<span style='color:red'>Fail,<span style='color:green'>Lift,<span style='color:green'>Lift,<span style='color:green'>Lift,<span style='color:green'>Lift,<span style='color:green'>Lift,<span style='color:red'>Fail,<span style='color:green'>Lift,<span style='color:green'>Lift,<span style='color:red'>Fail,<span style='color:green'>Lift","<span style='color:red'>Fail,<span style='color:green'>Lift,<span style='color:green'>Lift,<span style='color:red'>Fail,<span style='color:green'>Lift,<span style='color:green'>Lift","0,0,1,1,0,0,0,0,0,1,0,1","0,0,1,1,1,1,1,0,1,1,0,1","0,1,1,0,1,1",10,20,20,"","","<p style='font-size:30px'><b> New Contest! </b></p>","null","","",6,"",NA,NA,NA,NA,NA,NA,NA,NA,NA,NA,NA,NA,NA,NA,NA,NA,NA,NA,NA,NA,NA,NA,NA,NA,NA,NA,NA,NA,NA,NA,NA,NA,NA,NA,NA,NA,NA,NA,NA,"",NA,NA,NA,NA,NA,NA,NA,NA,NA,2025-11-21 01:05:07
"9280","https://psyc-201.github.io/xiang2023/exp/index1.html?PROLIFIC_PID=REDACTED&STUDY_ID=691f8ca61c6b4dcbb0aeb5f4&SESSION_ID=691fb864ca03c05a1c360eb9","survey-html-form",38,513174,"0.0-353.0","jQbOqBtMvLb1Qpnc2S+JRdQ30jtCnBerP+QTnzvBB9A2WKR49zQGbargoUk+dK+Eng1SEo1ebN4MnWQxegcp2Ep+3//SX/fqoTIPMmLA8U+ONkbD5ETvE49pQU9zNExpatn+z5q6zHUBW/y11J6ZCgwDi2HttFDPAQXaIl0zB0BW7sYQm8ttuN16oDCh0uGlch9pRJTYbkAWQ56xg/9KIq6MOtPiQV+qFMIWQuZ+jgQNhzTOelMUQKTFY/qCzlrJ5jpDlHqLFhZJgLk5NTY+rZitrulTwA4d341+xy5AfZfqx/Tn6XhcnZE1b6BvR1nEtS26Rj0S2jYS/aOEG5s3Dg==","691f8ca61c6b4dcbb0aeb5f4","691fb864ca03c05a1c360eb9","index1","<span style='color:red'>Fail,<span style='color:red'>Fail,<span style='color:green'>Lift,<span style='color:green'>Lift,<span style='color:red'>Fail,<span style='color:red'>Fail,<span style='color:red'>Fail,<span style='color:red'>Fail,<span style='color:red'>Fail,<span style='color:green'>Lift,<span style='color:red'>Fail,<span style='color:green'>Lift","<span style='color:red'>Fail,<span style='color:red'>Fail,<span style='color:green'>Lift,<span style='color:green'>Lift,<span style='color:green'>Lift,<span style='color:green'>Lift,<span style='color:green'>Lift,<span style='color:red'>Fail,<span style='color:green'>Lift,<span style='color:green'>Lift,<span style='color:red'>Fail,<span style='color:green'>Lift","<span style='color:red'>Fail,<span style='color:green'>Lift,<span style='color:green'>Lift,<span style='color:red'>Fail,<span style='color:green'>Lift,<span style='color:green'>Lift","0,0,1,1,0,0,0,0,0,1,0,1","0,0,1,1,1,1,1,0,1,1,0,1","0,1,1,0,1,1",10,20,20,"","","","","{""box1"":""3"",""box2"":""8"",""box4"":""70""}","",6,"round1_outcome",1,6,1,3,8,NA,70,0,1,10,3,8,NA,70,0,1,10,NA,NA,NA,NA,NA,NA,NA,NA,NA,NA,NA,NA,NA,NA,NA,NA,NA,NA,NA,NA,NA,NA,"",NA,NA,NA,NA,NA,NA,NA,NA,NA,2025-11-21 01:05:07
"8583","https://psyc-201.github.io/xiang2023/exp/index1.html?PROLIFIC_PID=REDACTED&STUDY_ID=691f8ca61c6b4dcbb0aeb5f4&SESSION_ID=691fb864ca03c05a1c360eb9","survey-html-form",39,521758,"0.0-354.0","jQbOqBtMvLb1Qpnc2S+JRdQ30jtCnBerP+QTnzvBB9A2WKR49zQGbargoUk+dK+Eng1SEo1ebN4MnWQxegcp2Ep+3//SX/fqoTIPMmLA8U+ONkbD5ETvE49pQU9zNExpatn+z5q6zHUBW/y11J6ZCgwDi2HttFDPAQXaIl0zB0BW7sYQm8ttuN16oDCh0uGlch9pRJTYbkAWQ56xg/9KIq6MOtPiQV+qFMIWQuZ+jgQNhzTOelMUQKTFY/qCzlrJ5jpDlHqLFhZJgLk5NTY+rZitrulTwA4d341+xy5AfZfqx/Tn6XhcnZE1b6BvR1nEtS26Rj0S2jYS/aOEG5s3Dg==","691f8ca61c6b4dcbb0aeb5f4","691fb864ca03c05a1c360eb9","index1","<span style='color:red'>Fail,<span style='color:red'>Fail,<span style='color:green'>Lift,<span style='color:green'>Lift,<span style='color:red'>Fail,<span style='color:red'>Fail,<span style='color:red'>Fail,<span style='color:red'>Fail,<span style='color:red'>Fail,<span style='color:green'>Lift,<span style='color:red'>Fail,<span style='color:green'>Lift","<span style='color:red'>Fail,<span style='color:red'>Fail,<span style='color:green'>Lift,<span style='color:green'>Lift,<span style='color:green'>Lift,<span style='color:green'>Lift,<span style='color:green'>Lift,<span style='color:red'>Fail,<span style='color:green'>Lift,<span style='color:green'>Lift,<span style='color:red'>Fail,<span style='color:green'>Lift","<span style='color:red'>Fail,<span style='color:green'>Lift,<span style='color:green'>Lift,<span style='color:red'>Fail,<span style='color:green'>Lift,<span style='color:green'>Lift","0,0,1,1,0,0,0,0,0,1,0,1","0,0,1,1,1,1,1,0,1,1,0,1","0,1,1,0,1,1",10,20,20,"","","","","{""box1"":""40"",""box2"":""90""}","",6,"round2_ready",2,6,2,NA,NA,NA,NA,NA,NA,NA,NA,NA,NA,NA,NA,NA,NA,40,90,40,90,NA,NA,NA,NA,NA,NA,NA,NA,NA,NA,NA,NA,NA,NA,NA,NA,NA,NA,"",NA,NA,NA,NA,NA,NA,NA,NA,NA,2025-11-21 01:05:07
"11817.100000023842","https://psyc-201.github.io/xiang2023/exp/index1.html?PROLIFIC_PID=REDACTED&STUDY_ID=691f8ca61c6b4dcbb0aeb5f4&SESSION_ID=691fb864ca03c05a1c360eb9","survey-html-form",40,533577,"0.0-355.0","jQbOqBtMvLb1Qpnc2S+JRdQ30jtCnBerP+QTnzvBB9A2WKR49zQGbargoUk+dK+Eng1SEo1ebN4MnWQxegcp2Ep+3//SX/fqoTIPMmLA8U+ONkbD5ETvE49pQU9zNExpatn+z5q6zHUBW/y11J6ZCgwDi2HttFDPAQXaIl0zB0BW7sYQm8ttuN16oDCh0uGlch9pRJTYbkAWQ56xg/9KIq6MOtPiQV+qFMIWQuZ+jgQNhzTOelMUQKTFY/qCzlrJ5jpDlHqLFhZJgLk5NTY+rZitrulTwA4d341+xy5AfZfqx/Tn6XhcnZE1b6BvR1nEtS26Rj0S2jYS/aOEG5s3Dg==","691f8ca61c6b4dcbb0aeb5f4","691fb864ca03c05a1c360eb9","index1","<span style='color:red'>Fail,<span style='color:red'>Fail,<span style='color:green'>Lift,<span style='color:green'>Lift,<span style='color:red'>Fail,<span style='color:red'>Fail,<span style='color:red'>Fail,<span style='color:red'>Fail,<span style='color:red'>Fail,<span style='color:green'>Lift,<span style='color:red'>Fail,<span style='color:green'>Lift","<span style='color:red'>Fail,<span style='color:red'>Fail,<span style='color:green'>Lift,<span style='color:green'>Lift,<span style='color:green'>Lift,<span style='color:green'>Lift,<span style='color:green'>Lift,<span style='color:red'>Fail,<span style='color:green'>Lift,<span style='color:green'>Lift,<span style='color:red'>Fail,<span style='color:green'>Lift","<span style='color:red'>Fail,<span style='color:green'>Lift,<span style='color:green'>Lift,<span style='color:red'>Fail,<span style='color:green'>Lift,<span style='color:green'>Lift","0,0,1,1,0,0,0,0,0,1,0,1","0,0,1,1,1,1,1,0,1,1,0,1","0,1,1,0,1,1",10,20,20,"","","","","{""box1"":""3"",""box2"":""9"",""box4"":""70""}","",6,"round2_outcome",3,6,2,3,9,NA,70,0,1,20,NA,NA,NA,NA,NA,NA,NA,NA,NA,NA,NA,3,9,NA,70,0,1,20,NA,NA,NA,NA,NA,NA,NA,NA,NA,NA,NA,"",NA,NA,NA,NA,NA,NA,NA,NA,NA,2025-11-21 01:05:07
"2700.699999988079","https://psyc-201.github.io/xiang2023/exp/index1.html?PROLIFIC_PID=REDACTED&STUDY_ID=691f8ca61c6b4dcbb0aeb5f4&SESSION_ID=691fb864ca03c05a1c360eb9","survey-html-form",41,536280,"0.0-356.0","jQbOqBtMvLb1Qpnc2S+JRdQ30jtCnBerP+QTnzvBB9A2WKR49zQGbargoUk+dK+Eng1SEo1ebN4MnWQxegcp2Ep+3//SX/fqoTIPMmLA8U+ONkbD5ETvE49pQU9zNExpatn+z5q6zHUBW/y11J6ZCgwDi2HttFDPAQXaIl0zB0BW7sYQm8ttuN16oDCh0uGlch9pRJTYbkAWQ56xg/9KIq6MOtPiQV+qFMIWQuZ+jgQNhzTOelMUQKTFY/qCzlrJ5jpDlHqLFhZJgLk5NTY+rZitrulTwA4d341+xy5AfZfqx/Tn6XhcnZE1b6BvR1nEtS26Rj0S2jYS/aOEG5s3Dg==","691f8ca61c6b4dcbb0aeb5f4","691fb864ca03c05a1c360eb9","index1","<span style='color:red'>Fail,<span style='color:red'>Fail,<span style='color:green'>Lift,<span style='color:green'>Lift,<span style='color:red'>Fail,<span style='color:red'>Fail,<span style='color:red'>Fail,<span style='color:red'>Fail,<span style='color:red'>Fail,<span style='color:green'>Lift,<span style='color:red'>Fail,<span style='color:green'>Lift","<span style='color:red'>Fail,<span style='color:red'>Fail,<span style='color:green'>Lift,<span style='color:green'>Lift,<span style='color:green'>Lift,<span style='color:green'>Lift,<span style='color:green'>Lift,<span style='color:red'>Fail,<span style='color:green'>Lift,<span style='color:green'>Lift,<span style='color:red'>Fail,<span style='color:green'>Lift","<span style='color:red'>Fail,<span style='color:green'>Lift,<span style='color:green'>Lift,<span style='color:red'>Fail,<span style='color:green'>Lift,<span style='color:green'>Lift","0,0,1,1,0,0,0,0,0,1,0,1","0,0,1,1,1,1,1,0,1,1,0,1","0,1,1,0,1,1",10,20,20,"","","","","{""box1"":""100""}","",6,"round3_ready",4,6,3,NA,NA,NA,NA,NA,NA,NA,NA,NA,NA,NA,NA,NA,NA,100,100,NA,NA,NA,NA,NA,NA,NA,NA,NA,100,100,NA,NA,NA,NA,NA,NA,NA,NA,NA,"",NA,NA,NA,NA,NA,NA,NA,NA,NA,2025-11-21 01:05:07
"12676.5","https://psyc-201.github.io/xiang2023/exp/index1.html?PROLIFIC_PID=REDACTED&STUDY_ID=691f8ca61c6b4dcbb0aeb5f4&SESSION_ID=691fb864ca03c05a1c360eb9","survey-html-form",42,548959,"0.0-357.0-0.0","jQbOqBtMvLb1Qpnc2S+JRdQ30jtCnBerP+QTnzvBB9A2WKR49zQGbargoUk+dK+Eng1SEo1ebN4MnWQxegcp2Ep+3//SX/fqoTIPMmLA8U+ONkbD5ETvE49pQU9zNExpatn+z5q6zHUBW/y11J6ZCgwDi2HttFDPAQXaIl0zB0BW7sYQm8ttuN16oDCh0uGlch9pRJTYbkAWQ56xg/9KIq6MOtPiQV+qFMIWQuZ+jgQNhzTOelMUQKTFY/qCzlrJ5jpDlHqLFhZJgLk5NTY+rZitrulTwA4d341+xy5AfZfqx/Tn6XhcnZE1b6BvR1nEtS26Rj0S2jYS/aOEG5s3Dg==","691f8ca61c6b4dcbb0aeb5f4","691fb864ca03c05a1c360eb9","index1","<span style='color:red'>Fail,<span style='color:red'>Fail,<span style='color:green'>Lift,<span style='color:green'>Lift,<span style='color:red'>Fail,<span style='color:red'>Fail,<span style='color:red'>Fail,<span style='color:red'>Fail,<span style='color:red'>Fail,<span style='color:green'>Lift,<span style='color:red'>Fail,<span style='color:green'>Lift","<span style='color:red'>Fail,<span style='color:red'>Fail,<span style='color:green'>Lift,<span style='color:green'>Lift,<span style='color:green'>Lift,<span style='color:green'>Lift,<span style='color:green'>Lift,<span style='color:red'>Fail,<span style='color:green'>Lift,<span style='color:green'>Lift,<span style='color:red'>Fail,<span style='color:green'>Lift","<span style='color:red'>Fail,<span style='color:green'>Lift,<span style='color:green'>Lift,<span style='color:red'>Fail,<span style='color:green'>Lift,<span style='color:green'>Lift","0,0,1,1,0,0,0,0,0,1,0,1","0,0,1,1,1,1,1,0,1,1,0,1","0,1,1,0,1,1",10,20,20,"","","","","{""box1"":""3"",""box2"":""9"",""box3"":""50"",""box4"":""80""}","",6,"round3_lift",5,6,3,3,9,50,80,1,1,20,NA,NA,NA,NA,NA,NA,NA,NA,NA,NA,NA,NA,NA,NA,NA,NA,NA,NA,NA,NA,3,9,50,80,1,1,20,NA,NA,"",NA,NA,NA,NA,NA,NA,NA,NA,NA,2025-11-21 01:05:07
"27125.099999964237","https://psyc-201.github.io/xiang2023/exp/index1.html?PROLIFIC_PID=REDACTED&STUDY_ID=691f8ca61c6b4dcbb0aeb5f4&SESSION_ID=691fb864ca03c05a1c360eb9","survey-text",43,576086,"0.0-361.0","jQbOqBtMvLb1Qpnc2S+JRdQ30jtCnBerP+QTnzvBB9A2WKR49zQGbargoUk+dK+Eng1SEo1ebN4MnWQxegcp2Ep+3//SX/fqoTIPMmLA8U+ONkbD5ETvE49pQU9zNExpatn+z5q6zHUBW/y11J6ZCgwDi2HttFDPAQXaIl0zB0BW7sYQm8ttuN16oDCh0uGlch9pRJTYbkAWQ56xg/9KIq6MOtPiQV+qFMIWQuZ+jgQNhzTOelMUQKTFY/qCzlrJ5jpDlHqLFhZJgLk5NTY+rZitrulTwA4d341+xy5AfZfqx/Tn6XhcnZE1b6BvR1nEtS26Rj0S2jYS/aOEG5s3Dg==","691f8ca61c6b4dcbb0aeb5f4","691fb864ca03c05a1c360eb9","index1","<span style='color:red'>Fail,<span style='color:red'>Fail,<span style='color:green'>Lift,<span style='color:green'>Lift,<span style='color:red'>Fail,<span style='color:red'>Fail,<span style='color:red'>Fail,<span style='color:red'>Fail,<span style='color:red'>Fail,<span style='color:green'>Lift,<span style='color:red'>Fail,<span style='color:green'>Lift","<span style='color:red'>Fail,<span style='color:red'>Fail,<span style='color:green'>Lift,<span style='color:green'>Lift,<span style='color:green'>Lift,<span style='color:green'>Lift,<span style='color:green'>Lift,<span style='color:red'>Fail,<span style='color:green'>Lift,<span style='color:green'>Lift,<span style='color:red'>Fail,<span style='color:green'>Lift","<span style='color:red'>Fail,<span style='color:green'>Lift,<span style='color:green'>Lift,<span style='color:red'>Fail,<span style='color:green'>Lift,<span style='color:green'>Lift","0,0,1,1,0,0,0,0,0,1,0,1","0,0,1,1,1,1,1,0,1,1,0,1","0,1,1,0,1,1",10,20,20,"","","","","{""Q0"":""I had to guess if two people could lift a box and give the odds of their chances to lift it and how much effort they put into it.""}","",NA,"",NA,NA,NA,NA,NA,NA,NA,NA,NA,NA,NA,NA,NA,NA,NA,NA,NA,NA,NA,NA,NA,NA,NA,NA,NA,NA,NA,NA,NA,NA,NA,NA,NA,NA,NA,NA,NA,NA,NA,"",NA,NA,NA,NA,NA,NA,NA,NA,NA,2025-11-21 01:05:07
"11118.900000035763","https://psyc-201.github.io/xiang2023/exp/index1.html?PROLIFIC_PID=REDACTED&STUDY_ID=691f8ca61c6b4dcbb0aeb5f4&SESSION_ID=691fb864ca03c05a1c360eb9","survey-text",44,587206,"0.0-362.0","jQbOqBtMvLb1Qpnc2S+JRdQ30jtCnBerP+QTnzvBB9A2WKR49zQGbargoUk+dK+Eng1SEo1ebN4MnWQxegcp2Ep+3//SX/fqoTIPMmLA8U+ONkbD5ETvE49pQU9zNExpatn+z5q6zHUBW/y11J6ZCgwDi2HttFDPAQXaIl0zB0BW7sYQm8ttuN16oDCh0uGlch9pRJTYbkAWQ56xg/9KIq6MOtPiQV+qFMIWQuZ+jgQNhzTOelMUQKTFY/qCzlrJ5jpDlHqLFhZJgLk5NTY+rZitrulTwA4d341+xy5AfZfqx/Tn6XhcnZE1b6BvR1nEtS26Rj0S2jYS/aOEG5s3Dg==","691f8ca61c6b4dcbb0aeb5f4","691fb864ca03c05a1c360eb9","index1","<span style='color:red'>Fail,<span style='color:red'>Fail,<span style='color:green'>Lift,<span style='color:green'>Lift,<span style='color:red'>Fail,<span style='color:red'>Fail,<span style='color:red'>Fail,<span style='color:red'>Fail,<span style='color:red'>Fail,<span style='color:green'>Lift,<span style='color:red'>Fail,<span style='color:green'>Lift","<span style='color:red'>Fail,<span style='color:red'>Fail,<span style='color:green'>Lift,<span style='color:green'>Lift,<span style='color:green'>Lift,<span style='color:green'>Lift,<span style='color:green'>Lift,<span style='color:red'>Fail,<span style='color:green'>Lift,<span style='color:green'>Lift,<span style='color:red'>Fail,<span style='color:green'>Lift","<span style='color:red'>Fail,<span style='color:green'>Lift,<span style='color:green'>Lift,<span style='color:red'>Fail,<span style='color:green'>Lift,<span style='color:green'>Lift","0,0,1,1,0,0,0,0,0,1,0,1","0,0,1,1,1,1,1,0,1,1,0,1","0,1,1,0,1,1",10,20,20,"","","","","{""Q0"":""Everything worked fine and was understandable.""}","",NA,"",NA,NA,NA,NA,NA,NA,NA,NA,NA,NA,NA,NA,NA,NA,NA,NA,NA,NA,NA,NA,NA,NA,NA,NA,NA,NA,NA,NA,NA,NA,NA,NA,NA,NA,NA,NA,NA,NA,NA,"[{""event"":""blur"",""trial"":0,""time"":6302},{""event"":""focus"",""trial"":0,""time"":15220},{""event"":""blur"",""trial"":0,""time"":16660},{""event"":""focus"",""trial"":0,""time"":34280},{""event"":""blur"",""trial"":0,""time"":34921},{""event"":""focus"",""trial"":0,""time"":37177},{""event"":""blur"",""trial"":0,""time"":39149},{""event"":""focus"",""trial"":0,""time"":62138},{""event"":""blur"",""trial"":0,""time"":64093},{""event"":""focus"",""trial"":0,""time"":67734},{""event"":""fullscreenenter"",""trial"":1,""time"":87271}]",3,3,NA,100,1,1,NA,NA,NA,2025-11-21 01:05:07
"4646.699999988079","https://psyc-201.github.io/xiang2023/exp/index1.html?PROLIFIC_PID=REDACTED&STUDY_ID=691f8ca61c6b4dcbb0aeb5f4&SESSION_ID=691fb864ca03c05a1c360eb9","html-button-response",45,591854,"0.0-363.0","jQbOqBtMvLb1Qpnc2S+JRdQ30jtCnBerP+QTnzvBB9A2WKR49zQGbargoUk+dK+Eng1SEo1ebN4MnWQxegcp2Ep+3//SX/fqoTIPMmLA8U+ONkbD5ETvE49pQU9zNExpatn+z5q6zHUBW/y11J6ZCgwDi2HttFDPAQXaIl0zB0BW7sYQm8ttuN16oDCh0uGlch9pRJTYbkAWQ56xg/9KIq6MOtPiQV+qFMIWQuZ+jgQNhzTOelMUQKTFY/qCzlrJ5jpDlHqLFhZJgLk5NTY+rZitrulTwA4d341+xy5AfZfqx/Tn6XhcnZE1b6BvR1nEtS26Rj0S2jYS/aOEG5s3Dg==","691f8ca61c6b4dcbb0aeb5f4","691fb864ca03c05a1c360eb9","index1","<span style='color:red'>Fail,<span style='color:red'>Fail,<span style='color:green'>Lift,<span style='color:green'>Lift,<span style='color:red'>Fail,<span style='color:red'>Fail,<span style='color:red'>Fail,<span style='color:red'>Fail,<span style='color:red'>Fail,<span style='color:green'>Lift,<span style='color:red'>Fail,<span style='color:green'>Lift","<span style='color:red'>Fail,<span style='color:red'>Fail,<span style='color:green'>Lift,<span style='color:green'>Lift,<span style='color:green'>Lift,<span style='color:green'>Lift,<span style='color:green'>Lift,<span style='color:red'>Fail,<span style='color:green'>Lift,<span style='color:green'>Lift,<span style='color:red'>Fail,<span style='color:green'>Lift","<span style='color:red'>Fail,<span style='color:green'>Lift,<span style='color:green'>Lift,<span style='color:red'>Fail,<span style='color:green'>Lift,<span style='color:green'>Lift","0,0,1,1,0,0,0,0,0,1,0,1","0,0,1,1,1,1,1,0,1,1,0,1","0,1,1,0,1,1",10,20,20,"","","<p> We randomly picked <b>Contest 3, Round 3</b> to calculate your bonus. </p><p> The outcome of Contestant E and F on that round is <span style='color:green'>Lift</span>. </p><p> The probability you entered was 100. </p><p><b> You won a bonus of $1.00!</b></p><p> IMPORTANT: Please click 'Next' to complete the game. </p>","","","",NA,"",NA,NA,NA,NA,NA,NA,NA,NA,NA,NA,NA,NA,NA,NA,NA,NA,NA,NA,NA,NA,NA,NA,NA,NA,NA,NA,NA,NA,NA,NA,NA,NA,NA,NA,NA,NA,NA,NA,NA,"",NA,NA,NA,NA,NA,NA,0,2,1,2025-11-21 01:05:07
