"rt","url","trial_type","trial_index","time_elapsed","internal_node_id","encryptedProlificId","studyId","sessionId","expIndex","round1_outcomes","round2_outcomes","round3_outcomes","round1_o","round2_o","round3_o","round1_reward","round2_reward","round3_reward","success","view_history","stimulus","key_press","responses","question_order","button_pressed","j","Stage","stage","contest","round","strength_a","strength_b","effort_a","effort_b","outcome_a","outcome_b","reward","r1_strength_a","r1_strength_b","r1_effort_a","r1_effort_b","r1_outcome_a","r1_outcome_b","r1_reward","probability_a","probability_b","r2_prob_a","r2_prob_b","r2_strength_a","r2_strength_b","r2_effort_a","r2_effort_b","r2_outcome_a","r2_outcome_b","r2_reward","r3_prob_a","r3_prob_b","attention_check","count","r3_strength_a","r3_strength_b","r3_outcome_a","r3_outcome_b","r3_reward","r3_effort_a","r3_effort_b","screen","pick_contest","pick_round","pick_side","trial_probability","trial_outcome","bonus","attention_sum","attention","datapipe_meta.attributes.date_modified"
"32604.800000071526","https://psyc-201.github.io/xiang2023/exp/index1.html?PROLIFIC_PID=REDACTED&STUDY_ID=691f8ca61c6b4dcbb0aeb5f4&SESSION_ID=691fbe67e787f1998c73188d","external-html",0,32665,"0.0-0.0","GDpVsq8RW2TFubnHHznsrUevT8iaEp0TrEFN4CIR1xTOSw30fTXZcV9P46cWrtsxjh9BYE/rgJruYMqzZar2pw//YhcOc8cSmKVIZ4opPZkTKKov8nKpaZB+k6gZ9oLKBJHsnT4Dm5pc0JHj+/HlRpDnxC2t4lzJ+YbzV9CpB3sTXhXwHNXOeDJeMww27B3l9H0PPXH5UOH9qIaLyQwED9P7I31upPesMeQhOUtZQ6hm2S62J+FLg0/eXZEdHudY89M8IEz7NL7ltAjzyUXOqQyInw++yJuEZOHjSO37PS5P0nwmxkhdDFgqwwue8SZTQUQkpBVTmyU34SVZV8LgVg==","691f8ca61c6b4dcbb0aeb5f4","691fbe67e787f1998c73188d","index1","<span style='color:red'>Fail,<span style='color:red'>Fail,<span style='color:green'>Lift,<span style='color:green'>Lift,<span style='color:red'>Fail,<span style='color:red'>Fail,<span style='color:red'>Fail,<span style='color:red'>Fail,<span style='color:red'>Fail,<span style='color:green'>Lift,<span style='color:red'>Fail,<span style='color:green'>Lift","<span style='color:red'>Fail,<span style='color:red'>Fail,<span style='color:green'>Lift,<span style='color:green'>Lift,<span style='color:green'>Lift,<span style='color:green'>Lift,<span style='color:green'>Lift,<span style='color:red'>Fail,<span style='color:green'>Lift,<span style='color:green'>Lift,<span style='color:red'>Fail,<span style='color:green'>Lift","<span style='color:red'>Fail,<span style='color:green'>Lift,<span style='color:green'>Lift,<span style='color:red'>Fail,<span style='color:green'>Lift,<span style='color:green'>Lift","0,0,1,1,0,0,0,0,0,1,0,1","0,0,1,1,1,1,1,0,1,1,0,1","0,1,1,0,1,1",10,20,20,"","","","","","",NA,NA,"",NA,NA,NA,NA,NA,NA,NA,NA,NA,NA,NA,NA,NA,NA,NA,NA,NA,NA,NA,NA,NA,NA,NA,NA,NA,NA,NA,NA,NA,NA,NA,NA,NA,NA,NA,NA,NA,NA,NA,"",NA,NA,NA,NA,NA,NA,NA,NA,2025-11-21 01:40:01
"","https://psyc-201.github.io/xiang2023/exp/index1.html?PROLIFIC_PID=REDACTED&STUDY_ID=691f8ca61c6b4dcbb0aeb5f4&SESSION_ID=691fbe67e787f1998c73188d","fullscreen",1,43350,"0.0-1.0","GDpVsq8RW2TFubnHHznsrUevT8iaEp0TrEFN4CIR1xTOSw30fTXZcV9P46cWrtsxjh9BYE/rgJruYMqzZar2pw//YhcOc8cSmKVIZ4opPZkTKKov8nKpaZB+k6gZ9oLKBJHsnT4Dm5pc0JHj+/HlRpDnxC2t4lzJ+YbzV9CpB3sTXhXwHNXOeDJeMww27B3l9H0PPXH5UOH9qIaLyQwED9P7I31upPesMeQhOUtZQ6hm2S62J+FLg0/eXZEdHudY89M8IEz7NL7ltAjzyUXOqQyInw++yJuEZOHjSO37PS5P0nwmxkhdDFgqwwue8SZTQUQkpBVTmyU34SVZV8LgVg==","691f8ca61c6b4dcbb0aeb5f4","691fbe67e787f1998c73188d","index1","<span style='color:red'>Fail,<span style='color:red'>Fail,<span style='color:green'>Lift,<span style='color:green'>Lift,<span style='color:red'>Fail,<span style='color:red'>Fail,<span style='color:red'>Fail,<span style='color:red'>Fail,<span style='color:red'>Fail,<span style='color:green'>Lift,<span style='color:red'>Fail,<span style='color:green'>Lift","<span style='color:red'>Fail,<span style='color:red'>Fail,<span style='color:green'>Lift,<span style='color:green'>Lift,<span style='color:green'>Lift,<span style='color:green'>Lift,<span style='color:green'>Lift,<span style='color:red'>Fail,<span style='color:green'>Lift,<span style='color:green'>Lift,<span style='color:red'>Fail,<span style='color:green'>Lift","<span style='color:red'>Fail,<span style='color:green'>Lift,<span style='color:green'>Lift,<span style='color:red'>Fail,<span style='color:green'>Lift,<span style='color:green'>Lift","0,0,1,1,0,0,0,0,0,1,0,1","0,0,1,1,1,1,1,0,1,1,0,1","0,1,1,0,1,1",10,20,20,"true","","","","","",NA,NA,"",NA,NA,NA,NA,NA,NA,NA,NA,NA,NA,NA,NA,NA,NA,NA,NA,NA,NA,NA,NA,NA,NA,NA,NA,NA,NA,NA,NA,NA,NA,NA,NA,NA,NA,NA,NA,NA,NA,NA,"",NA,NA,NA,NA,NA,NA,NA,NA,2025-11-21 01:40:01
"178436.29999995232","https://psyc-201.github.io/xiang2023/exp/index1.html?PROLIFIC_PID=REDACTED&STUDY_ID=691f8ca61c6b4dcbb0aeb5f4&SESSION_ID=691fbe67e787f1998c73188d","instructions",2,221787,"0.0-2.0","GDpVsq8RW2TFubnHHznsrUevT8iaEp0TrEFN4CIR1xTOSw30fTXZcV9P46cWrtsxjh9BYE/rgJruYMqzZar2pw//YhcOc8cSmKVIZ4opPZkTKKov8nKpaZB+k6gZ9oLKBJHsnT4Dm5pc0JHj+/HlRpDnxC2t4lzJ+YbzV9CpB3sTXhXwHNXOeDJeMww27B3l9H0PPXH5UOH9qIaLyQwED9P7I31upPesMeQhOUtZQ6hm2S62J+FLg0/eXZEdHudY89M8IEz7NL7ltAjzyUXOqQyInw++yJuEZOHjSO37PS5P0nwmxkhdDFgqwwue8SZTQUQkpBVTmyU34SVZV8LgVg==","691f8ca61c6b4dcbb0aeb5f4","691fbe67e787f1998c73188d","index1","<span style='color:red'>Fail,<span style='color:red'>Fail,<span style='color:green'>Lift,<span style='color:green'>Lift,<span style='color:red'>Fail,<span style='color:red'>Fail,<span style='color:red'>Fail,<span style='color:red'>Fail,<span style='color:red'>Fail,<span style='color:green'>Lift,<span style='color:red'>Fail,<span style='color:green'>Lift","<span style='color:red'>Fail,<span style='color:red'>Fail,<span style='color:green'>Lift,<span style='color:green'>Lift,<span style='color:green'>Lift,<span style='color:green'>Lift,<span style='color:green'>Lift,<span style='color:red'>Fail,<span style='color:green'>Lift,<span style='color:green'>Lift,<span style='color:red'>Fail,<span style='color:green'>Lift","<span style='color:red'>Fail,<span style='color:green'>Lift,<span style='color:green'>Lift,<span style='color:red'>Fail,<span style='color:green'>Lift,<span style='color:green'>Lift","0,0,1,1,0,0,0,0,0,1,0,1","0,0,1,1,1,1,1,0,1,1,0,1","0,1,1,0,1,1",10,20,20,"","[{""page_index"":0,""viewing_time"":29965.899999976158},{""page_index"":1,""viewing_time"":28979.700000047684},{""page_index"":2,""viewing_time"":20877.199999928474},{""page_index"":3,""viewing_time"":31866.5},{""page_index"":4,""viewing_time"":13353.700000047684},{""page_index"":5,""viewing_time"":19751.899999976158},{""page_index"":6,""viewing_time"":14321.399999976158},{""page_index"":5,""viewing_time"":1663.5},{""page_index"":4,""viewing_time"":7516.200000047684},{""page_index"":5,""viewing_time"":7165},{""page_index"":6,""viewing_time"":2974.899999976158}]","","","","",NA,NA,"",NA,NA,NA,NA,NA,NA,NA,NA,NA,NA,NA,NA,NA,NA,NA,NA,NA,NA,NA,NA,NA,NA,NA,NA,NA,NA,NA,NA,NA,NA,NA,NA,NA,NA,NA,NA,NA,NA,NA,"",NA,NA,NA,NA,NA,NA,NA,NA,2025-11-21 01:40:01
"null","https://psyc-201.github.io/xiang2023/exp/index1.html?PROLIFIC_PID=REDACTED&STUDY_ID=691f8ca61c6b4dcbb0aeb5f4&SESSION_ID=691fbe67e787f1998c73188d","html-keyboard-response",3,222791,"0.0-3.0","GDpVsq8RW2TFubnHHznsrUevT8iaEp0TrEFN4CIR1xTOSw30fTXZcV9P46cWrtsxjh9BYE/rgJruYMqzZar2pw//YhcOc8cSmKVIZ4opPZkTKKov8nKpaZB+k6gZ9oLKBJHsnT4Dm5pc0JHj+/HlRpDnxC2t4lzJ+YbzV9CpB3sTXhXwHNXOeDJeMww27B3l9H0PPXH5UOH9qIaLyQwED9P7I31upPesMeQhOUtZQ6hm2S62J+FLg0/eXZEdHudY89M8IEz7NL7ltAjzyUXOqQyInw++yJuEZOHjSO37PS5P0nwmxkhdDFgqwwue8SZTQUQkpBVTmyU34SVZV8LgVg==","691f8ca61c6b4dcbb0aeb5f4","691fbe67e787f1998c73188d","index1","<span style='color:red'>Fail,<span style='color:red'>Fail,<span style='color:green'>Lift,<span style='color:green'>Lift,<span style='color:red'>Fail,<span style='color:red'>Fail,<span style='color:red'>Fail,<span style='color:red'>Fail,<span style='color:red'>Fail,<span style='color:green'>Lift,<span style='color:red'>Fail,<span style='color:green'>Lift","<span style='color:red'>Fail,<span style='color:red'>Fail,<span style='color:green'>Lift,<span style='color:green'>Lift,<span style='color:green'>Lift,<span style='color:green'>Lift,<span style='color:green'>Lift,<span style='color:red'>Fail,<span style='color:green'>Lift,<span style='color:green'>Lift,<span style='color:red'>Fail,<span style='color:green'>Lift","<span style='color:red'>Fail,<span style='color:green'>Lift,<span style='color:green'>Lift,<span style='color:red'>Fail,<span style='color:green'>Lift,<span style='color:green'>Lift","0,0,1,1,0,0,0,0,0,1,0,1","0,0,1,1,1,1,1,0,1,1,0,1","0,1,1,0,1,1",10,20,20,"",""," ","null","","",NA,NA,"",NA,NA,NA,NA,NA,NA,NA,NA,NA,NA,NA,NA,NA,NA,NA,NA,NA,NA,NA,NA,NA,NA,NA,NA,NA,NA,NA,NA,NA,NA,NA,NA,NA,NA,NA,NA,NA,NA,NA,"",NA,NA,NA,NA,NA,NA,NA,NA,2025-11-21 01:40:01
"63047.299999952316","https://psyc-201.github.io/xiang2023/exp/index1.html?PROLIFIC_PID=REDACTED&STUDY_ID=691f8ca61c6b4dcbb0aeb5f4&SESSION_ID=691fbe67e787f1998c73188d","survey-multi-choice",4,285840,"0.0-4.0","GDpVsq8RW2TFubnHHznsrUevT8iaEp0TrEFN4CIR1xTOSw30fTXZcV9P46cWrtsxjh9BYE/rgJruYMqzZar2pw//YhcOc8cSmKVIZ4opPZkTKKov8nKpaZB+k6gZ9oLKBJHsnT4Dm5pc0JHj+/HlRpDnxC2t4lzJ+YbzV9CpB3sTXhXwHNXOeDJeMww27B3l9H0PPXH5UOH9qIaLyQwED9P7I31upPesMeQhOUtZQ6hm2S62J+FLg0/eXZEdHudY89M8IEz7NL7ltAjzyUXOqQyInw++yJuEZOHjSO37PS5P0nwmxkhdDFgqwwue8SZTQUQkpBVTmyU34SVZV8LgVg==","691f8ca61c6b4dcbb0aeb5f4","691fbe67e787f1998c73188d","index1","<span style='color:red'>Fail,<span style='color:red'>Fail,<span style='color:green'>Lift,<span style='color:green'>Lift,<span style='color:red'>Fail,<span style='color:red'>Fail,<span style='color:red'>Fail,<span style='color:red'>Fail,<span style='color:red'>Fail,<span style='color:green'>Lift,<span style='color:red'>Fail,<span style='color:green'>Lift","<span style='color:red'>Fail,<span style='color:red'>Fail,<span style='color:green'>Lift,<span style='color:green'>Lift,<span style='color:green'>Lift,<span style='color:green'>Lift,<span style='color:green'>Lift,<span style='color:red'>Fail,<span style='color:green'>Lift,<span style='color:green'>Lift,<span style='color:red'>Fail,<span style='color:green'>Lift","<span style='color:red'>Fail,<span style='color:green'>Lift,<span style='color:green'>Lift,<span style='color:red'>Fail,<span style='color:green'>Lift,<span style='color:green'>Lift","0,0,1,1,0,0,0,0,0,1,0,1","0,0,1,1,1,1,1,0,1,1,0,1","0,1,1,0,1,1",10,20,20,"","","","","{""Q0"":""It consists of multiple contests, each contest with three rounds."",""Q1"":""When a new round starts."",""Q2"":""The box weight always stays the same (equivalent to strength of 5)."",""Q3"":""Each will get $20."",""Q4"":""How close my guesses are to the actual outcome.""}","[0,1,2,3,4]",NA,NA,"",NA,NA,NA,NA,NA,NA,NA,NA,NA,NA,NA,NA,NA,NA,NA,NA,NA,NA,NA,NA,NA,NA,NA,NA,NA,NA,NA,NA,NA,NA,NA,NA,NA,NA,NA,NA,NA,NA,NA,"",NA,NA,NA,NA,NA,NA,NA,NA,2025-11-21 01:40:01
"11511.5","https://psyc-201.github.io/xiang2023/exp/index1.html?PROLIFIC_PID=REDACTED&STUDY_ID=691f8ca61c6b4dcbb0aeb5f4&SESSION_ID=691fbe67e787f1998c73188d","html-button-response",5,297353,"0.0-5.0-1.0","GDpVsq8RW2TFubnHHznsrUevT8iaEp0TrEFN4CIR1xTOSw30fTXZcV9P46cWrtsxjh9BYE/rgJruYMqzZar2pw//YhcOc8cSmKVIZ4opPZkTKKov8nKpaZB+k6gZ9oLKBJHsnT4Dm5pc0JHj+/HlRpDnxC2t4lzJ+YbzV9CpB3sTXhXwHNXOeDJeMww27B3l9H0PPXH5UOH9qIaLyQwED9P7I31upPesMeQhOUtZQ6hm2S62J+FLg0/eXZEdHudY89M8IEz7NL7ltAjzyUXOqQyInw++yJuEZOHjSO37PS5P0nwmxkhdDFgqwwue8SZTQUQkpBVTmyU34SVZV8LgVg==","691f8ca61c6b4dcbb0aeb5f4","691fbe67e787f1998c73188d","index1","<span style='color:red'>Fail,<span style='color:red'>Fail,<span style='color:green'>Lift,<span style='color:green'>Lift,<span style='color:red'>Fail,<span style='color:red'>Fail,<span style='color:red'>Fail,<span style='color:red'>Fail,<span style='color:red'>Fail,<span style='color:green'>Lift,<span style='color:red'>Fail,<span style='color:green'>Lift","<span style='color:red'>Fail,<span style='color:red'>Fail,<span style='color:green'>Lift,<span style='color:green'>Lift,<span style='color:green'>Lift,<span style='color:green'>Lift,<span style='color:green'>Lift,<span style='color:red'>Fail,<span style='color:green'>Lift,<span style='color:green'>Lift,<span style='color:red'>Fail,<span style='color:green'>Lift","<span style='color:red'>Fail,<span style='color:green'>Lift,<span style='color:green'>Lift,<span style='color:red'>Fail,<span style='color:green'>Lift,<span style='color:green'>Lift","0,0,1,1,0,0,0,0,0,1,0,1","0,0,1,1,1,1,1,0,1,1,0,1","0,1,1,0,1,1",10,20,20,"","","<p> Oops! You did not pass the comprehension check. <b>Please note that you have only 1 attempt(s) left.</b> </p>","","","",1,NA,"",NA,NA,NA,NA,NA,NA,NA,NA,NA,NA,NA,NA,NA,NA,NA,NA,NA,NA,NA,NA,NA,NA,NA,NA,NA,NA,NA,NA,NA,NA,NA,NA,NA,NA,NA,NA,NA,NA,NA,"",NA,NA,NA,NA,NA,NA,NA,NA,2025-11-21 01:40:01
"94733","https://psyc-201.github.io/xiang2023/exp/index1.html?PROLIFIC_PID=REDACTED&STUDY_ID=691f8ca61c6b4dcbb0aeb5f4&SESSION_ID=691fbe67e787f1998c73188d","instructions",6,392086,"0.0-6.0-0.0","GDpVsq8RW2TFubnHHznsrUevT8iaEp0TrEFN4CIR1xTOSw30fTXZcV9P46cWrtsxjh9BYE/rgJruYMqzZar2pw//YhcOc8cSmKVIZ4opPZkTKKov8nKpaZB+k6gZ9oLKBJHsnT4Dm5pc0JHj+/HlRpDnxC2t4lzJ+YbzV9CpB3sTXhXwHNXOeDJeMww27B3l9H0PPXH5UOH9qIaLyQwED9P7I31upPesMeQhOUtZQ6hm2S62J+FLg0/eXZEdHudY89M8IEz7NL7ltAjzyUXOqQyInw++yJuEZOHjSO37PS5P0nwmxkhdDFgqwwue8SZTQUQkpBVTmyU34SVZV8LgVg==","691f8ca61c6b4dcbb0aeb5f4","691fbe67e787f1998c73188d","index1","<span style='color:red'>Fail,<span style='color:red'>Fail,<span style='color:green'>Lift,<span style='color:green'>Lift,<span style='color:red'>Fail,<span style='color:red'>Fail,<span style='color:red'>Fail,<span style='color:red'>Fail,<span style='color:red'>Fail,<span style='color:green'>Lift,<span style='color:red'>Fail,<span style='color:green'>Lift","<span style='color:red'>Fail,<span style='color:red'>Fail,<span style='color:green'>Lift,<span style='color:green'>Lift,<span style='color:green'>Lift,<span style='color:green'>Lift,<span style='color:green'>Lift,<span style='color:red'>Fail,<span style='color:green'>Lift,<span style='color:green'>Lift,<span style='color:red'>Fail,<span style='color:green'>Lift","<span style='color:red'>Fail,<span style='color:green'>Lift,<span style='color:green'>Lift,<span style='color:red'>Fail,<span style='color:green'>Lift,<span style='color:green'>Lift","0,0,1,1,0,0,0,0,0,1,0,1","0,0,1,1,1,1,1,0,1,1,0,1","0,1,1,0,1,1",10,20,20,"","[{""page_index"":0,""viewing_time"":18198.399999976158},{""page_index"":1,""viewing_time"":14114.299999952316},{""page_index"":2,""viewing_time"":17368.300000071526},{""page_index"":3,""viewing_time"":17607.299999952316},{""page_index"":4,""viewing_time"":5838.5},{""page_index"":5,""viewing_time"":20062.800000071526},{""page_index"":6,""viewing_time"":1543}]","","","","",NA,NA,"",NA,NA,NA,NA,NA,NA,NA,NA,NA,NA,NA,NA,NA,NA,NA,NA,NA,NA,NA,NA,NA,NA,NA,NA,NA,NA,NA,NA,NA,NA,NA,NA,NA,NA,NA,NA,NA,NA,NA,"",NA,NA,NA,NA,NA,NA,NA,NA,2025-11-21 01:40:01
"null","https://psyc-201.github.io/xiang2023/exp/index1.html?PROLIFIC_PID=REDACTED&STUDY_ID=691f8ca61c6b4dcbb0aeb5f4&SESSION_ID=691fbe67e787f1998c73188d","html-keyboard-response",7,393088,"0.0-6.0-1.0","GDpVsq8RW2TFubnHHznsrUevT8iaEp0TrEFN4CIR1xTOSw30fTXZcV9P46cWrtsxjh9BYE/rgJruYMqzZar2pw//YhcOc8cSmKVIZ4opPZkTKKov8nKpaZB+k6gZ9oLKBJHsnT4Dm5pc0JHj+/HlRpDnxC2t4lzJ+YbzV9CpB3sTXhXwHNXOeDJeMww27B3l9H0PPXH5UOH9qIaLyQwED9P7I31upPesMeQhOUtZQ6hm2S62J+FLg0/eXZEdHudY89M8IEz7NL7ltAjzyUXOqQyInw++yJuEZOHjSO37PS5P0nwmxkhdDFgqwwue8SZTQUQkpBVTmyU34SVZV8LgVg==","691f8ca61c6b4dcbb0aeb5f4","691fbe67e787f1998c73188d","index1","<span style='color:red'>Fail,<span style='color:red'>Fail,<span style='color:green'>Lift,<span style='color:green'>Lift,<span style='color:red'>Fail,<span style='color:red'>Fail,<span style='color:red'>Fail,<span style='color:red'>Fail,<span style='color:red'>Fail,<span style='color:green'>Lift,<span style='color:red'>Fail,<span style='color:green'>Lift","<span style='color:red'>Fail,<span style='color:red'>Fail,<span style='color:green'>Lift,<span style='color:green'>Lift,<span style='color:green'>Lift,<span style='color:green'>Lift,<span style='color:green'>Lift,<span style='color:red'>Fail,<span style='color:green'>Lift,<span style='color:green'>Lift,<span style='color:red'>Fail,<span style='color:green'>Lift","<span style='color:red'>Fail,<span style='color:green'>Lift,<span style='color:green'>Lift,<span style='color:red'>Fail,<span style='color:green'>Lift,<span style='color:green'>Lift","0,0,1,1,0,0,0,0,0,1,0,1","0,0,1,1,1,1,1,0,1,1,0,1","0,1,1,0,1,1",10,20,20,"",""," ","null","","",NA,NA,"",NA,NA,NA,NA,NA,NA,NA,NA,NA,NA,NA,NA,NA,NA,NA,NA,NA,NA,NA,NA,NA,NA,NA,NA,NA,NA,NA,NA,NA,NA,NA,NA,NA,NA,NA,NA,NA,NA,NA,"",NA,NA,NA,NA,NA,NA,NA,NA,2025-11-21 01:40:01
"47263.699999928474","https://psyc-201.github.io/xiang2023/exp/index1.html?PROLIFIC_PID=REDACTED&STUDY_ID=691f8ca61c6b4dcbb0aeb5f4&SESSION_ID=691fbe67e787f1998c73188d","survey-multi-choice",8,440354,"0.0-7.0-0.0","GDpVsq8RW2TFubnHHznsrUevT8iaEp0TrEFN4CIR1xTOSw30fTXZcV9P46cWrtsxjh9BYE/rgJruYMqzZar2pw//YhcOc8cSmKVIZ4opPZkTKKov8nKpaZB+k6gZ9oLKBJHsnT4Dm5pc0JHj+/HlRpDnxC2t4lzJ+YbzV9CpB3sTXhXwHNXOeDJeMww27B3l9H0PPXH5UOH9qIaLyQwED9P7I31upPesMeQhOUtZQ6hm2S62J+FLg0/eXZEdHudY89M8IEz7NL7ltAjzyUXOqQyInw++yJuEZOHjSO37PS5P0nwmxkhdDFgqwwue8SZTQUQkpBVTmyU34SVZV8LgVg==","691f8ca61c6b4dcbb0aeb5f4","691fbe67e787f1998c73188d","index1","<span style='color:red'>Fail,<span style='color:red'>Fail,<span style='color:green'>Lift,<span style='color:green'>Lift,<span style='color:red'>Fail,<span style='color:red'>Fail,<span style='color:red'>Fail,<span style='color:red'>Fail,<span style='color:red'>Fail,<span style='color:green'>Lift,<span style='color:red'>Fail,<span style='color:green'>Lift","<span style='color:red'>Fail,<span style='color:red'>Fail,<span style='color:green'>Lift,<span style='color:green'>Lift,<span style='color:green'>Lift,<span style='color:green'>Lift,<span style='color:green'>Lift,<span style='color:red'>Fail,<span style='color:green'>Lift,<span style='color:green'>Lift,<span style='color:red'>Fail,<span style='color:green'>Lift","<span style='color:red'>Fail,<span style='color:green'>Lift,<span style='color:green'>Lift,<span style='color:red'>Fail,<span style='color:green'>Lift,<span style='color:green'>Lift","0,0,1,1,0,0,0,0,0,1,0,1","0,0,1,1,1,1,1,0,1,1,0,1","0,1,1,0,1,1",10,20,20,"","","","","{""Q0"":""It consists of multiple contests, each contest with three rounds."",""Q1"":""When a new contest begins."",""Q2"":""The box weight always stays the same (equivalent to strength of 5)."",""Q3"":""Each will get $20."",""Q4"":""How close my guesses are to the actual outcome.""}","[0,1,2,3,4]",NA,NA,"",NA,NA,NA,NA,NA,NA,NA,NA,NA,NA,NA,NA,NA,NA,NA,NA,NA,NA,NA,NA,NA,NA,NA,NA,NA,NA,NA,NA,NA,NA,NA,NA,NA,NA,NA,NA,NA,NA,NA,"",NA,NA,NA,NA,NA,NA,NA,NA,2025-11-21 01:40:01
"21800.5","https://psyc-201.github.io/xiang2023/exp/index1.html?PROLIFIC_PID=REDACTED&STUDY_ID=691f8ca61c6b4dcbb0aeb5f4&SESSION_ID=691fbe67e787f1998c73188d","instructions",9,462159,"0.0-305.0","GDpVsq8RW2TFubnHHznsrUevT8iaEp0TrEFN4CIR1xTOSw30fTXZcV9P46cWrtsxjh9BYE/rgJruYMqzZar2pw//YhcOc8cSmKVIZ4opPZkTKKov8nKpaZB+k6gZ9oLKBJHsnT4Dm5pc0JHj+/HlRpDnxC2t4lzJ+YbzV9CpB3sTXhXwHNXOeDJeMww27B3l9H0PPXH5UOH9qIaLyQwED9P7I31upPesMeQhOUtZQ6hm2S62J+FLg0/eXZEdHudY89M8IEz7NL7ltAjzyUXOqQyInw++yJuEZOHjSO37PS5P0nwmxkhdDFgqwwue8SZTQUQkpBVTmyU34SVZV8LgVg==","691f8ca61c6b4dcbb0aeb5f4","691fbe67e787f1998c73188d","index1","<span style='color:red'>Fail,<span style='color:red'>Fail,<span style='color:green'>Lift,<span style='color:green'>Lift,<span style='color:red'>Fail,<span style='color:red'>Fail,<span style='color:red'>Fail,<span style='color:red'>Fail,<span style='color:red'>Fail,<span style='color:green'>Lift,<span style='color:red'>Fail,<span style='color:green'>Lift","<span style='color:red'>Fail,<span style='color:red'>Fail,<span style='color:green'>Lift,<span style='color:green'>Lift,<span style='color:green'>Lift,<span style='color:green'>Lift,<span style='color:green'>Lift,<span style='color:red'>Fail,<span style='color:green'>Lift,<span style='color:green'>Lift,<span style='color:red'>Fail,<span style='color:green'>Lift","<span style='color:red'>Fail,<span style='color:green'>Lift,<span style='color:green'>Lift,<span style='color:red'>Fail,<span style='color:green'>Lift,<span style='color:green'>Lift","0,0,1,1,0,0,0,0,0,1,0,1","0,0,1,1,1,1,1,0,1,1,0,1","0,1,1,0,1,1",10,20,20,"","[{""page_index"":0,""viewing_time"":11989.300000071526},{""page_index"":1,""viewing_time"":9811}]","","","","",NA,NA,"",NA,NA,NA,NA,NA,NA,NA,NA,NA,NA,NA,NA,NA,NA,NA,NA,NA,NA,NA,NA,NA,NA,NA,NA,NA,NA,NA,NA,NA,NA,NA,NA,NA,NA,NA,NA,NA,NA,NA,"",NA,NA,NA,NA,NA,NA,NA,NA,2025-11-21 01:40:01
"null","https://psyc-201.github.io/xiang2023/exp/index1.html?PROLIFIC_PID=REDACTED&STUDY_ID=691f8ca61c6b4dcbb0aeb5f4&SESSION_ID=691fbe67e787f1998c73188d","html-keyboard-response",10,463170,"0.0-306.0","GDpVsq8RW2TFubnHHznsrUevT8iaEp0TrEFN4CIR1xTOSw30fTXZcV9P46cWrtsxjh9BYE/rgJruYMqzZar2pw//YhcOc8cSmKVIZ4opPZkTKKov8nKpaZB+k6gZ9oLKBJHsnT4Dm5pc0JHj+/HlRpDnxC2t4lzJ+YbzV9CpB3sTXhXwHNXOeDJeMww27B3l9H0PPXH5UOH9qIaLyQwED9P7I31upPesMeQhOUtZQ6hm2S62J+FLg0/eXZEdHudY89M8IEz7NL7ltAjzyUXOqQyInw++yJuEZOHjSO37PS5P0nwmxkhdDFgqwwue8SZTQUQkpBVTmyU34SVZV8LgVg==","691f8ca61c6b4dcbb0aeb5f4","691fbe67e787f1998c73188d","index1","<span style='color:red'>Fail,<span style='color:red'>Fail,<span style='color:green'>Lift,<span style='color:green'>Lift,<span style='color:red'>Fail,<span style='color:red'>Fail,<span style='color:red'>Fail,<span style='color:red'>Fail,<span style='color:red'>Fail,<span style='color:green'>Lift,<span style='color:red'>Fail,<span style='color:green'>Lift","<span style='color:red'>Fail,<span style='color:red'>Fail,<span style='color:green'>Lift,<span style='color:green'>Lift,<span style='color:green'>Lift,<span style='color:green'>Lift,<span style='color:green'>Lift,<span style='color:red'>Fail,<span style='color:green'>Lift,<span style='color:green'>Lift,<span style='color:red'>Fail,<span style='color:green'>Lift","<span style='color:red'>Fail,<span style='color:green'>Lift,<span style='color:green'>Lift,<span style='color:red'>Fail,<span style='color:green'>Lift,<span style='color:green'>Lift","0,0,1,1,0,0,0,0,0,1,0,1","0,0,1,1,1,1,1,0,1,1,0,1","0,1,1,0,1,1",10,20,20,"",""," ","null","","",NA,1,"",NA,NA,NA,NA,NA,NA,NA,NA,NA,NA,NA,NA,NA,NA,NA,NA,NA,NA,NA,NA,NA,NA,NA,NA,NA,NA,NA,NA,NA,NA,NA,NA,NA,NA,NA,NA,NA,NA,NA,"",NA,NA,NA,NA,NA,NA,NA,NA,2025-11-21 01:40:01
"null","https://psyc-201.github.io/xiang2023/exp/index1.html?PROLIFIC_PID=REDACTED&STUDY_ID=691f8ca61c6b4dcbb0aeb5f4&SESSION_ID=691fbe67e787f1998c73188d","html-keyboard-response",11,466177,"0.0-307.0","GDpVsq8RW2TFubnHHznsrUevT8iaEp0TrEFN4CIR1xTOSw30fTXZcV9P46cWrtsxjh9BYE/rgJruYMqzZar2pw//YhcOc8cSmKVIZ4opPZkTKKov8nKpaZB+k6gZ9oLKBJHsnT4Dm5pc0JHj+/HlRpDnxC2t4lzJ+YbzV9CpB3sTXhXwHNXOeDJeMww27B3l9H0PPXH5UOH9qIaLyQwED9P7I31upPesMeQhOUtZQ6hm2S62J+FLg0/eXZEdHudY89M8IEz7NL7ltAjzyUXOqQyInw++yJuEZOHjSO37PS5P0nwmxkhdDFgqwwue8SZTQUQkpBVTmyU34SVZV8LgVg==","691f8ca61c6b4dcbb0aeb5f4","691fbe67e787f1998c73188d","index1","<span style='color:red'>Fail,<span style='color:red'>Fail,<span style='color:green'>Lift,<span style='color:green'>Lift,<span style='color:red'>Fail,<span style='color:red'>Fail,<span style='color:red'>Fail,<span style='color:red'>Fail,<span style='color:red'>Fail,<span style='color:green'>Lift,<span style='color:red'>Fail,<span style='color:green'>Lift","<span style='color:red'>Fail,<span style='color:red'>Fail,<span style='color:green'>Lift,<span style='color:green'>Lift,<span style='color:green'>Lift,<span style='color:green'>Lift,<span style='color:green'>Lift,<span style='color:red'>Fail,<span style='color:green'>Lift,<span style='color:green'>Lift,<span style='color:red'>Fail,<span style='color:green'>Lift","<span style='color:red'>Fail,<span style='color:green'>Lift,<span style='color:green'>Lift,<span style='color:red'>Fail,<span style='color:green'>Lift,<span style='color:green'>Lift","0,0,1,1,0,0,0,0,0,1,0,1","0,0,1,1,1,1,1,0,1,1,0,1","0,1,1,0,1,1",10,20,20,"","","<p style='font-size:30px'><b> New Contest! </b></p>","null","","",NA,1,"",NA,NA,NA,NA,NA,NA,NA,NA,NA,NA,NA,NA,NA,NA,NA,NA,NA,NA,NA,NA,NA,NA,NA,NA,NA,NA,NA,NA,NA,NA,NA,NA,NA,NA,NA,NA,NA,NA,NA,"",NA,NA,NA,NA,NA,NA,NA,NA,2025-11-21 01:40:01
"29476.600000023842","https://psyc-201.github.io/xiang2023/exp/index1.html?PROLIFIC_PID=REDACTED&STUDY_ID=691f8ca61c6b4dcbb0aeb5f4&SESSION_ID=691fbe67e787f1998c73188d","survey-html-form",12,495656,"0.0-308.0","GDpVsq8RW2TFubnHHznsrUevT8iaEp0TrEFN4CIR1xTOSw30fTXZcV9P46cWrtsxjh9BYE/rgJruYMqzZar2pw//YhcOc8cSmKVIZ4opPZkTKKov8nKpaZB+k6gZ9oLKBJHsnT4Dm5pc0JHj+/HlRpDnxC2t4lzJ+YbzV9CpB3sTXhXwHNXOeDJeMww27B3l9H0PPXH5UOH9qIaLyQwED9P7I31upPesMeQhOUtZQ6hm2S62J+FLg0/eXZEdHudY89M8IEz7NL7ltAjzyUXOqQyInw++yJuEZOHjSO37PS5P0nwmxkhdDFgqwwue8SZTQUQkpBVTmyU34SVZV8LgVg==","691f8ca61c6b4dcbb0aeb5f4","691fbe67e787f1998c73188d","index1","<span style='color:red'>Fail,<span style='color:red'>Fail,<span style='color:green'>Lift,<span style='color:green'>Lift,<span style='color:red'>Fail,<span style='color:red'>Fail,<span style='color:red'>Fail,<span style='color:red'>Fail,<span style='color:red'>Fail,<span style='color:green'>Lift,<span style='color:red'>Fail,<span style='color:green'>Lift","<span style='color:red'>Fail,<span style='color:red'>Fail,<span style='color:green'>Lift,<span style='color:green'>Lift,<span style='color:green'>Lift,<span style='color:green'>Lift,<span style='color:green'>Lift,<span style='color:red'>Fail,<span style='color:green'>Lift,<span style='color:green'>Lift,<span style='color:red'>Fail,<span style='color:green'>Lift","<span style='color:red'>Fail,<span style='color:green'>Lift,<span style='color:green'>Lift,<span style='color:red'>Fail,<span style='color:green'>Lift,<span style='color:green'>Lift","0,0,1,1,0,0,0,0,0,1,0,1","0,0,1,1,1,1,1,0,1,1,0,1","0,1,1,0,1,1",10,20,20,"","","","","{""box1"":""4"",""box2"":""4""}","",NA,1,"round1_outcome",1,1,1,4,4,NA,NA,0,0,10,4,4,NA,NA,0,0,10,NA,NA,NA,NA,NA,NA,NA,NA,NA,NA,NA,NA,NA,NA,NA,NA,NA,NA,NA,NA,NA,NA,"",NA,NA,NA,NA,NA,NA,NA,NA,2025-11-21 01:40:01
"26162.700000047684","https://psyc-201.github.io/xiang2023/exp/index1.html?PROLIFIC_PID=REDACTED&STUDY_ID=691f8ca61c6b4dcbb0aeb5f4&SESSION_ID=691fbe67e787f1998c73188d","survey-html-form",13,521820,"0.0-309.0","GDpVsq8RW2TFubnHHznsrUevT8iaEp0TrEFN4CIR1xTOSw30fTXZcV9P46cWrtsxjh9BYE/rgJruYMqzZar2pw//YhcOc8cSmKVIZ4opPZkTKKov8nKpaZB+k6gZ9oLKBJHsnT4Dm5pc0JHj+/HlRpDnxC2t4lzJ+YbzV9CpB3sTXhXwHNXOeDJeMww27B3l9H0PPXH5UOH9qIaLyQwED9P7I31upPesMeQhOUtZQ6hm2S62J+FLg0/eXZEdHudY89M8IEz7NL7ltAjzyUXOqQyInw++yJuEZOHjSO37PS5P0nwmxkhdDFgqwwue8SZTQUQkpBVTmyU34SVZV8LgVg==","691f8ca61c6b4dcbb0aeb5f4","691fbe67e787f1998c73188d","index1","<span style='color:red'>Fail,<span style='color:red'>Fail,<span style='color:green'>Lift,<span style='color:green'>Lift,<span style='color:red'>Fail,<span style='color:red'>Fail,<span style='color:red'>Fail,<span style='color:red'>Fail,<span style='color:red'>Fail,<span style='color:green'>Lift,<span style='color:red'>Fail,<span style='color:green'>Lift","<span style='color:red'>Fail,<span style='color:red'>Fail,<span style='color:green'>Lift,<span style='color:green'>Lift,<span style='color:green'>Lift,<span style='color:green'>Lift,<span style='color:green'>Lift,<span style='color:red'>Fail,<span style='color:green'>Lift,<span style='color:green'>Lift,<span style='color:red'>Fail,<span style='color:green'>Lift","<span style='color:red'>Fail,<span style='color:green'>Lift,<span style='color:green'>Lift,<span style='color:red'>Fail,<span style='color:green'>Lift,<span style='color:green'>Lift","0,0,1,1,0,0,0,0,0,1,0,1","0,0,1,1,1,1,1,0,1,1,0,1","0,1,1,0,1,1",10,20,20,"","","","","{""box1"":""40"",""box2"":""60""}","",NA,1,"round2_ready",2,1,2,NA,NA,NA,NA,NA,NA,NA,NA,NA,NA,NA,NA,NA,NA,40,60,40,60,NA,NA,NA,NA,NA,NA,NA,NA,NA,NA,NA,NA,NA,NA,NA,NA,NA,NA,"",NA,NA,NA,NA,NA,NA,NA,NA,2025-11-21 01:40:01
"57471.799999952316","https://psyc-201.github.io/xiang2023/exp/index1.html?PROLIFIC_PID=REDACTED&STUDY_ID=691f8ca61c6b4dcbb0aeb5f4&SESSION_ID=691fbe67e787f1998c73188d","survey-html-form",14,579294,"0.0-310.0","GDpVsq8RW2TFubnHHznsrUevT8iaEp0TrEFN4CIR1xTOSw30fTXZcV9P46cWrtsxjh9BYE/rgJruYMqzZar2pw//YhcOc8cSmKVIZ4opPZkTKKov8nKpaZB+k6gZ9oLKBJHsnT4Dm5pc0JHj+/HlRpDnxC2t4lzJ+YbzV9CpB3sTXhXwHNXOeDJeMww27B3l9H0PPXH5UOH9qIaLyQwED9P7I31upPesMeQhOUtZQ6hm2S62J+FLg0/eXZEdHudY89M8IEz7NL7ltAjzyUXOqQyInw++yJuEZOHjSO37PS5P0nwmxkhdDFgqwwue8SZTQUQkpBVTmyU34SVZV8LgVg==","691f8ca61c6b4dcbb0aeb5f4","691fbe67e787f1998c73188d","index1","<span style='color:red'>Fail,<span style='color:red'>Fail,<span style='color:green'>Lift,<span style='color:green'>Lift,<span style='color:red'>Fail,<span style='color:red'>Fail,<span style='color:red'>Fail,<span style='color:red'>Fail,<span style='color:red'>Fail,<span style='color:green'>Lift,<span style='color:red'>Fail,<span style='color:green'>Lift","<span style='color:red'>Fail,<span style='color:red'>Fail,<span style='color:green'>Lift,<span style='color:green'>Lift,<span style='color:green'>Lift,<span style='color:green'>Lift,<span style='color:green'>Lift,<span style='color:red'>Fail,<span style='color:green'>Lift,<span style='color:green'>Lift,<span style='color:red'>Fail,<span style='color:green'>Lift","<span style='color:red'>Fail,<span style='color:green'>Lift,<span style='color:green'>Lift,<span style='color:red'>Fail,<span style='color:green'>Lift,<span style='color:green'>Lift","0,0,1,1,0,0,0,0,0,1,0,1","0,0,1,1,1,1,1,0,1,1,0,1","0,1,1,0,1,1",10,20,20,"","","","","{""box1"":""6"",""box2"":""4"",""box3"":""100""}","",NA,1,"round2_outcome",3,1,2,6,4,100,NA,1,0,20,NA,NA,NA,NA,NA,NA,NA,NA,NA,NA,NA,6,4,100,NA,1,0,20,NA,NA,NA,NA,NA,NA,NA,NA,NA,NA,NA,"",NA,NA,NA,NA,NA,NA,NA,NA,2025-11-21 01:40:01
"10679.200000047684","https://psyc-201.github.io/xiang2023/exp/index1.html?PROLIFIC_PID=REDACTED&STUDY_ID=691f8ca61c6b4dcbb0aeb5f4&SESSION_ID=691fbe67e787f1998c73188d","survey-html-form",15,589975,"0.0-311.0","GDpVsq8RW2TFubnHHznsrUevT8iaEp0TrEFN4CIR1xTOSw30fTXZcV9P46cWrtsxjh9BYE/rgJruYMqzZar2pw//YhcOc8cSmKVIZ4opPZkTKKov8nKpaZB+k6gZ9oLKBJHsnT4Dm5pc0JHj+/HlRpDnxC2t4lzJ+YbzV9CpB3sTXhXwHNXOeDJeMww27B3l9H0PPXH5UOH9qIaLyQwED9P7I31upPesMeQhOUtZQ6hm2S62J+FLg0/eXZEdHudY89M8IEz7NL7ltAjzyUXOqQyInw++yJuEZOHjSO37PS5P0nwmxkhdDFgqwwue8SZTQUQkpBVTmyU34SVZV8LgVg==","691f8ca61c6b4dcbb0aeb5f4","691fbe67e787f1998c73188d","index1","<span style='color:red'>Fail,<span style='color:red'>Fail,<span style='color:green'>Lift,<span style='color:green'>Lift,<span style='color:red'>Fail,<span style='color:red'>Fail,<span style='color:red'>Fail,<span style='color:red'>Fail,<span style='color:red'>Fail,<span style='color:green'>Lift,<span style='color:red'>Fail,<span style='color:green'>Lift","<span style='color:red'>Fail,<span style='color:red'>Fail,<span style='color:green'>Lift,<span style='color:green'>Lift,<span style='color:green'>Lift,<span style='color:green'>Lift,<span style='color:green'>Lift,<span style='color:red'>Fail,<span style='color:green'>Lift,<span style='color:green'>Lift,<span style='color:red'>Fail,<span style='color:green'>Lift","<span style='color:red'>Fail,<span style='color:green'>Lift,<span style='color:green'>Lift,<span style='color:red'>Fail,<span style='color:green'>Lift,<span style='color:green'>Lift","0,0,1,1,0,0,0,0,0,1,0,1","0,0,1,1,1,1,1,0,1,1,0,1","0,1,1,0,1,1",10,20,20,"","","","","{""box1"":""90""}","",NA,1,"round3_ready",4,1,3,NA,NA,NA,NA,NA,NA,NA,NA,NA,NA,NA,NA,NA,NA,90,90,NA,NA,NA,NA,NA,NA,NA,NA,NA,90,90,NA,NA,NA,NA,NA,NA,NA,NA,NA,"",NA,NA,NA,NA,NA,NA,NA,NA,2025-11-21 01:40:01
"19677.200000047684","https://psyc-201.github.io/xiang2023/exp/index1.html?PROLIFIC_PID=REDACTED&STUDY_ID=691f8ca61c6b4dcbb0aeb5f4&SESSION_ID=691fbe67e787f1998c73188d","survey-html-form",16,609653,"0.0-313.0-0.0","GDpVsq8RW2TFubnHHznsrUevT8iaEp0TrEFN4CIR1xTOSw30fTXZcV9P46cWrtsxjh9BYE/rgJruYMqzZar2pw//YhcOc8cSmKVIZ4opPZkTKKov8nKpaZB+k6gZ9oLKBJHsnT4Dm5pc0JHj+/HlRpDnxC2t4lzJ+YbzV9CpB3sTXhXwHNXOeDJeMww27B3l9H0PPXH5UOH9qIaLyQwED9P7I31upPesMeQhOUtZQ6hm2S62J+FLg0/eXZEdHudY89M8IEz7NL7ltAjzyUXOqQyInw++yJuEZOHjSO37PS5P0nwmxkhdDFgqwwue8SZTQUQkpBVTmyU34SVZV8LgVg==","691f8ca61c6b4dcbb0aeb5f4","691fbe67e787f1998c73188d","index1","<span style='color:red'>Fail,<span style='color:red'>Fail,<span style='color:green'>Lift,<span style='color:green'>Lift,<span style='color:red'>Fail,<span style='color:red'>Fail,<span style='color:red'>Fail,<span style='color:red'>Fail,<span style='color:red'>Fail,<span style='color:green'>Lift,<span style='color:red'>Fail,<span style='color:green'>Lift","<span style='color:red'>Fail,<span style='color:red'>Fail,<span style='color:green'>Lift,<span style='color:green'>Lift,<span style='color:green'>Lift,<span style='color:green'>Lift,<span style='color:green'>Lift,<span style='color:red'>Fail,<span style='color:green'>Lift,<span style='color:green'>Lift,<span style='color:red'>Fail,<span style='color:green'>Lift","<span style='color:red'>Fail,<span style='color:green'>Lift,<span style='color:green'>Lift,<span style='color:red'>Fail,<span style='color:green'>Lift,<span style='color:green'>Lift","0,0,1,1,0,0,0,0,0,1,0,1","0,0,1,1,1,1,1,0,1,1,0,1","0,1,1,0,1,1",10,20,20,"","","","","{""box1"":""6"",""box2"":""4"",""box3"":""999"",""box4"":""999""}","",NA,2,"round3_fail",5,1,3,6,4,NA,NA,0,0,20,NA,NA,NA,NA,NA,NA,NA,NA,NA,NA,NA,NA,NA,NA,NA,NA,NA,NA,NA,NA,1,1,6,4,0,0,20,NA,NA,"",NA,NA,NA,NA,NA,NA,NA,NA,2025-11-21 01:40:01
"null","https://psyc-201.github.io/xiang2023/exp/index1.html?PROLIFIC_PID=REDACTED&STUDY_ID=691f8ca61c6b4dcbb0aeb5f4&SESSION_ID=691fbe67e787f1998c73188d","html-keyboard-response",17,612658,"0.0-316.0","GDpVsq8RW2TFubnHHznsrUevT8iaEp0TrEFN4CIR1xTOSw30fTXZcV9P46cWrtsxjh9BYE/rgJruYMqzZar2pw//YhcOc8cSmKVIZ4opPZkTKKov8nKpaZB+k6gZ9oLKBJHsnT4Dm5pc0JHj+/HlRpDnxC2t4lzJ+YbzV9CpB3sTXhXwHNXOeDJeMww27B3l9H0PPXH5UOH9qIaLyQwED9P7I31upPesMeQhOUtZQ6hm2S62J+FLg0/eXZEdHudY89M8IEz7NL7ltAjzyUXOqQyInw++yJuEZOHjSO37PS5P0nwmxkhdDFgqwwue8SZTQUQkpBVTmyU34SVZV8LgVg==","691f8ca61c6b4dcbb0aeb5f4","691fbe67e787f1998c73188d","index1","<span style='color:red'>Fail,<span style='color:red'>Fail,<span style='color:green'>Lift,<span style='color:green'>Lift,<span style='color:red'>Fail,<span style='color:red'>Fail,<span style='color:red'>Fail,<span style='color:red'>Fail,<span style='color:red'>Fail,<span style='color:green'>Lift,<span style='color:red'>Fail,<span style='color:green'>Lift","<span style='color:red'>Fail,<span style='color:red'>Fail,<span style='color:green'>Lift,<span style='color:green'>Lift,<span style='color:green'>Lift,<span style='color:green'>Lift,<span style='color:green'>Lift,<span style='color:red'>Fail,<span style='color:green'>Lift,<span style='color:green'>Lift,<span style='color:red'>Fail,<span style='color:green'>Lift","<span style='color:red'>Fail,<span style='color:green'>Lift,<span style='color:green'>Lift,<span style='color:red'>Fail,<span style='color:green'>Lift,<span style='color:green'>Lift","0,0,1,1,0,0,0,0,0,1,0,1","0,0,1,1,1,1,1,0,1,1,0,1","0,1,1,0,1,1",10,20,20,"","","<p style='font-size:30px'><b> New Contest! </b></p>","null","","",NA,2,"",NA,NA,NA,NA,NA,NA,NA,NA,NA,NA,NA,NA,NA,NA,NA,NA,NA,NA,NA,NA,NA,NA,NA,NA,NA,NA,NA,NA,NA,NA,NA,NA,NA,NA,NA,NA,NA,NA,NA,"",NA,NA,NA,NA,NA,NA,NA,NA,2025-11-21 01:40:01
"23341.700000047684","https://psyc-201.github.io/xiang2023/exp/index1.html?PROLIFIC_PID=REDACTED&STUDY_ID=691f8ca61c6b4dcbb0aeb5f4&SESSION_ID=691fbe67e787f1998c73188d","survey-html-form",18,636001,"0.0-317.0","GDpVsq8RW2TFubnHHznsrUevT8iaEp0TrEFN4CIR1xTOSw30fTXZcV9P46cWrtsxjh9BYE/rgJruYMqzZar2pw//YhcOc8cSmKVIZ4opPZkTKKov8nKpaZB+k6gZ9oLKBJHsnT4Dm5pc0JHj+/HlRpDnxC2t4lzJ+YbzV9CpB3sTXhXwHNXOeDJeMww27B3l9H0PPXH5UOH9qIaLyQwED9P7I31upPesMeQhOUtZQ6hm2S62J+FLg0/eXZEdHudY89M8IEz7NL7ltAjzyUXOqQyInw++yJuEZOHjSO37PS5P0nwmxkhdDFgqwwue8SZTQUQkpBVTmyU34SVZV8LgVg==","691f8ca61c6b4dcbb0aeb5f4","691fbe67e787f1998c73188d","index1","<span style='color:red'>Fail,<span style='color:red'>Fail,<span style='color:green'>Lift,<span style='color:green'>Lift,<span style='color:red'>Fail,<span style='color:red'>Fail,<span style='color:red'>Fail,<span style='color:red'>Fail,<span style='color:red'>Fail,<span style='color:green'>Lift,<span style='color:red'>Fail,<span style='color:green'>Lift","<span style='color:red'>Fail,<span style='color:red'>Fail,<span style='color:green'>Lift,<span style='color:green'>Lift,<span style='color:green'>Lift,<span style='color:green'>Lift,<span style='color:green'>Lift,<span style='color:red'>Fail,<span style='color:green'>Lift,<span style='color:green'>Lift,<span style='color:red'>Fail,<span style='color:green'>Lift","<span style='color:red'>Fail,<span style='color:green'>Lift,<span style='color:green'>Lift,<span style='color:red'>Fail,<span style='color:green'>Lift,<span style='color:green'>Lift","0,0,1,1,0,0,0,0,0,1,0,1","0,0,1,1,1,1,1,0,1,1,0,1","0,1,1,0,1,1",10,20,20,"","","","","{""box1"":""6"",""box2"":""6""}","",NA,2,"round1_outcome",1,2,1,6,6,NA,NA,0,0,10,6,6,NA,NA,0,0,10,NA,NA,NA,NA,NA,NA,NA,NA,NA,NA,NA,NA,NA,NA,NA,NA,NA,NA,NA,NA,NA,NA,"",NA,NA,NA,NA,NA,NA,NA,NA,2025-11-21 01:40:01
"12849.5","https://psyc-201.github.io/xiang2023/exp/index1.html?PROLIFIC_PID=REDACTED&STUDY_ID=691f8ca61c6b4dcbb0aeb5f4&SESSION_ID=691fbe67e787f1998c73188d","survey-html-form",19,648852,"0.0-318.0","GDpVsq8RW2TFubnHHznsrUevT8iaEp0TrEFN4CIR1xTOSw30fTXZcV9P46cWrtsxjh9BYE/rgJruYMqzZar2pw//YhcOc8cSmKVIZ4opPZkTKKov8nKpaZB+k6gZ9oLKBJHsnT4Dm5pc0JHj+/HlRpDnxC2t4lzJ+YbzV9CpB3sTXhXwHNXOeDJeMww27B3l9H0PPXH5UOH9qIaLyQwED9P7I31upPesMeQhOUtZQ6hm2S62J+FLg0/eXZEdHudY89M8IEz7NL7ltAjzyUXOqQyInw++yJuEZOHjSO37PS5P0nwmxkhdDFgqwwue8SZTQUQkpBVTmyU34SVZV8LgVg==","691f8ca61c6b4dcbb0aeb5f4","691fbe67e787f1998c73188d","index1","<span style='color:red'>Fail,<span style='color:red'>Fail,<span style='color:green'>Lift,<span style='color:green'>Lift,<span style='color:red'>Fail,<span style='color:red'>Fail,<span style='color:red'>Fail,<span style='color:red'>Fail,<span style='color:red'>Fail,<span style='color:green'>Lift,<span style='color:red'>Fail,<span style='color:green'>Lift","<span style='color:red'>Fail,<span style='color:red'>Fail,<span style='color:green'>Lift,<span style='color:green'>Lift,<span style='color:green'>Lift,<span style='color:green'>Lift,<span style='color:green'>Lift,<span style='color:red'>Fail,<span style='color:green'>Lift,<span style='color:green'>Lift,<span style='color:red'>Fail,<span style='color:green'>Lift","<span style='color:red'>Fail,<span style='color:green'>Lift,<span style='color:green'>Lift,<span style='color:red'>Fail,<span style='color:green'>Lift,<span style='color:green'>Lift","0,0,1,1,0,0,0,0,0,1,0,1","0,0,1,1,1,1,1,0,1,1,0,1","0,1,1,0,1,1",10,20,20,"","","","","{""box1"":""50"",""box2"":""50""}","",NA,2,"round2_ready",2,2,2,NA,NA,NA,NA,NA,NA,NA,NA,NA,NA,NA,NA,NA,NA,50,50,50,50,NA,NA,NA,NA,NA,NA,NA,NA,NA,NA,NA,NA,NA,NA,NA,NA,NA,NA,"",NA,NA,NA,NA,NA,NA,NA,NA,2025-11-21 01:40:01
"25386.299999952316","https://psyc-201.github.io/xiang2023/exp/index1.html?PROLIFIC_PID=REDACTED&STUDY_ID=691f8ca61c6b4dcbb0aeb5f4&SESSION_ID=691fbe67e787f1998c73188d","survey-html-form",20,674240,"0.0-319.0","GDpVsq8RW2TFubnHHznsrUevT8iaEp0TrEFN4CIR1xTOSw30fTXZcV9P46cWrtsxjh9BYE/rgJruYMqzZar2pw//YhcOc8cSmKVIZ4opPZkTKKov8nKpaZB+k6gZ9oLKBJHsnT4Dm5pc0JHj+/HlRpDnxC2t4lzJ+YbzV9CpB3sTXhXwHNXOeDJeMww27B3l9H0PPXH5UOH9qIaLyQwED9P7I31upPesMeQhOUtZQ6hm2S62J+FLg0/eXZEdHudY89M8IEz7NL7ltAjzyUXOqQyInw++yJuEZOHjSO37PS5P0nwmxkhdDFgqwwue8SZTQUQkpBVTmyU34SVZV8LgVg==","691f8ca61c6b4dcbb0aeb5f4","691fbe67e787f1998c73188d","index1","<span style='color:red'>Fail,<span style='color:red'>Fail,<span style='color:green'>Lift,<span style='color:green'>Lift,<span style='color:red'>Fail,<span style='color:red'>Fail,<span style='color:red'>Fail,<span style='color:red'>Fail,<span style='color:red'>Fail,<span style='color:green'>Lift,<span style='color:red'>Fail,<span style='color:green'>Lift","<span style='color:red'>Fail,<span style='color:red'>Fail,<span style='color:green'>Lift,<span style='color:green'>Lift,<span style='color:green'>Lift,<span style='color:green'>Lift,<span style='color:green'>Lift,<span style='color:red'>Fail,<span style='color:green'>Lift,<span style='color:green'>Lift,<span style='color:red'>Fail,<span style='color:green'>Lift","<span style='color:red'>Fail,<span style='color:green'>Lift,<span style='color:green'>Lift,<span style='color:red'>Fail,<span style='color:green'>Lift,<span style='color:green'>Lift","0,0,1,1,0,0,0,0,0,1,0,1","0,0,1,1,1,1,1,0,1,1,0,1","0,1,1,0,1,1",10,20,20,"","","","","{""box1"":""8"",""box2"":""8"",""box3"":""100"",""box4"":""100""}","",NA,2,"round2_outcome",3,2,2,8,8,100,100,1,1,20,NA,NA,NA,NA,NA,NA,NA,NA,NA,NA,NA,8,8,100,100,1,1,20,NA,NA,NA,NA,NA,NA,NA,NA,NA,NA,NA,"",NA,NA,NA,NA,NA,NA,NA,NA,2025-11-21 01:40:01
"6931.799999952316","https://psyc-201.github.io/xiang2023/exp/index1.html?PROLIFIC_PID=REDACTED&STUDY_ID=691f8ca61c6b4dcbb0aeb5f4&SESSION_ID=691fbe67e787f1998c73188d","survey-html-form",21,681173,"0.0-320.0","GDpVsq8RW2TFubnHHznsrUevT8iaEp0TrEFN4CIR1xTOSw30fTXZcV9P46cWrtsxjh9BYE/rgJruYMqzZar2pw//YhcOc8cSmKVIZ4opPZkTKKov8nKpaZB+k6gZ9oLKBJHsnT4Dm5pc0JHj+/HlRpDnxC2t4lzJ+YbzV9CpB3sTXhXwHNXOeDJeMww27B3l9H0PPXH5UOH9qIaLyQwED9P7I31upPesMeQhOUtZQ6hm2S62J+FLg0/eXZEdHudY89M8IEz7NL7ltAjzyUXOqQyInw++yJuEZOHjSO37PS5P0nwmxkhdDFgqwwue8SZTQUQkpBVTmyU34SVZV8LgVg==","691f8ca61c6b4dcbb0aeb5f4","691fbe67e787f1998c73188d","index1","<span style='color:red'>Fail,<span style='color:red'>Fail,<span style='color:green'>Lift,<span style='color:green'>Lift,<span style='color:red'>Fail,<span style='color:red'>Fail,<span style='color:red'>Fail,<span style='color:red'>Fail,<span style='color:red'>Fail,<span style='color:green'>Lift,<span style='color:red'>Fail,<span style='color:green'>Lift","<span style='color:red'>Fail,<span style='color:red'>Fail,<span style='color:green'>Lift,<span style='color:green'>Lift,<span style='color:green'>Lift,<span style='color:green'>Lift,<span style='color:green'>Lift,<span style='color:red'>Fail,<span style='color:green'>Lift,<span style='color:green'>Lift,<span style='color:red'>Fail,<span style='color:green'>Lift","<span style='color:red'>Fail,<span style='color:green'>Lift,<span style='color:green'>Lift,<span style='color:red'>Fail,<span style='color:green'>Lift,<span style='color:green'>Lift","0,0,1,1,0,0,0,0,0,1,0,1","0,0,1,1,1,1,1,0,1,1,0,1","0,1,1,0,1,1",10,20,20,"","","","","{""box1"":""100""}","",NA,2,"round3_ready",4,2,3,NA,NA,NA,NA,NA,NA,NA,NA,NA,NA,NA,NA,NA,NA,100,100,NA,NA,NA,NA,NA,NA,NA,NA,NA,100,100,NA,NA,NA,NA,NA,NA,NA,NA,NA,"",NA,NA,NA,NA,NA,NA,NA,NA,2025-11-21 01:40:01
"16583.900000095367","https://psyc-201.github.io/xiang2023/exp/index1.html?PROLIFIC_PID=REDACTED&STUDY_ID=691f8ca61c6b4dcbb0aeb5f4&SESSION_ID=691fbe67e787f1998c73188d","survey-html-form",22,697758,"0.0-321.0-0.0","GDpVsq8RW2TFubnHHznsrUevT8iaEp0TrEFN4CIR1xTOSw30fTXZcV9P46cWrtsxjh9BYE/rgJruYMqzZar2pw//YhcOc8cSmKVIZ4opPZkTKKov8nKpaZB+k6gZ9oLKBJHsnT4Dm5pc0JHj+/HlRpDnxC2t4lzJ+YbzV9CpB3sTXhXwHNXOeDJeMww27B3l9H0PPXH5UOH9qIaLyQwED9P7I31upPesMeQhOUtZQ6hm2S62J+FLg0/eXZEdHudY89M8IEz7NL7ltAjzyUXOqQyInw++yJuEZOHjSO37PS5P0nwmxkhdDFgqwwue8SZTQUQkpBVTmyU34SVZV8LgVg==","691f8ca61c6b4dcbb0aeb5f4","691fbe67e787f1998c73188d","index1","<span style='color:red'>Fail,<span style='color:red'>Fail,<span style='color:green'>Lift,<span style='color:green'>Lift,<span style='color:red'>Fail,<span style='color:red'>Fail,<span style='color:red'>Fail,<span style='color:red'>Fail,<span style='color:red'>Fail,<span style='color:green'>Lift,<span style='color:red'>Fail,<span style='color:green'>Lift","<span style='color:red'>Fail,<span style='color:red'>Fail,<span style='color:green'>Lift,<span style='color:green'>Lift,<span style='color:green'>Lift,<span style='color:green'>Lift,<span style='color:green'>Lift,<span style='color:red'>Fail,<span style='color:green'>Lift,<span style='color:green'>Lift,<span style='color:red'>Fail,<span style='color:green'>Lift","<span style='color:red'>Fail,<span style='color:green'>Lift,<span style='color:green'>Lift,<span style='color:red'>Fail,<span style='color:green'>Lift,<span style='color:green'>Lift","0,0,1,1,0,0,0,0,0,1,0,1","0,0,1,1,1,1,1,0,1,1,0,1","0,1,1,0,1,1",10,20,20,"","","","","{""box1"":""8"",""box2"":""8"",""box3"":""100"",""box4"":""100""}","",NA,3,"round3_lift",5,2,3,8,8,100,100,1,1,20,NA,NA,NA,NA,NA,NA,NA,NA,NA,NA,NA,NA,NA,NA,NA,NA,NA,NA,NA,NA,NA,NA,8,8,1,1,20,100,100,"",NA,NA,NA,NA,NA,NA,NA,NA,2025-11-21 01:40:01
"null","https://psyc-201.github.io/xiang2023/exp/index1.html?PROLIFIC_PID=REDACTED&STUDY_ID=691f8ca61c6b4dcbb0aeb5f4&SESSION_ID=691fbe67e787f1998c73188d","html-keyboard-response",23,700768,"0.0-325.0","GDpVsq8RW2TFubnHHznsrUevT8iaEp0TrEFN4CIR1xTOSw30fTXZcV9P46cWrtsxjh9BYE/rgJruYMqzZar2pw//YhcOc8cSmKVIZ4opPZkTKKov8nKpaZB+k6gZ9oLKBJHsnT4Dm5pc0JHj+/HlRpDnxC2t4lzJ+YbzV9CpB3sTXhXwHNXOeDJeMww27B3l9H0PPXH5UOH9qIaLyQwED9P7I31upPesMeQhOUtZQ6hm2S62J+FLg0/eXZEdHudY89M8IEz7NL7ltAjzyUXOqQyInw++yJuEZOHjSO37PS5P0nwmxkhdDFgqwwue8SZTQUQkpBVTmyU34SVZV8LgVg==","691f8ca61c6b4dcbb0aeb5f4","691fbe67e787f1998c73188d","index1","<span style='color:red'>Fail,<span style='color:red'>Fail,<span style='color:green'>Lift,<span style='color:green'>Lift,<span style='color:red'>Fail,<span style='color:red'>Fail,<span style='color:red'>Fail,<span style='color:red'>Fail,<span style='color:red'>Fail,<span style='color:green'>Lift,<span style='color:red'>Fail,<span style='color:green'>Lift","<span style='color:red'>Fail,<span style='color:red'>Fail,<span style='color:green'>Lift,<span style='color:green'>Lift,<span style='color:green'>Lift,<span style='color:green'>Lift,<span style='color:green'>Lift,<span style='color:red'>Fail,<span style='color:green'>Lift,<span style='color:green'>Lift,<span style='color:red'>Fail,<span style='color:green'>Lift","<span style='color:red'>Fail,<span style='color:green'>Lift,<span style='color:green'>Lift,<span style='color:red'>Fail,<span style='color:green'>Lift,<span style='color:green'>Lift","0,0,1,1,0,0,0,0,0,1,0,1","0,0,1,1,1,1,1,0,1,1,0,1","0,1,1,0,1,1",10,20,20,"","","<p style='font-size:30px'><b> New Contest! </b></p>","null","","",NA,3,"",NA,NA,NA,NA,NA,NA,NA,NA,NA,NA,NA,NA,NA,NA,NA,NA,NA,NA,NA,NA,NA,NA,NA,NA,NA,NA,NA,NA,NA,NA,NA,NA,NA,NA,NA,NA,NA,NA,NA,"",NA,NA,NA,NA,NA,NA,NA,NA,2025-11-21 01:40:01
"15668.100000023842","https://psyc-201.github.io/xiang2023/exp/index1.html?PROLIFIC_PID=REDACTED&STUDY_ID=691f8ca61c6b4dcbb0aeb5f4&SESSION_ID=691fbe67e787f1998c73188d","survey-html-form",24,716438,"0.0-326.0","GDpVsq8RW2TFubnHHznsrUevT8iaEp0TrEFN4CIR1xTOSw30fTXZcV9P46cWrtsxjh9BYE/rgJruYMqzZar2pw//YhcOc8cSmKVIZ4opPZkTKKov8nKpaZB+k6gZ9oLKBJHsnT4Dm5pc0JHj+/HlRpDnxC2t4lzJ+YbzV9CpB3sTXhXwHNXOeDJeMww27B3l9H0PPXH5UOH9qIaLyQwED9P7I31upPesMeQhOUtZQ6hm2S62J+FLg0/eXZEdHudY89M8IEz7NL7ltAjzyUXOqQyInw++yJuEZOHjSO37PS5P0nwmxkhdDFgqwwue8SZTQUQkpBVTmyU34SVZV8LgVg==","691f8ca61c6b4dcbb0aeb5f4","691fbe67e787f1998c73188d","index1","<span style='color:red'>Fail,<span style='color:red'>Fail,<span style='color:green'>Lift,<span style='color:green'>Lift,<span style='color:red'>Fail,<span style='color:red'>Fail,<span style='color:red'>Fail,<span style='color:red'>Fail,<span style='color:red'>Fail,<span style='color:green'>Lift,<span style='color:red'>Fail,<span style='color:green'>Lift","<span style='color:red'>Fail,<span style='color:red'>Fail,<span style='color:green'>Lift,<span style='color:green'>Lift,<span style='color:green'>Lift,<span style='color:green'>Lift,<span style='color:green'>Lift,<span style='color:red'>Fail,<span style='color:green'>Lift,<span style='color:green'>Lift,<span style='color:red'>Fail,<span style='color:green'>Lift","<span style='color:red'>Fail,<span style='color:green'>Lift,<span style='color:green'>Lift,<span style='color:red'>Fail,<span style='color:green'>Lift,<span style='color:green'>Lift","0,0,1,1,0,0,0,0,0,1,0,1","0,0,1,1,1,1,1,0,1,1,0,1","0,1,1,0,1,1",10,20,20,"","","","","{""box1"":""7"",""box2"":""7""}","",NA,3,"round1_outcome",1,3,1,7,7,NA,NA,0,0,10,7,7,NA,NA,0,0,10,NA,NA,NA,NA,NA,NA,NA,NA,NA,NA,NA,NA,NA,NA,NA,NA,NA,NA,NA,NA,NA,NA,"",NA,NA,NA,NA,NA,NA,NA,NA,2025-11-21 01:40:01
"15350.800000071526","https://psyc-201.github.io/xiang2023/exp/index1.html?PROLIFIC_PID=REDACTED&STUDY_ID=691f8ca61c6b4dcbb0aeb5f4&SESSION_ID=691fbe67e787f1998c73188d","survey-html-form",25,731790,"0.0-327.0","GDpVsq8RW2TFubnHHznsrUevT8iaEp0TrEFN4CIR1xTOSw30fTXZcV9P46cWrtsxjh9BYE/rgJruYMqzZar2pw//YhcOc8cSmKVIZ4opPZkTKKov8nKpaZB+k6gZ9oLKBJHsnT4Dm5pc0JHj+/HlRpDnxC2t4lzJ+YbzV9CpB3sTXhXwHNXOeDJeMww27B3l9H0PPXH5UOH9qIaLyQwED9P7I31upPesMeQhOUtZQ6hm2S62J+FLg0/eXZEdHudY89M8IEz7NL7ltAjzyUXOqQyInw++yJuEZOHjSO37PS5P0nwmxkhdDFgqwwue8SZTQUQkpBVTmyU34SVZV8LgVg==","691f8ca61c6b4dcbb0aeb5f4","691fbe67e787f1998c73188d","index1","<span style='color:red'>Fail,<span style='color:red'>Fail,<span style='color:green'>Lift,<span style='color:green'>Lift,<span style='color:red'>Fail,<span style='color:red'>Fail,<span style='color:red'>Fail,<span style='color:red'>Fail,<span style='color:red'>Fail,<span style='color:green'>Lift,<span style='color:red'>Fail,<span style='color:green'>Lift","<span style='color:red'>Fail,<span style='color:red'>Fail,<span style='color:green'>Lift,<span style='color:green'>Lift,<span style='color:green'>Lift,<span style='color:green'>Lift,<span style='color:green'>Lift,<span style='color:red'>Fail,<span style='color:green'>Lift,<span style='color:green'>Lift,<span style='color:red'>Fail,<span style='color:green'>Lift","<span style='color:red'>Fail,<span style='color:green'>Lift,<span style='color:green'>Lift,<span style='color:red'>Fail,<span style='color:green'>Lift,<span style='color:green'>Lift","0,0,1,1,0,0,0,0,0,1,0,1","0,0,1,1,1,1,1,0,1,1,0,1","0,1,1,0,1,1",10,20,20,"","","","","{""box1"":""80"",""box2"":""80""}","",NA,3,"round2_ready",2,3,2,NA,NA,NA,NA,NA,NA,NA,NA,NA,NA,NA,NA,NA,NA,80,80,80,80,NA,NA,NA,NA,NA,NA,NA,NA,NA,NA,NA,NA,NA,NA,NA,NA,NA,NA,"",NA,NA,NA,NA,NA,NA,NA,NA,2025-11-21 01:40:01
"14153.299999952316","https://psyc-201.github.io/xiang2023/exp/index1.html?PROLIFIC_PID=REDACTED&STUDY_ID=691f8ca61c6b4dcbb0aeb5f4&SESSION_ID=691fbe67e787f1998c73188d","survey-html-form",26,745945,"0.0-328.0","GDpVsq8RW2TFubnHHznsrUevT8iaEp0TrEFN4CIR1xTOSw30fTXZcV9P46cWrtsxjh9BYE/rgJruYMqzZar2pw//YhcOc8cSmKVIZ4opPZkTKKov8nKpaZB+k6gZ9oLKBJHsnT4Dm5pc0JHj+/HlRpDnxC2t4lzJ+YbzV9CpB3sTXhXwHNXOeDJeMww27B3l9H0PPXH5UOH9qIaLyQwED9P7I31upPesMeQhOUtZQ6hm2S62J+FLg0/eXZEdHudY89M8IEz7NL7ltAjzyUXOqQyInw++yJuEZOHjSO37PS5P0nwmxkhdDFgqwwue8SZTQUQkpBVTmyU34SVZV8LgVg==","691f8ca61c6b4dcbb0aeb5f4","691fbe67e787f1998c73188d","index1","<span style='color:red'>Fail,<span style='color:red'>Fail,<span style='color:green'>Lift,<span style='color:green'>Lift,<span style='color:red'>Fail,<span style='color:red'>Fail,<span style='color:red'>Fail,<span style='color:red'>Fail,<span style='color:red'>Fail,<span style='color:green'>Lift,<span style='color:red'>Fail,<span style='color:green'>Lift","<span style='color:red'>Fail,<span style='color:red'>Fail,<span style='color:green'>Lift,<span style='color:green'>Lift,<span style='color:green'>Lift,<span style='color:green'>Lift,<span style='color:green'>Lift,<span style='color:red'>Fail,<span style='color:green'>Lift,<span style='color:green'>Lift,<span style='color:red'>Fail,<span style='color:green'>Lift","<span style='color:red'>Fail,<span style='color:green'>Lift,<span style='color:green'>Lift,<span style='color:red'>Fail,<span style='color:green'>Lift,<span style='color:green'>Lift","0,0,1,1,0,0,0,0,0,1,0,1","0,0,1,1,1,1,1,0,1,1,0,1","0,1,1,0,1,1",10,20,20,"","","","","{""box1"":""3"",""box2"":""3""}","",NA,3,"round2_outcome",3,3,2,3,3,NA,NA,0,0,20,NA,NA,NA,NA,NA,NA,NA,NA,NA,NA,NA,3,3,NA,NA,0,0,20,NA,NA,NA,NA,NA,NA,NA,NA,NA,NA,NA,"",NA,NA,NA,NA,NA,NA,NA,NA,2025-11-21 01:40:01
"7602.799999952316","https://psyc-201.github.io/xiang2023/exp/index1.html?PROLIFIC_PID=REDACTED&STUDY_ID=691f8ca61c6b4dcbb0aeb5f4&SESSION_ID=691fbe67e787f1998c73188d","survey-html-form",27,753549,"0.0-329.0","GDpVsq8RW2TFubnHHznsrUevT8iaEp0TrEFN4CIR1xTOSw30fTXZcV9P46cWrtsxjh9BYE/rgJruYMqzZar2pw//YhcOc8cSmKVIZ4opPZkTKKov8nKpaZB+k6gZ9oLKBJHsnT4Dm5pc0JHj+/HlRpDnxC2t4lzJ+YbzV9CpB3sTXhXwHNXOeDJeMww27B3l9H0PPXH5UOH9qIaLyQwED9P7I31upPesMeQhOUtZQ6hm2S62J+FLg0/eXZEdHudY89M8IEz7NL7ltAjzyUXOqQyInw++yJuEZOHjSO37PS5P0nwmxkhdDFgqwwue8SZTQUQkpBVTmyU34SVZV8LgVg==","691f8ca61c6b4dcbb0aeb5f4","691fbe67e787f1998c73188d","index1","<span style='color:red'>Fail,<span style='color:red'>Fail,<span style='color:green'>Lift,<span style='color:green'>Lift,<span style='color:red'>Fail,<span style='color:red'>Fail,<span style='color:red'>Fail,<span style='color:red'>Fail,<span style='color:red'>Fail,<span style='color:green'>Lift,<span style='color:red'>Fail,<span style='color:green'>Lift","<span style='color:red'>Fail,<span style='color:red'>Fail,<span style='color:green'>Lift,<span style='color:green'>Lift,<span style='color:green'>Lift,<span style='color:green'>Lift,<span style='color:green'>Lift,<span style='color:red'>Fail,<span style='color:green'>Lift,<span style='color:green'>Lift,<span style='color:red'>Fail,<span style='color:green'>Lift","<span style='color:red'>Fail,<span style='color:green'>Lift,<span style='color:green'>Lift,<span style='color:red'>Fail,<span style='color:green'>Lift,<span style='color:green'>Lift","0,0,1,1,0,0,0,0,0,1,0,1","0,0,1,1,1,1,1,0,1,1,0,1","0,1,1,0,1,1",10,20,20,"","","","","{""box1"":""70""}","",NA,3,"round3_ready",4,3,3,NA,NA,NA,NA,NA,NA,NA,NA,NA,NA,NA,NA,NA,NA,70,70,NA,NA,NA,NA,NA,NA,NA,NA,NA,70,70,NA,NA,NA,NA,NA,NA,NA,NA,NA,"",NA,NA,NA,NA,NA,NA,NA,NA,2025-11-21 01:40:01
"15447.5","https://psyc-201.github.io/xiang2023/exp/index1.html?PROLIFIC_PID=REDACTED&STUDY_ID=691f8ca61c6b4dcbb0aeb5f4&SESSION_ID=691fbe67e787f1998c73188d","survey-html-form",28,768998,"0.0-331.0-0.0","GDpVsq8RW2TFubnHHznsrUevT8iaEp0TrEFN4CIR1xTOSw30fTXZcV9P46cWrtsxjh9BYE/rgJruYMqzZar2pw//YhcOc8cSmKVIZ4opPZkTKKov8nKpaZB+k6gZ9oLKBJHsnT4Dm5pc0JHj+/HlRpDnxC2t4lzJ+YbzV9CpB3sTXhXwHNXOeDJeMww27B3l9H0PPXH5UOH9qIaLyQwED9P7I31upPesMeQhOUtZQ6hm2S62J+FLg0/eXZEdHudY89M8IEz7NL7ltAjzyUXOqQyInw++yJuEZOHjSO37PS5P0nwmxkhdDFgqwwue8SZTQUQkpBVTmyU34SVZV8LgVg==","691f8ca61c6b4dcbb0aeb5f4","691fbe67e787f1998c73188d","index1","<span style='color:red'>Fail,<span style='color:red'>Fail,<span style='color:green'>Lift,<span style='color:green'>Lift,<span style='color:red'>Fail,<span style='color:red'>Fail,<span style='color:red'>Fail,<span style='color:red'>Fail,<span style='color:red'>Fail,<span style='color:green'>Lift,<span style='color:red'>Fail,<span style='color:green'>Lift","<span style='color:red'>Fail,<span style='color:red'>Fail,<span style='color:green'>Lift,<span style='color:green'>Lift,<span style='color:green'>Lift,<span style='color:green'>Lift,<span style='color:green'>Lift,<span style='color:red'>Fail,<span style='color:green'>Lift,<span style='color:green'>Lift,<span style='color:red'>Fail,<span style='color:green'>Lift","<span style='color:red'>Fail,<span style='color:green'>Lift,<span style='color:green'>Lift,<span style='color:red'>Fail,<span style='color:green'>Lift,<span style='color:green'>Lift","0,0,1,1,0,0,0,0,0,1,0,1","0,0,1,1,1,1,1,0,1,1,0,1","0,1,1,0,1,1",10,20,20,"","","","","{""box1"":""2"",""box2"":""2"",""box3"":""999"",""box4"":""999""}","",NA,4,"round3_fail",5,3,3,2,2,NA,NA,0,0,20,NA,NA,NA,NA,NA,NA,NA,NA,NA,NA,NA,NA,NA,NA,NA,NA,NA,NA,NA,NA,1,1,2,2,0,0,20,NA,NA,"",NA,NA,NA,NA,NA,NA,NA,NA,2025-11-21 01:40:01
"null","https://psyc-201.github.io/xiang2023/exp/index1.html?PROLIFIC_PID=REDACTED&STUDY_ID=691f8ca61c6b4dcbb0aeb5f4&SESSION_ID=691fbe67e787f1998c73188d","html-keyboard-response",29,772007,"0.0-334.0","GDpVsq8RW2TFubnHHznsrUevT8iaEp0TrEFN4CIR1xTOSw30fTXZcV9P46cWrtsxjh9BYE/rgJruYMqzZar2pw//YhcOc8cSmKVIZ4opPZkTKKov8nKpaZB+k6gZ9oLKBJHsnT4Dm5pc0JHj+/HlRpDnxC2t4lzJ+YbzV9CpB3sTXhXwHNXOeDJeMww27B3l9H0PPXH5UOH9qIaLyQwED9P7I31upPesMeQhOUtZQ6hm2S62J+FLg0/eXZEdHudY89M8IEz7NL7ltAjzyUXOqQyInw++yJuEZOHjSO37PS5P0nwmxkhdDFgqwwue8SZTQUQkpBVTmyU34SVZV8LgVg==","691f8ca61c6b4dcbb0aeb5f4","691fbe67e787f1998c73188d","index1","<span style='color:red'>Fail,<span style='color:red'>Fail,<span style='color:green'>Lift,<span style='color:green'>Lift,<span style='color:red'>Fail,<span style='color:red'>Fail,<span style='color:red'>Fail,<span style='color:red'>Fail,<span style='color:red'>Fail,<span style='color:green'>Lift,<span style='color:red'>Fail,<span style='color:green'>Lift","<span style='color:red'>Fail,<span style='color:red'>Fail,<span style='color:green'>Lift,<span style='color:green'>Lift,<span style='color:green'>Lift,<span style='color:green'>Lift,<span style='color:green'>Lift,<span style='color:red'>Fail,<span style='color:green'>Lift,<span style='color:green'>Lift,<span style='color:red'>Fail,<span style='color:green'>Lift","<span style='color:red'>Fail,<span style='color:green'>Lift,<span style='color:green'>Lift,<span style='color:red'>Fail,<span style='color:green'>Lift,<span style='color:green'>Lift","0,0,1,1,0,0,0,0,0,1,0,1","0,0,1,1,1,1,1,0,1,1,0,1","0,1,1,0,1,1",10,20,20,"","","<p style='font-size:30px'><b> New Contest! </b></p>","null","","",NA,4,"",NA,NA,NA,NA,NA,NA,NA,NA,NA,NA,NA,NA,NA,NA,NA,NA,NA,NA,NA,NA,NA,NA,NA,NA,NA,NA,NA,NA,NA,NA,NA,NA,NA,NA,NA,NA,NA,NA,NA,"",NA,NA,NA,NA,NA,NA,NA,NA,2025-11-21 01:40:01
"21713.399999976158","https://psyc-201.github.io/xiang2023/exp/index1.html?PROLIFIC_PID=REDACTED&STUDY_ID=691f8ca61c6b4dcbb0aeb5f4&SESSION_ID=691fbe67e787f1998c73188d","survey-html-form",30,793723,"0.0-335.0","GDpVsq8RW2TFubnHHznsrUevT8iaEp0TrEFN4CIR1xTOSw30fTXZcV9P46cWrtsxjh9BYE/rgJruYMqzZar2pw//YhcOc8cSmKVIZ4opPZkTKKov8nKpaZB+k6gZ9oLKBJHsnT4Dm5pc0JHj+/HlRpDnxC2t4lzJ+YbzV9CpB3sTXhXwHNXOeDJeMww27B3l9H0PPXH5UOH9qIaLyQwED9P7I31upPesMeQhOUtZQ6hm2S62J+FLg0/eXZEdHudY89M8IEz7NL7ltAjzyUXOqQyInw++yJuEZOHjSO37PS5P0nwmxkhdDFgqwwue8SZTQUQkpBVTmyU34SVZV8LgVg==","691f8ca61c6b4dcbb0aeb5f4","691fbe67e787f1998c73188d","index1","<span style='color:red'>Fail,<span style='color:red'>Fail,<span style='color:green'>Lift,<span style='color:green'>Lift,<span style='color:red'>Fail,<span style='color:red'>Fail,<span style='color:red'>Fail,<span style='color:red'>Fail,<span style='color:red'>Fail,<span style='color:green'>Lift,<span style='color:red'>Fail,<span style='color:green'>Lift","<span style='color:red'>Fail,<span style='color:red'>Fail,<span style='color:green'>Lift,<span style='color:green'>Lift,<span style='color:green'>Lift,<span style='color:green'>Lift,<span style='color:green'>Lift,<span style='color:red'>Fail,<span style='color:green'>Lift,<span style='color:green'>Lift,<span style='color:red'>Fail,<span style='color:green'>Lift","<span style='color:red'>Fail,<span style='color:green'>Lift,<span style='color:green'>Lift,<span style='color:red'>Fail,<span style='color:green'>Lift,<span style='color:green'>Lift","0,0,1,1,0,0,0,0,0,1,0,1","0,0,1,1,1,1,1,0,1,1,0,1","0,1,1,0,1,1",10,20,20,"","","","","{""box1"":""4"",""box2"":""8"",""box4"":""100""}","",NA,4,"round1_outcome",1,4,1,4,8,NA,100,0,1,10,4,8,NA,100,0,1,10,NA,NA,NA,NA,NA,NA,NA,NA,NA,NA,NA,NA,NA,NA,NA,NA,NA,NA,NA,NA,NA,NA,"",NA,NA,NA,NA,NA,NA,NA,NA,2025-11-21 01:40:01
"18798.200000047684","https://psyc-201.github.io/xiang2023/exp/index1.html?PROLIFIC_PID=REDACTED&STUDY_ID=691f8ca61c6b4dcbb0aeb5f4&SESSION_ID=691fbe67e787f1998c73188d","survey-html-form",31,812522,"0.0-336.0","GDpVsq8RW2TFubnHHznsrUevT8iaEp0TrEFN4CIR1xTOSw30fTXZcV9P46cWrtsxjh9BYE/rgJruYMqzZar2pw//YhcOc8cSmKVIZ4opPZkTKKov8nKpaZB+k6gZ9oLKBJHsnT4Dm5pc0JHj+/HlRpDnxC2t4lzJ+YbzV9CpB3sTXhXwHNXOeDJeMww27B3l9H0PPXH5UOH9qIaLyQwED9P7I31upPesMeQhOUtZQ6hm2S62J+FLg0/eXZEdHudY89M8IEz7NL7ltAjzyUXOqQyInw++yJuEZOHjSO37PS5P0nwmxkhdDFgqwwue8SZTQUQkpBVTmyU34SVZV8LgVg==","691f8ca61c6b4dcbb0aeb5f4","691fbe67e787f1998c73188d","index1","<span style='color:red'>Fail,<span style='color:red'>Fail,<span style='color:green'>Lift,<span style='color:green'>Lift,<span style='color:red'>Fail,<span style='color:red'>Fail,<span style='color:red'>Fail,<span style='color:red'>Fail,<span style='color:red'>Fail,<span style='color:green'>Lift,<span style='color:red'>Fail,<span style='color:green'>Lift","<span style='color:red'>Fail,<span style='color:red'>Fail,<span style='color:green'>Lift,<span style='color:green'>Lift,<span style='color:green'>Lift,<span style='color:green'>Lift,<span style='color:green'>Lift,<span style='color:red'>Fail,<span style='color:green'>Lift,<span style='color:green'>Lift,<span style='color:red'>Fail,<span style='color:green'>Lift","<span style='color:red'>Fail,<span style='color:green'>Lift,<span style='color:green'>Lift,<span style='color:red'>Fail,<span style='color:green'>Lift,<span style='color:green'>Lift","0,0,1,1,0,0,0,0,0,1,0,1","0,0,1,1,1,1,1,0,1,1,0,1","0,1,1,0,1,1",10,20,20,"","","","","{""box1"":""40"",""box2"":""90""}","",NA,4,"round2_ready",2,4,2,NA,NA,NA,NA,NA,NA,NA,NA,NA,NA,NA,NA,NA,NA,40,90,40,90,NA,NA,NA,NA,NA,NA,NA,NA,NA,NA,NA,NA,NA,NA,NA,NA,NA,NA,"",NA,NA,NA,NA,NA,NA,NA,NA,2025-11-21 01:40:01
"22540.399999976158","https://psyc-201.github.io/xiang2023/exp/index1.html?PROLIFIC_PID=REDACTED&STUDY_ID=691f8ca61c6b4dcbb0aeb5f4&SESSION_ID=691fbe67e787f1998c73188d","survey-html-form",32,835064,"0.0-337.0","GDpVsq8RW2TFubnHHznsrUevT8iaEp0TrEFN4CIR1xTOSw30fTXZcV9P46cWrtsxjh9BYE/rgJruYMqzZar2pw//YhcOc8cSmKVIZ4opPZkTKKov8nKpaZB+k6gZ9oLKBJHsnT4Dm5pc0JHj+/HlRpDnxC2t4lzJ+YbzV9CpB3sTXhXwHNXOeDJeMww27B3l9H0PPXH5UOH9qIaLyQwED9P7I31upPesMeQhOUtZQ6hm2S62J+FLg0/eXZEdHudY89M8IEz7NL7ltAjzyUXOqQyInw++yJuEZOHjSO37PS5P0nwmxkhdDFgqwwue8SZTQUQkpBVTmyU34SVZV8LgVg==","691f8ca61c6b4dcbb0aeb5f4","691fbe67e787f1998c73188d","index1","<span style='color:red'>Fail,<span style='color:red'>Fail,<span style='color:green'>Lift,<span style='color:green'>Lift,<span style='color:red'>Fail,<span style='color:red'>Fail,<span style='color:red'>Fail,<span style='color:red'>Fail,<span style='color:red'>Fail,<span style='color:green'>Lift,<span style='color:red'>Fail,<span style='color:green'>Lift","<span style='color:red'>Fail,<span style='color:red'>Fail,<span style='color:green'>Lift,<span style='color:green'>Lift,<span style='color:green'>Lift,<span style='color:green'>Lift,<span style='color:green'>Lift,<span style='color:red'>Fail,<span style='color:green'>Lift,<span style='color:green'>Lift,<span style='color:red'>Fail,<span style='color:green'>Lift","<span style='color:red'>Fail,<span style='color:green'>Lift,<span style='color:green'>Lift,<span style='color:red'>Fail,<span style='color:green'>Lift,<span style='color:green'>Lift","0,0,1,1,0,0,0,0,0,1,0,1","0,0,1,1,1,1,1,0,1,1,0,1","0,1,1,0,1,1",10,20,20,"","","","","{""box1"":""2"",""box2"":""10"",""box4"":""100""}","",NA,4,"round2_outcome",3,4,2,2,10,NA,100,0,1,20,NA,NA,NA,NA,NA,NA,NA,NA,NA,NA,NA,2,10,NA,100,0,1,20,NA,NA,NA,NA,NA,NA,NA,NA,NA,NA,NA,"",NA,NA,NA,NA,NA,NA,NA,NA,2025-11-21 01:40:01
"7404","https://psyc-201.github.io/xiang2023/exp/index1.html?PROLIFIC_PID=REDACTED&STUDY_ID=691f8ca61c6b4dcbb0aeb5f4&SESSION_ID=691fbe67e787f1998c73188d","survey-html-form",33,842469,"0.0-338.0","GDpVsq8RW2TFubnHHznsrUevT8iaEp0TrEFN4CIR1xTOSw30fTXZcV9P46cWrtsxjh9BYE/rgJruYMqzZar2pw//YhcOc8cSmKVIZ4opPZkTKKov8nKpaZB+k6gZ9oLKBJHsnT4Dm5pc0JHj+/HlRpDnxC2t4lzJ+YbzV9CpB3sTXhXwHNXOeDJeMww27B3l9H0PPXH5UOH9qIaLyQwED9P7I31upPesMeQhOUtZQ6hm2S62J+FLg0/eXZEdHudY89M8IEz7NL7ltAjzyUXOqQyInw++yJuEZOHjSO37PS5P0nwmxkhdDFgqwwue8SZTQUQkpBVTmyU34SVZV8LgVg==","691f8ca61c6b4dcbb0aeb5f4","691fbe67e787f1998c73188d","index1","<span style='color:red'>Fail,<span style='color:red'>Fail,<span style='color:green'>Lift,<span style='color:green'>Lift,<span style='color:red'>Fail,<span style='color:red'>Fail,<span style='color:red'>Fail,<span style='color:red'>Fail,<span style='color:red'>Fail,<span style='color:green'>Lift,<span style='color:red'>Fail,<span style='color:green'>Lift","<span style='color:red'>Fail,<span style='color:red'>Fail,<span style='color:green'>Lift,<span style='color:green'>Lift,<span style='color:green'>Lift,<span style='color:green'>Lift,<span style='color:green'>Lift,<span style='color:red'>Fail,<span style='color:green'>Lift,<span style='color:green'>Lift,<span style='color:red'>Fail,<span style='color:green'>Lift","<span style='color:red'>Fail,<span style='color:green'>Lift,<span style='color:green'>Lift,<span style='color:red'>Fail,<span style='color:green'>Lift,<span style='color:green'>Lift","0,0,1,1,0,0,0,0,0,1,0,1","0,0,1,1,1,1,1,0,1,1,0,1","0,1,1,0,1,1",10,20,20,"","","","","{""box1"":""80""}","",NA,4,"round3_ready",4,4,3,NA,NA,NA,NA,NA,NA,NA,NA,NA,NA,NA,NA,NA,NA,80,80,NA,NA,NA,NA,NA,NA,NA,NA,NA,80,80,NA,NA,NA,NA,NA,NA,NA,NA,NA,"",NA,NA,NA,NA,NA,NA,NA,NA,2025-11-21 01:40:01
"17454.300000071526","https://psyc-201.github.io/xiang2023/exp/index1.html?PROLIFIC_PID=REDACTED&STUDY_ID=691f8ca61c6b4dcbb0aeb5f4&SESSION_ID=691fbe67e787f1998c73188d","survey-html-form",34,859925,"0.0-339.0-0.0","GDpVsq8RW2TFubnHHznsrUevT8iaEp0TrEFN4CIR1xTOSw30fTXZcV9P46cWrtsxjh9BYE/rgJruYMqzZar2pw//YhcOc8cSmKVIZ4opPZkTKKov8nKpaZB+k6gZ9oLKBJHsnT4Dm5pc0JHj+/HlRpDnxC2t4lzJ+YbzV9CpB3sTXhXwHNXOeDJeMww27B3l9H0PPXH5UOH9qIaLyQwED9P7I31upPesMeQhOUtZQ6hm2S62J+FLg0/eXZEdHudY89M8IEz7NL7ltAjzyUXOqQyInw++yJuEZOHjSO37PS5P0nwmxkhdDFgqwwue8SZTQUQkpBVTmyU34SVZV8LgVg==","691f8ca61c6b4dcbb0aeb5f4","691fbe67e787f1998c73188d","index1","<span style='color:red'>Fail,<span style='color:red'>Fail,<span style='color:green'>Lift,<span style='color:green'>Lift,<span style='color:red'>Fail,<span style='color:red'>Fail,<span style='color:red'>Fail,<span style='color:red'>Fail,<span style='color:red'>Fail,<span style='color:green'>Lift,<span style='color:red'>Fail,<span style='color:green'>Lift","<span style='color:red'>Fail,<span style='color:red'>Fail,<span style='color:green'>Lift,<span style='color:green'>Lift,<span style='color:green'>Lift,<span style='color:green'>Lift,<span style='color:green'>Lift,<span style='color:red'>Fail,<span style='color:green'>Lift,<span style='color:green'>Lift,<span style='color:red'>Fail,<span style='color:green'>Lift","<span style='color:red'>Fail,<span style='color:green'>Lift,<span style='color:green'>Lift,<span style='color:red'>Fail,<span style='color:green'>Lift,<span style='color:green'>Lift","0,0,1,1,0,0,0,0,0,1,0,1","0,0,1,1,1,1,1,0,1,1,0,1","0,1,1,0,1,1",10,20,20,"","","","","{""box1"":""3"",""box2"":""10"",""box3"":""70"",""box4"":""100""}","",NA,5,"round3_lift",5,4,3,3,10,70,100,1,1,20,NA,NA,NA,NA,NA,NA,NA,NA,NA,NA,NA,NA,NA,NA,NA,NA,NA,NA,NA,NA,NA,NA,3,10,1,1,20,70,100,"",NA,NA,NA,NA,NA,NA,NA,NA,2025-11-21 01:40:01
"null","https://psyc-201.github.io/xiang2023/exp/index1.html?PROLIFIC_PID=REDACTED&STUDY_ID=691f8ca61c6b4dcbb0aeb5f4&SESSION_ID=691fbe67e787f1998c73188d","html-keyboard-response",35,862927,"0.0-343.0","GDpVsq8RW2TFubnHHznsrUevT8iaEp0TrEFN4CIR1xTOSw30fTXZcV9P46cWrtsxjh9BYE/rgJruYMqzZar2pw//YhcOc8cSmKVIZ4opPZkTKKov8nKpaZB+k6gZ9oLKBJHsnT4Dm5pc0JHj+/HlRpDnxC2t4lzJ+YbzV9CpB3sTXhXwHNXOeDJeMww27B3l9H0PPXH5UOH9qIaLyQwED9P7I31upPesMeQhOUtZQ6hm2S62J+FLg0/eXZEdHudY89M8IEz7NL7ltAjzyUXOqQyInw++yJuEZOHjSO37PS5P0nwmxkhdDFgqwwue8SZTQUQkpBVTmyU34SVZV8LgVg==","691f8ca61c6b4dcbb0aeb5f4","691fbe67e787f1998c73188d","index1","<span style='color:red'>Fail,<span style='color:red'>Fail,<span style='color:green'>Lift,<span style='color:green'>Lift,<span style='color:red'>Fail,<span style='color:red'>Fail,<span style='color:red'>Fail,<span style='color:red'>Fail,<span style='color:red'>Fail,<span style='color:green'>Lift,<span style='color:red'>Fail,<span style='color:green'>Lift","<span style='color:red'>Fail,<span style='color:red'>Fail,<span style='color:green'>Lift,<span style='color:green'>Lift,<span style='color:green'>Lift,<span style='color:green'>Lift,<span style='color:green'>Lift,<span style='color:red'>Fail,<span style='color:green'>Lift,<span style='color:green'>Lift,<span style='color:red'>Fail,<span style='color:green'>Lift","<span style='color:red'>Fail,<span style='color:green'>Lift,<span style='color:green'>Lift,<span style='color:red'>Fail,<span style='color:green'>Lift,<span style='color:green'>Lift","0,0,1,1,0,0,0,0,0,1,0,1","0,0,1,1,1,1,1,0,1,1,0,1","0,1,1,0,1,1",10,20,20,"","","<p style='font-size:30px'><b> New Contest! </b></p>","null","","",NA,5,"",NA,NA,NA,NA,NA,NA,NA,NA,NA,NA,NA,NA,NA,NA,NA,NA,NA,NA,NA,NA,NA,NA,NA,NA,NA,NA,NA,NA,NA,NA,NA,NA,NA,NA,NA,NA,NA,NA,NA,"",NA,NA,NA,NA,NA,NA,NA,NA,2025-11-21 01:40:01
"21177.399999976158","https://psyc-201.github.io/xiang2023/exp/index1.html?PROLIFIC_PID=REDACTED&STUDY_ID=691f8ca61c6b4dcbb0aeb5f4&SESSION_ID=691fbe67e787f1998c73188d","survey-html-form",36,884106,"0.0-344.0","GDpVsq8RW2TFubnHHznsrUevT8iaEp0TrEFN4CIR1xTOSw30fTXZcV9P46cWrtsxjh9BYE/rgJruYMqzZar2pw//YhcOc8cSmKVIZ4opPZkTKKov8nKpaZB+k6gZ9oLKBJHsnT4Dm5pc0JHj+/HlRpDnxC2t4lzJ+YbzV9CpB3sTXhXwHNXOeDJeMww27B3l9H0PPXH5UOH9qIaLyQwED9P7I31upPesMeQhOUtZQ6hm2S62J+FLg0/eXZEdHudY89M8IEz7NL7ltAjzyUXOqQyInw++yJuEZOHjSO37PS5P0nwmxkhdDFgqwwue8SZTQUQkpBVTmyU34SVZV8LgVg==","691f8ca61c6b4dcbb0aeb5f4","691fbe67e787f1998c73188d","index1","<span style='color:red'>Fail,<span style='color:red'>Fail,<span style='color:green'>Lift,<span style='color:green'>Lift,<span style='color:red'>Fail,<span style='color:red'>Fail,<span style='color:red'>Fail,<span style='color:red'>Fail,<span style='color:red'>Fail,<span style='color:green'>Lift,<span style='color:red'>Fail,<span style='color:green'>Lift","<span style='color:red'>Fail,<span style='color:red'>Fail,<span style='color:green'>Lift,<span style='color:green'>Lift,<span style='color:green'>Lift,<span style='color:green'>Lift,<span style='color:green'>Lift,<span style='color:red'>Fail,<span style='color:green'>Lift,<span style='color:green'>Lift,<span style='color:red'>Fail,<span style='color:green'>Lift","<span style='color:red'>Fail,<span style='color:green'>Lift,<span style='color:green'>Lift,<span style='color:red'>Fail,<span style='color:green'>Lift,<span style='color:green'>Lift","0,0,1,1,0,0,0,0,0,1,0,1","0,0,1,1,1,1,1,0,1,1,0,1","0,1,1,0,1,1",10,20,20,"","","","","{""box1"":""9"",""box2"":""9"",""box3"":""90"",""box4"":""90""}","",NA,5,"round1_outcome",1,5,1,9,9,90,90,1,1,10,9,9,90,90,1,1,10,NA,NA,NA,NA,NA,NA,NA,NA,NA,NA,NA,NA,NA,NA,NA,NA,NA,NA,NA,NA,NA,NA,"",NA,NA,NA,NA,NA,NA,NA,NA,2025-11-21 01:40:01
"10634.299999952316","https://psyc-201.github.io/xiang2023/exp/index1.html?PROLIFIC_PID=REDACTED&STUDY_ID=691f8ca61c6b4dcbb0aeb5f4&SESSION_ID=691fbe67e787f1998c73188d","survey-html-form",37,894742,"0.0-345.0","GDpVsq8RW2TFubnHHznsrUevT8iaEp0TrEFN4CIR1xTOSw30fTXZcV9P46cWrtsxjh9BYE/rgJruYMqzZar2pw//YhcOc8cSmKVIZ4opPZkTKKov8nKpaZB+k6gZ9oLKBJHsnT4Dm5pc0JHj+/HlRpDnxC2t4lzJ+YbzV9CpB3sTXhXwHNXOeDJeMww27B3l9H0PPXH5UOH9qIaLyQwED9P7I31upPesMeQhOUtZQ6hm2S62J+FLg0/eXZEdHudY89M8IEz7NL7ltAjzyUXOqQyInw++yJuEZOHjSO37PS5P0nwmxkhdDFgqwwue8SZTQUQkpBVTmyU34SVZV8LgVg==","691f8ca61c6b4dcbb0aeb5f4","691fbe67e787f1998c73188d","index1","<span style='color:red'>Fail,<span style='color:red'>Fail,<span style='color:green'>Lift,<span style='color:green'>Lift,<span style='color:red'>Fail,<span style='color:red'>Fail,<span style='color:red'>Fail,<span style='color:red'>Fail,<span style='color:red'>Fail,<span style='color:green'>Lift,<span style='color:red'>Fail,<span style='color:green'>Lift","<span style='color:red'>Fail,<span style='color:red'>Fail,<span style='color:green'>Lift,<span style='color:green'>Lift,<span style='color:green'>Lift,<span style='color:green'>Lift,<span style='color:green'>Lift,<span style='color:red'>Fail,<span style='color:green'>Lift,<span style='color:green'>Lift,<span style='color:red'>Fail,<span style='color:green'>Lift","<span style='color:red'>Fail,<span style='color:green'>Lift,<span style='color:green'>Lift,<span style='color:red'>Fail,<span style='color:green'>Lift,<span style='color:green'>Lift","0,0,1,1,0,0,0,0,0,1,0,1","0,0,1,1,1,1,1,0,1,1,0,1","0,1,1,0,1,1",10,20,20,"","","","","{""box1"":""80"",""box2"":""80""}","",NA,5,"round2_ready",2,5,2,NA,NA,NA,NA,NA,NA,NA,NA,NA,NA,NA,NA,NA,NA,80,80,80,80,NA,NA,NA,NA,NA,NA,NA,NA,NA,NA,NA,NA,NA,NA,NA,NA,NA,NA,"",NA,NA,NA,NA,NA,NA,NA,NA,2025-11-21 01:40:01
"21812.100000023842","https://psyc-201.github.io/xiang2023/exp/index1.html?PROLIFIC_PID=REDACTED&STUDY_ID=691f8ca61c6b4dcbb0aeb5f4&SESSION_ID=691fbe67e787f1998c73188d","survey-html-form",38,916556,"0.0-346.0","GDpVsq8RW2TFubnHHznsrUevT8iaEp0TrEFN4CIR1xTOSw30fTXZcV9P46cWrtsxjh9BYE/rgJruYMqzZar2pw//YhcOc8cSmKVIZ4opPZkTKKov8nKpaZB+k6gZ9oLKBJHsnT4Dm5pc0JHj+/HlRpDnxC2t4lzJ+YbzV9CpB3sTXhXwHNXOeDJeMww27B3l9H0PPXH5UOH9qIaLyQwED9P7I31upPesMeQhOUtZQ6hm2S62J+FLg0/eXZEdHudY89M8IEz7NL7ltAjzyUXOqQyInw++yJuEZOHjSO37PS5P0nwmxkhdDFgqwwue8SZTQUQkpBVTmyU34SVZV8LgVg==","691f8ca61c6b4dcbb0aeb5f4","691fbe67e787f1998c73188d","index1","<span style='color:red'>Fail,<span style='color:red'>Fail,<span style='color:green'>Lift,<span style='color:green'>Lift,<span style='color:red'>Fail,<span style='color:red'>Fail,<span style='color:red'>Fail,<span style='color:red'>Fail,<span style='color:red'>Fail,<span style='color:green'>Lift,<span style='color:red'>Fail,<span style='color:green'>Lift","<span style='color:red'>Fail,<span style='color:red'>Fail,<span style='color:green'>Lift,<span style='color:green'>Lift,<span style='color:green'>Lift,<span style='color:green'>Lift,<span style='color:green'>Lift,<span style='color:red'>Fail,<span style='color:green'>Lift,<span style='color:green'>Lift,<span style='color:red'>Fail,<span style='color:green'>Lift","<span style='color:red'>Fail,<span style='color:green'>Lift,<span style='color:green'>Lift,<span style='color:red'>Fail,<span style='color:green'>Lift,<span style='color:green'>Lift","0,0,1,1,0,0,0,0,0,1,0,1","0,0,1,1,1,1,1,0,1,1,0,1","0,1,1,0,1,1",10,20,20,"","","","","{""box1"":""9"",""box2"":""9"",""box3"":""100"",""box4"":""100""}","",NA,5,"round2_outcome",3,5,2,9,9,100,100,1,1,20,NA,NA,NA,NA,NA,NA,NA,NA,NA,NA,NA,9,9,100,100,1,1,20,NA,NA,NA,NA,NA,NA,NA,NA,NA,NA,NA,"",NA,NA,NA,NA,NA,NA,NA,NA,2025-11-21 01:40:01
"5525","https://psyc-201.github.io/xiang2023/exp/index1.html?PROLIFIC_PID=REDACTED&STUDY_ID=691f8ca61c6b4dcbb0aeb5f4&SESSION_ID=691fbe67e787f1998c73188d","survey-html-form",39,922082,"0.0-347.0","GDpVsq8RW2TFubnHHznsrUevT8iaEp0TrEFN4CIR1xTOSw30fTXZcV9P46cWrtsxjh9BYE/rgJruYMqzZar2pw//YhcOc8cSmKVIZ4opPZkTKKov8nKpaZB+k6gZ9oLKBJHsnT4Dm5pc0JHj+/HlRpDnxC2t4lzJ+YbzV9CpB3sTXhXwHNXOeDJeMww27B3l9H0PPXH5UOH9qIaLyQwED9P7I31upPesMeQhOUtZQ6hm2S62J+FLg0/eXZEdHudY89M8IEz7NL7ltAjzyUXOqQyInw++yJuEZOHjSO37PS5P0nwmxkhdDFgqwwue8SZTQUQkpBVTmyU34SVZV8LgVg==","691f8ca61c6b4dcbb0aeb5f4","691fbe67e787f1998c73188d","index1","<span style='color:red'>Fail,<span style='color:red'>Fail,<span style='color:green'>Lift,<span style='color:green'>Lift,<span style='color:red'>Fail,<span style='color:red'>Fail,<span style='color:red'>Fail,<span style='color:red'>Fail,<span style='color:red'>Fail,<span style='color:green'>Lift,<span style='color:red'>Fail,<span style='color:green'>Lift","<span style='color:red'>Fail,<span style='color:red'>Fail,<span style='color:green'>Lift,<span style='color:green'>Lift,<span style='color:green'>Lift,<span style='color:green'>Lift,<span style='color:green'>Lift,<span style='color:red'>Fail,<span style='color:green'>Lift,<span style='color:green'>Lift,<span style='color:red'>Fail,<span style='color:green'>Lift","<span style='color:red'>Fail,<span style='color:green'>Lift,<span style='color:green'>Lift,<span style='color:red'>Fail,<span style='color:green'>Lift,<span style='color:green'>Lift","0,0,1,1,0,0,0,0,0,1,0,1","0,0,1,1,1,1,1,0,1,1,0,1","0,1,1,0,1,1",10,20,20,"","","","","{""box1"":""90""}","",NA,5,"round3_ready",4,5,3,NA,NA,NA,NA,NA,NA,NA,NA,NA,NA,NA,NA,NA,NA,90,90,NA,NA,NA,NA,NA,NA,NA,NA,NA,90,90,NA,NA,NA,NA,NA,NA,NA,NA,NA,"",NA,NA,NA,NA,NA,NA,NA,NA,2025-11-21 01:40:01
"16670.200000047684","https://psyc-201.github.io/xiang2023/exp/index1.html?PROLIFIC_PID=REDACTED&STUDY_ID=691f8ca61c6b4dcbb0aeb5f4&SESSION_ID=691fbe67e787f1998c73188d","survey-html-form",40,938754,"0.0-348.0-0.0","GDpVsq8RW2TFubnHHznsrUevT8iaEp0TrEFN4CIR1xTOSw30fTXZcV9P46cWrtsxjh9BYE/rgJruYMqzZar2pw//YhcOc8cSmKVIZ4opPZkTKKov8nKpaZB+k6gZ9oLKBJHsnT4Dm5pc0JHj+/HlRpDnxC2t4lzJ+YbzV9CpB3sTXhXwHNXOeDJeMww27B3l9H0PPXH5UOH9qIaLyQwED9P7I31upPesMeQhOUtZQ6hm2S62J+FLg0/eXZEdHudY89M8IEz7NL7ltAjzyUXOqQyInw++yJuEZOHjSO37PS5P0nwmxkhdDFgqwwue8SZTQUQkpBVTmyU34SVZV8LgVg==","691f8ca61c6b4dcbb0aeb5f4","691fbe67e787f1998c73188d","index1","<span style='color:red'>Fail,<span style='color:red'>Fail,<span style='color:green'>Lift,<span style='color:green'>Lift,<span style='color:red'>Fail,<span style='color:red'>Fail,<span style='color:red'>Fail,<span style='color:red'>Fail,<span style='color:red'>Fail,<span style='color:green'>Lift,<span style='color:red'>Fail,<span style='color:green'>Lift","<span style='color:red'>Fail,<span style='color:red'>Fail,<span style='color:green'>Lift,<span style='color:green'>Lift,<span style='color:green'>Lift,<span style='color:green'>Lift,<span style='color:green'>Lift,<span style='color:red'>Fail,<span style='color:green'>Lift,<span style='color:green'>Lift,<span style='color:red'>Fail,<span style='color:green'>Lift","<span style='color:red'>Fail,<span style='color:green'>Lift,<span style='color:green'>Lift,<span style='color:red'>Fail,<span style='color:green'>Lift,<span style='color:green'>Lift","0,0,1,1,0,0,0,0,0,1,0,1","0,0,1,1,1,1,1,0,1,1,0,1","0,1,1,0,1,1",10,20,20,"","","","","{""box1"":""9"",""box2"":""9"",""box3"":""100"",""box4"":""100""}","",NA,6,"round3_lift",5,5,3,9,9,100,100,1,1,20,NA,NA,NA,NA,NA,NA,NA,NA,NA,NA,NA,NA,NA,NA,NA,NA,NA,NA,NA,NA,NA,NA,9,9,1,1,20,100,100,"",NA,NA,NA,NA,NA,NA,NA,NA,2025-11-21 01:40:01
"null","https://psyc-201.github.io/xiang2023/exp/index1.html?PROLIFIC_PID=REDACTED&STUDY_ID=691f8ca61c6b4dcbb0aeb5f4&SESSION_ID=691fbe67e787f1998c73188d","html-keyboard-response",41,941769,"0.0-352.0","GDpVsq8RW2TFubnHHznsrUevT8iaEp0TrEFN4CIR1xTOSw30fTXZcV9P46cWrtsxjh9BYE/rgJruYMqzZar2pw//YhcOc8cSmKVIZ4opPZkTKKov8nKpaZB+k6gZ9oLKBJHsnT4Dm5pc0JHj+/HlRpDnxC2t4lzJ+YbzV9CpB3sTXhXwHNXOeDJeMww27B3l9H0PPXH5UOH9qIaLyQwED9P7I31upPesMeQhOUtZQ6hm2S62J+FLg0/eXZEdHudY89M8IEz7NL7ltAjzyUXOqQyInw++yJuEZOHjSO37PS5P0nwmxkhdDFgqwwue8SZTQUQkpBVTmyU34SVZV8LgVg==","691f8ca61c6b4dcbb0aeb5f4","691fbe67e787f1998c73188d","index1","<span style='color:red'>Fail,<span style='color:red'>Fail,<span style='color:green'>Lift,<span style='color:green'>Lift,<span style='color:red'>Fail,<span style='color:red'>Fail,<span style='color:red'>Fail,<span style='color:red'>Fail,<span style='color:red'>Fail,<span style='color:green'>Lift,<span style='color:red'>Fail,<span style='color:green'>Lift","<span style='color:red'>Fail,<span style='color:red'>Fail,<span style='color:green'>Lift,<span style='color:green'>Lift,<span style='color:green'>Lift,<span style='color:green'>Lift,<span style='color:green'>Lift,<span style='color:red'>Fail,<span style='color:green'>Lift,<span style='color:green'>Lift,<span style='color:red'>Fail,<span style='color:green'>Lift","<span style='color:red'>Fail,<span style='color:green'>Lift,<span style='color:green'>Lift,<span style='color:red'>Fail,<span style='color:green'>Lift,<span style='color:green'>Lift","0,0,1,1,0,0,0,0,0,1,0,1","0,0,1,1,1,1,1,0,1,1,0,1","0,1,1,0,1,1",10,20,20,"","","<p style='font-size:30px'><b> New Contest! </b></p>","null","","",NA,6,"",NA,NA,NA,NA,NA,NA,NA,NA,NA,NA,NA,NA,NA,NA,NA,NA,NA,NA,NA,NA,NA,NA,NA,NA,NA,NA,NA,NA,NA,NA,NA,NA,NA,NA,NA,NA,NA,NA,NA,"",NA,NA,NA,NA,NA,NA,NA,NA,2025-11-21 01:40:01
"24994.800000071526","https://psyc-201.github.io/xiang2023/exp/index1.html?PROLIFIC_PID=REDACTED&STUDY_ID=691f8ca61c6b4dcbb0aeb5f4&SESSION_ID=691fbe67e787f1998c73188d","survey-html-form",42,966766,"0.0-353.0","GDpVsq8RW2TFubnHHznsrUevT8iaEp0TrEFN4CIR1xTOSw30fTXZcV9P46cWrtsxjh9BYE/rgJruYMqzZar2pw//YhcOc8cSmKVIZ4opPZkTKKov8nKpaZB+k6gZ9oLKBJHsnT4Dm5pc0JHj+/HlRpDnxC2t4lzJ+YbzV9CpB3sTXhXwHNXOeDJeMww27B3l9H0PPXH5UOH9qIaLyQwED9P7I31upPesMeQhOUtZQ6hm2S62J+FLg0/eXZEdHudY89M8IEz7NL7ltAjzyUXOqQyInw++yJuEZOHjSO37PS5P0nwmxkhdDFgqwwue8SZTQUQkpBVTmyU34SVZV8LgVg==","691f8ca61c6b4dcbb0aeb5f4","691fbe67e787f1998c73188d","index1","<span style='color:red'>Fail,<span style='color:red'>Fail,<span style='color:green'>Lift,<span style='color:green'>Lift,<span style='color:red'>Fail,<span style='color:red'>Fail,<span style='color:red'>Fail,<span style='color:red'>Fail,<span style='color:red'>Fail,<span style='color:green'>Lift,<span style='color:red'>Fail,<span style='color:green'>Lift","<span style='color:red'>Fail,<span style='color:red'>Fail,<span style='color:green'>Lift,<span style='color:green'>Lift,<span style='color:green'>Lift,<span style='color:green'>Lift,<span style='color:green'>Lift,<span style='color:red'>Fail,<span style='color:green'>Lift,<span style='color:green'>Lift,<span style='color:red'>Fail,<span style='color:green'>Lift","<span style='color:red'>Fail,<span style='color:green'>Lift,<span style='color:green'>Lift,<span style='color:red'>Fail,<span style='color:green'>Lift,<span style='color:green'>Lift","0,0,1,1,0,0,0,0,0,1,0,1","0,0,1,1,1,1,1,0,1,1,0,1","0,1,1,0,1,1",10,20,20,"","","","","{""box1"":""5"",""box2"":""8"",""box4"":""90""}","",NA,6,"round1_outcome",1,6,1,5,8,NA,90,0,1,10,5,8,NA,90,0,1,10,NA,NA,NA,NA,NA,NA,NA,NA,NA,NA,NA,NA,NA,NA,NA,NA,NA,NA,NA,NA,NA,NA,"",NA,NA,NA,NA,NA,NA,NA,NA,2025-11-21 01:40:01
"14024.700000047684","https://psyc-201.github.io/xiang2023/exp/index1.html?PROLIFIC_PID=REDACTED&STUDY_ID=691f8ca61c6b4dcbb0aeb5f4&SESSION_ID=691fbe67e787f1998c73188d","survey-html-form",43,980792,"0.0-354.0","GDpVsq8RW2TFubnHHznsrUevT8iaEp0TrEFN4CIR1xTOSw30fTXZcV9P46cWrtsxjh9BYE/rgJruYMqzZar2pw//YhcOc8cSmKVIZ4opPZkTKKov8nKpaZB+k6gZ9oLKBJHsnT4Dm5pc0JHj+/HlRpDnxC2t4lzJ+YbzV9CpB3sTXhXwHNXOeDJeMww27B3l9H0PPXH5UOH9qIaLyQwED9P7I31upPesMeQhOUtZQ6hm2S62J+FLg0/eXZEdHudY89M8IEz7NL7ltAjzyUXOqQyInw++yJuEZOHjSO37PS5P0nwmxkhdDFgqwwue8SZTQUQkpBVTmyU34SVZV8LgVg==","691f8ca61c6b4dcbb0aeb5f4","691fbe67e787f1998c73188d","index1","<span style='color:red'>Fail,<span style='color:red'>Fail,<span style='color:green'>Lift,<span style='color:green'>Lift,<span style='color:red'>Fail,<span style='color:red'>Fail,<span style='color:red'>Fail,<span style='color:red'>Fail,<span style='color:red'>Fail,<span style='color:green'>Lift,<span style='color:red'>Fail,<span style='color:green'>Lift","<span style='color:red'>Fail,<span style='color:red'>Fail,<span style='color:green'>Lift,<span style='color:green'>Lift,<span style='color:green'>Lift,<span style='color:green'>Lift,<span style='color:green'>Lift,<span style='color:red'>Fail,<span style='color:green'>Lift,<span style='color:green'>Lift,<span style='color:red'>Fail,<span style='color:green'>Lift","<span style='color:red'>Fail,<span style='color:green'>Lift,<span style='color:green'>Lift,<span style='color:red'>Fail,<span style='color:green'>Lift,<span style='color:green'>Lift","0,0,1,1,0,0,0,0,0,1,0,1","0,0,1,1,1,1,1,0,1,1,0,1","0,1,1,0,1,1",10,20,20,"","","","","{""box1"":""40"",""box2"":""80""}","",NA,6,"round2_ready",2,6,2,NA,NA,NA,NA,NA,NA,NA,NA,NA,NA,NA,NA,NA,NA,40,80,40,80,NA,NA,NA,NA,NA,NA,NA,NA,NA,NA,NA,NA,NA,NA,NA,NA,NA,NA,"",NA,NA,NA,NA,NA,NA,NA,NA,2025-11-21 01:40:01
"19957.399999976158","https://psyc-201.github.io/xiang2023/exp/index1.html?PROLIFIC_PID=REDACTED&STUDY_ID=691f8ca61c6b4dcbb0aeb5f4&SESSION_ID=691fbe67e787f1998c73188d","survey-html-form",44,1000751,"0.0-355.0","GDpVsq8RW2TFubnHHznsrUevT8iaEp0TrEFN4CIR1xTOSw30fTXZcV9P46cWrtsxjh9BYE/rgJruYMqzZar2pw//YhcOc8cSmKVIZ4opPZkTKKov8nKpaZB+k6gZ9oLKBJHsnT4Dm5pc0JHj+/HlRpDnxC2t4lzJ+YbzV9CpB3sTXhXwHNXOeDJeMww27B3l9H0PPXH5UOH9qIaLyQwED9P7I31upPesMeQhOUtZQ6hm2S62J+FLg0/eXZEdHudY89M8IEz7NL7ltAjzyUXOqQyInw++yJuEZOHjSO37PS5P0nwmxkhdDFgqwwue8SZTQUQkpBVTmyU34SVZV8LgVg==","691f8ca61c6b4dcbb0aeb5f4","691fbe67e787f1998c73188d","index1","<span style='color:red'>Fail,<span style='color:red'>Fail,<span style='color:green'>Lift,<span style='color:green'>Lift,<span style='color:red'>Fail,<span style='color:red'>Fail,<span style='color:red'>Fail,<span style='color:red'>Fail,<span style='color:red'>Fail,<span style='color:green'>Lift,<span style='color:red'>Fail,<span style='color:green'>Lift","<span style='color:red'>Fail,<span style='color:red'>Fail,<span style='color:green'>Lift,<span style='color:green'>Lift,<span style='color:green'>Lift,<span style='color:green'>Lift,<span style='color:green'>Lift,<span style='color:red'>Fail,<span style='color:green'>Lift,<span style='color:green'>Lift,<span style='color:red'>Fail,<span style='color:green'>Lift","<span style='color:red'>Fail,<span style='color:green'>Lift,<span style='color:green'>Lift,<span style='color:red'>Fail,<span style='color:green'>Lift,<span style='color:green'>Lift","0,0,1,1,0,0,0,0,0,1,0,1","0,0,1,1,1,1,1,0,1,1,0,1","0,1,1,0,1,1",10,20,20,"","","","","{""box1"":""6"",""box2"":""8"",""box3"":""100"",""box4"":""100""}","",NA,6,"round2_outcome",3,6,2,6,8,100,100,1,1,20,NA,NA,NA,NA,NA,NA,NA,NA,NA,NA,NA,6,8,100,100,1,1,20,NA,NA,NA,NA,NA,NA,NA,NA,NA,NA,NA,"",NA,NA,NA,NA,NA,NA,NA,NA,2025-11-21 01:40:01
"5100.599999904633","https://psyc-201.github.io/xiang2023/exp/index1.html?PROLIFIC_PID=REDACTED&STUDY_ID=691f8ca61c6b4dcbb0aeb5f4&SESSION_ID=691fbe67e787f1998c73188d","survey-html-form",45,1005853,"0.0-356.0","GDpVsq8RW2TFubnHHznsrUevT8iaEp0TrEFN4CIR1xTOSw30fTXZcV9P46cWrtsxjh9BYE/rgJruYMqzZar2pw//YhcOc8cSmKVIZ4opPZkTKKov8nKpaZB+k6gZ9oLKBJHsnT4Dm5pc0JHj+/HlRpDnxC2t4lzJ+YbzV9CpB3sTXhXwHNXOeDJeMww27B3l9H0PPXH5UOH9qIaLyQwED9P7I31upPesMeQhOUtZQ6hm2S62J+FLg0/eXZEdHudY89M8IEz7NL7ltAjzyUXOqQyInw++yJuEZOHjSO37PS5P0nwmxkhdDFgqwwue8SZTQUQkpBVTmyU34SVZV8LgVg==","691f8ca61c6b4dcbb0aeb5f4","691fbe67e787f1998c73188d","index1","<span style='color:red'>Fail,<span style='color:red'>Fail,<span style='color:green'>Lift,<span style='color:green'>Lift,<span style='color:red'>Fail,<span style='color:red'>Fail,<span style='color:red'>Fail,<span style='color:red'>Fail,<span style='color:red'>Fail,<span style='color:green'>Lift,<span style='color:red'>Fail,<span style='color:green'>Lift","<span style='color:red'>Fail,<span style='color:red'>Fail,<span style='color:green'>Lift,<span style='color:green'>Lift,<span style='color:green'>Lift,<span style='color:green'>Lift,<span style='color:green'>Lift,<span style='color:red'>Fail,<span style='color:green'>Lift,<span style='color:green'>Lift,<span style='color:red'>Fail,<span style='color:green'>Lift","<span style='color:red'>Fail,<span style='color:green'>Lift,<span style='color:green'>Lift,<span style='color:red'>Fail,<span style='color:green'>Lift,<span style='color:green'>Lift","0,0,1,1,0,0,0,0,0,1,0,1","0,0,1,1,1,1,1,0,1,1,0,1","0,1,1,0,1,1",10,20,20,"","","","","{""box1"":""90""}","",NA,6,"round3_ready",4,6,3,NA,NA,NA,NA,NA,NA,NA,NA,NA,NA,NA,NA,NA,NA,90,90,NA,NA,NA,NA,NA,NA,NA,NA,NA,90,90,NA,NA,NA,NA,NA,NA,NA,NA,NA,"",NA,NA,NA,NA,NA,NA,NA,NA,2025-11-21 01:40:01
"21356.600000023842","https://psyc-201.github.io/xiang2023/exp/index1.html?PROLIFIC_PID=REDACTED&STUDY_ID=691f8ca61c6b4dcbb0aeb5f4&SESSION_ID=691fbe67e787f1998c73188d","survey-html-form",46,1027210,"0.0-357.0-0.0","GDpVsq8RW2TFubnHHznsrUevT8iaEp0TrEFN4CIR1xTOSw30fTXZcV9P46cWrtsxjh9BYE/rgJruYMqzZar2pw//YhcOc8cSmKVIZ4opPZkTKKov8nKpaZB+k6gZ9oLKBJHsnT4Dm5pc0JHj+/HlRpDnxC2t4lzJ+YbzV9CpB3sTXhXwHNXOeDJeMww27B3l9H0PPXH5UOH9qIaLyQwED9P7I31upPesMeQhOUtZQ6hm2S62J+FLg0/eXZEdHudY89M8IEz7NL7ltAjzyUXOqQyInw++yJuEZOHjSO37PS5P0nwmxkhdDFgqwwue8SZTQUQkpBVTmyU34SVZV8LgVg==","691f8ca61c6b4dcbb0aeb5f4","691fbe67e787f1998c73188d","index1","<span style='color:red'>Fail,<span style='color:red'>Fail,<span style='color:green'>Lift,<span style='color:green'>Lift,<span style='color:red'>Fail,<span style='color:red'>Fail,<span style='color:red'>Fail,<span style='color:red'>Fail,<span style='color:red'>Fail,<span style='color:green'>Lift,<span style='color:red'>Fail,<span style='color:green'>Lift","<span style='color:red'>Fail,<span style='color:red'>Fail,<span style='color:green'>Lift,<span style='color:green'>Lift,<span style='color:green'>Lift,<span style='color:green'>Lift,<span style='color:green'>Lift,<span style='color:red'>Fail,<span style='color:green'>Lift,<span style='color:green'>Lift,<span style='color:red'>Fail,<span style='color:green'>Lift","<span style='color:red'>Fail,<span style='color:green'>Lift,<span style='color:green'>Lift,<span style='color:red'>Fail,<span style='color:green'>Lift,<span style='color:green'>Lift","0,0,1,1,0,0,0,0,0,1,0,1","0,0,1,1,1,1,1,0,1,1,0,1","0,1,1,0,1,1",10,20,20,"","","","","{""box1"":""8"",""box2"":""9"",""box3"":""100"",""box4"":""100""}","",NA,6,"round3_lift",5,6,3,8,9,100,100,1,1,20,NA,NA,NA,NA,NA,NA,NA,NA,NA,NA,NA,NA,NA,NA,NA,NA,NA,NA,NA,NA,NA,NA,8,9,1,1,20,100,100,"",NA,NA,NA,NA,NA,NA,NA,NA,2025-11-21 01:40:01
"71772.89999997616","https://psyc-201.github.io/xiang2023/exp/index1.html?PROLIFIC_PID=REDACTED&STUDY_ID=691f8ca61c6b4dcbb0aeb5f4&SESSION_ID=691fbe67e787f1998c73188d","survey-text",47,1098986,"0.0-361.0","GDpVsq8RW2TFubnHHznsrUevT8iaEp0TrEFN4CIR1xTOSw30fTXZcV9P46cWrtsxjh9BYE/rgJruYMqzZar2pw//YhcOc8cSmKVIZ4opPZkTKKov8nKpaZB+k6gZ9oLKBJHsnT4Dm5pc0JHj+/HlRpDnxC2t4lzJ+YbzV9CpB3sTXhXwHNXOeDJeMww27B3l9H0PPXH5UOH9qIaLyQwED9P7I31upPesMeQhOUtZQ6hm2S62J+FLg0/eXZEdHudY89M8IEz7NL7ltAjzyUXOqQyInw++yJuEZOHjSO37PS5P0nwmxkhdDFgqwwue8SZTQUQkpBVTmyU34SVZV8LgVg==","691f8ca61c6b4dcbb0aeb5f4","691fbe67e787f1998c73188d","index1","<span style='color:red'>Fail,<span style='color:red'>Fail,<span style='color:green'>Lift,<span style='color:green'>Lift,<span style='color:red'>Fail,<span style='color:red'>Fail,<span style='color:red'>Fail,<span style='color:red'>Fail,<span style='color:red'>Fail,<span style='color:green'>Lift,<span style='color:red'>Fail,<span style='color:green'>Lift","<span style='color:red'>Fail,<span style='color:red'>Fail,<span style='color:green'>Lift,<span style='color:green'>Lift,<span style='color:green'>Lift,<span style='color:green'>Lift,<span style='color:green'>Lift,<span style='color:red'>Fail,<span style='color:green'>Lift,<span style='color:green'>Lift,<span style='color:red'>Fail,<span style='color:green'>Lift","<span style='color:red'>Fail,<span style='color:green'>Lift,<span style='color:green'>Lift,<span style='color:red'>Fail,<span style='color:green'>Lift,<span style='color:green'>Lift","0,0,1,1,0,0,0,0,0,1,0,1","0,0,1,1,1,1,1,0,1,1,0,1","0,1,1,0,1,1",10,20,20,"","","","","{""Q0"":""I was to estimate the likelihood of the contestants being able to lift the boxes. I would also be asked to estimate the strength of the contestants and the amount of effort they likely put in to lifting the boxes.""}","",NA,NA,"",NA,NA,NA,NA,NA,NA,NA,NA,NA,NA,NA,NA,NA,NA,NA,NA,NA,NA,NA,NA,NA,NA,NA,NA,NA,NA,NA,NA,NA,NA,NA,NA,NA,NA,NA,NA,NA,NA,NA,"",NA,NA,NA,NA,NA,NA,NA,NA,2025-11-21 01:40:01
"41204","https://psyc-201.github.io/xiang2023/exp/index1.html?PROLIFIC_PID=REDACTED&STUDY_ID=691f8ca61c6b4dcbb0aeb5f4&SESSION_ID=691fbe67e787f1998c73188d","survey-text",48,1140192,"0.0-362.0","GDpVsq8RW2TFubnHHznsrUevT8iaEp0TrEFN4CIR1xTOSw30fTXZcV9P46cWrtsxjh9BYE/rgJruYMqzZar2pw//YhcOc8cSmKVIZ4opPZkTKKov8nKpaZB+k6gZ9oLKBJHsnT4Dm5pc0JHj+/HlRpDnxC2t4lzJ+YbzV9CpB3sTXhXwHNXOeDJeMww27B3l9H0PPXH5UOH9qIaLyQwED9P7I31upPesMeQhOUtZQ6hm2S62J+FLg0/eXZEdHudY89M8IEz7NL7ltAjzyUXOqQyInw++yJuEZOHjSO37PS5P0nwmxkhdDFgqwwue8SZTQUQkpBVTmyU34SVZV8LgVg==","691f8ca61c6b4dcbb0aeb5f4","691fbe67e787f1998c73188d","index1","<span style='color:red'>Fail,<span style='color:red'>Fail,<span style='color:green'>Lift,<span style='color:green'>Lift,<span style='color:red'>Fail,<span style='color:red'>Fail,<span style='color:red'>Fail,<span style='color:red'>Fail,<span style='color:red'>Fail,<span style='color:green'>Lift,<span style='color:red'>Fail,<span style='color:green'>Lift","<span style='color:red'>Fail,<span style='color:red'>Fail,<span style='color:green'>Lift,<span style='color:green'>Lift,<span style='color:green'>Lift,<span style='color:green'>Lift,<span style='color:green'>Lift,<span style='color:red'>Fail,<span style='color:green'>Lift,<span style='color:green'>Lift,<span style='color:red'>Fail,<span style='color:green'>Lift","<span style='color:red'>Fail,<span style='color:green'>Lift,<span style='color:green'>Lift,<span style='color:red'>Fail,<span style='color:green'>Lift,<span style='color:green'>Lift","0,0,1,1,0,0,0,0,0,1,0,1","0,0,1,1,1,1,1,0,1,1,0,1","0,1,1,0,1,1",10,20,20,"","","","","{""Q0"":""I thought the information was quite clear. I appreciate the opportunity to help with this study.""}","",NA,NA,"",NA,NA,NA,NA,NA,NA,NA,NA,NA,NA,NA,NA,NA,NA,NA,NA,NA,NA,NA,NA,NA,NA,NA,NA,NA,NA,NA,NA,NA,NA,NA,NA,NA,NA,NA,NA,NA,NA,NA,"[{""event"":""fullscreenenter"",""trial"":1,""time"":42367}]",3,2,0,80,0,0.2,NA,NA,2025-11-21 01:40:01
"10114","https://psyc-201.github.io/xiang2023/exp/index1.html?PROLIFIC_PID=REDACTED&STUDY_ID=691f8ca61c6b4dcbb0aeb5f4&SESSION_ID=691fbe67e787f1998c73188d","html-button-response",49,1150308,"0.0-363.0","GDpVsq8RW2TFubnHHznsrUevT8iaEp0TrEFN4CIR1xTOSw30fTXZcV9P46cWrtsxjh9BYE/rgJruYMqzZar2pw//YhcOc8cSmKVIZ4opPZkTKKov8nKpaZB+k6gZ9oLKBJHsnT4Dm5pc0JHj+/HlRpDnxC2t4lzJ+YbzV9CpB3sTXhXwHNXOeDJeMww27B3l9H0PPXH5UOH9qIaLyQwED9P7I31upPesMeQhOUtZQ6hm2S62J+FLg0/eXZEdHudY89M8IEz7NL7ltAjzyUXOqQyInw++yJuEZOHjSO37PS5P0nwmxkhdDFgqwwue8SZTQUQkpBVTmyU34SVZV8LgVg==","691f8ca61c6b4dcbb0aeb5f4","691fbe67e787f1998c73188d","index1","<span style='color:red'>Fail,<span style='color:red'>Fail,<span style='color:green'>Lift,<span style='color:green'>Lift,<span style='color:red'>Fail,<span style='color:red'>Fail,<span style='color:red'>Fail,<span style='color:red'>Fail,<span style='color:red'>Fail,<span style='color:green'>Lift,<span style='color:red'>Fail,<span style='color:green'>Lift","<span style='color:red'>Fail,<span style='color:red'>Fail,<span style='color:green'>Lift,<span style='color:green'>Lift,<span style='color:green'>Lift,<span style='color:green'>Lift,<span style='color:green'>Lift,<span style='color:red'>Fail,<span style='color:green'>Lift,<span style='color:green'>Lift,<span style='color:red'>Fail,<span style='color:green'>Lift","<span style='color:red'>Fail,<span style='color:green'>Lift,<span style='color:green'>Lift,<span style='color:red'>Fail,<span style='color:green'>Lift,<span style='color:green'>Lift","0,0,1,1,0,0,0,0,0,1,0,1","0,0,1,1,1,1,1,0,1,1,0,1","0,1,1,0,1,1",10,20,20,"","","<p> We randomly picked <b>Contest 3, Round 2</b> to calculate your bonus. </p><p> The outcome of Contestant E on that round is <span style='color:red'>Fail</span>. </p><p> The probability you entered was 80. </p><p><b> You won a bonus of $0.20!</b></p><p> IMPORTANT: Please click 'Next' to complete the game.</p>","","","",0,NA,"",NA,NA,NA,NA,NA,NA,NA,NA,NA,NA,NA,NA,NA,NA,NA,NA,NA,NA,NA,NA,NA,NA,NA,NA,NA,NA,NA,NA,NA,NA,NA,NA,NA,NA,NA,NA,NA,NA,NA,"",NA,NA,NA,NA,NA,NA,2,1,2025-11-21 01:40:01
