"rt","url","trial_type","trial_index","time_elapsed","internal_node_id","encryptedProlificId","studyId","sessionId","expIndex","round1_outcomes","round2_outcomes","round3_outcomes","round1_o","round2_o","round3_o","round1_reward","round2_reward","round3_reward","success","view_history","stimulus","key_press","responses","question_order","j","Stage","stage","contest","round","strength_a","strength_b","effort_a","effort_b","outcome_a","outcome_b","reward","r1_strength_a","r1_strength_b","r1_effort_a","r1_effort_b","r1_outcome_a","r1_outcome_b","r1_reward","probability_a","probability_b","r2_prob_a","r2_prob_b","r2_strength_a","r2_strength_b","r2_effort_a","r2_effort_b","r2_outcome_a","r2_outcome_b","r2_reward","r3_prob_a","r3_prob_b","r3_strength_a","r3_strength_b","r3_effort_a","r3_effort_b","r3_outcome_a","r3_outcome_b","r3_reward","attention_check","count","screen","pick_contest","pick_round","pick_side","trial_probability","trial_outcome","bonus","button_pressed","attention_sum","attention","datapipe_meta.attributes.date_modified"
"3711.9000000059605","https://psyc-201.github.io/xiang2023/exp/index1.html?PROLIFIC_PID=REDACTED&STUDY_ID=691f8ca61c6b4dcbb0aeb5f4&SESSION_ID=691f9710cba5372b382fe2cc","external-html",0,3768,"0.0-0.0","QGfAw+bPUydOAKkzEx99ZHcnyQLfjkRwaUyObWD/grQ31oZlYGmXSpCGyqfV3rw2VYz/IvcD1kFzdOUEq4EdFMm7hQyEKMWUy+QwWUlYw6Hzu/2klX1p6yP93oNAGPJMjumLoAd/gT/7LICfeVPutMSENO6zmYyN9oW7gFZoHNRaS4DS82aQ+W2A3fBsDzxwBzeHZm8+gwdNGaDENcaac7u9kjdfO27a/hPQqTZMZkz907sUyne/O3Mn9GdUsv3tNXhRl48zjqJp8wBJSV2GJcgCJAG5QOljz+Q7bxgC/VW2n5oeOvtxNovvkIiHEoCer2M2GVHLkDF7Hi3Q2yB8cg==","691f8ca61c6b4dcbb0aeb5f4","691f9710cba5372b382fe2cc","index1","<span style='color:red'>Fail,<span style='color:red'>Fail,<span style='color:green'>Lift,<span style='color:green'>Lift,<span style='color:red'>Fail,<span style='color:red'>Fail,<span style='color:red'>Fail,<span style='color:red'>Fail,<span style='color:green'>Lift,<span style='color:red'>Fail,<span style='color:red'>Fail,<span style='color:green'>Lift","<span style='color:red'>Fail,<span style='color:red'>Fail,<span style='color:green'>Lift,<span style='color:green'>Lift,<span style='color:green'>Lift,<span style='color:green'>Lift,<span style='color:green'>Lift,<span style='color:red'>Fail,<span style='color:green'>Lift,<span style='color:green'>Lift,<span style='color:red'>Fail,<span style='color:green'>Lift","<span style='color:red'>Fail,<span style='color:green'>Lift,<span style='color:green'>Lift,<span style='color:red'>Fail,<span style='color:green'>Lift,<span style='color:green'>Lift","0,0,1,1,0,0,0,0,1,0,0,1","0,0,1,1,1,1,1,0,1,1,0,1","0,1,1,0,1,1",10,20,20,"","","","","","",NA,"",NA,NA,NA,NA,NA,NA,NA,NA,NA,NA,NA,NA,NA,NA,NA,NA,NA,NA,NA,NA,NA,NA,NA,NA,NA,NA,NA,NA,NA,NA,NA,NA,NA,NA,NA,NA,NA,NA,NA,"",NA,NA,NA,NA,NA,NA,NA,NA,NA,2025-11-20 23:05:54
"","https://psyc-201.github.io/xiang2023/exp/index1.html?PROLIFIC_PID=REDACTED&STUDY_ID=691f8ca61c6b4dcbb0aeb5f4&SESSION_ID=691f9710cba5372b382fe2cc","fullscreen",1,5987,"0.0-1.0","QGfAw+bPUydOAKkzEx99ZHcnyQLfjkRwaUyObWD/grQ31oZlYGmXSpCGyqfV3rw2VYz/IvcD1kFzdOUEq4EdFMm7hQyEKMWUy+QwWUlYw6Hzu/2klX1p6yP93oNAGPJMjumLoAd/gT/7LICfeVPutMSENO6zmYyN9oW7gFZoHNRaS4DS82aQ+W2A3fBsDzxwBzeHZm8+gwdNGaDENcaac7u9kjdfO27a/hPQqTZMZkz907sUyne/O3Mn9GdUsv3tNXhRl48zjqJp8wBJSV2GJcgCJAG5QOljz+Q7bxgC/VW2n5oeOvtxNovvkIiHEoCer2M2GVHLkDF7Hi3Q2yB8cg==","691f8ca61c6b4dcbb0aeb5f4","691f9710cba5372b382fe2cc","index1","<span style='color:red'>Fail,<span style='color:red'>Fail,<span style='color:green'>Lift,<span style='color:green'>Lift,<span style='color:red'>Fail,<span style='color:red'>Fail,<span style='color:red'>Fail,<span style='color:red'>Fail,<span style='color:green'>Lift,<span style='color:red'>Fail,<span style='color:red'>Fail,<span style='color:green'>Lift","<span style='color:red'>Fail,<span style='color:red'>Fail,<span style='color:green'>Lift,<span style='color:green'>Lift,<span style='color:green'>Lift,<span style='color:green'>Lift,<span style='color:green'>Lift,<span style='color:red'>Fail,<span style='color:green'>Lift,<span style='color:green'>Lift,<span style='color:red'>Fail,<span style='color:green'>Lift","<span style='color:red'>Fail,<span style='color:green'>Lift,<span style='color:green'>Lift,<span style='color:red'>Fail,<span style='color:green'>Lift,<span style='color:green'>Lift","0,0,1,1,0,0,0,0,1,0,0,1","0,0,1,1,1,1,1,0,1,1,0,1","0,1,1,0,1,1",10,20,20,"true","","","","","",NA,"",NA,NA,NA,NA,NA,NA,NA,NA,NA,NA,NA,NA,NA,NA,NA,NA,NA,NA,NA,NA,NA,NA,NA,NA,NA,NA,NA,NA,NA,NA,NA,NA,NA,NA,NA,NA,NA,NA,NA,"",NA,NA,NA,NA,NA,NA,NA,NA,NA,2025-11-20 23:05:54
"47593.20000001788","https://psyc-201.github.io/xiang2023/exp/index1.html?PROLIFIC_PID=REDACTED&STUDY_ID=691f8ca61c6b4dcbb0aeb5f4&SESSION_ID=691f9710cba5372b382fe2cc","instructions",2,53581,"0.0-2.0","QGfAw+bPUydOAKkzEx99ZHcnyQLfjkRwaUyObWD/grQ31oZlYGmXSpCGyqfV3rw2VYz/IvcD1kFzdOUEq4EdFMm7hQyEKMWUy+QwWUlYw6Hzu/2klX1p6yP93oNAGPJMjumLoAd/gT/7LICfeVPutMSENO6zmYyN9oW7gFZoHNRaS4DS82aQ+W2A3fBsDzxwBzeHZm8+gwdNGaDENcaac7u9kjdfO27a/hPQqTZMZkz907sUyne/O3Mn9GdUsv3tNXhRl48zjqJp8wBJSV2GJcgCJAG5QOljz+Q7bxgC/VW2n5oeOvtxNovvkIiHEoCer2M2GVHLkDF7Hi3Q2yB8cg==","691f8ca61c6b4dcbb0aeb5f4","691f9710cba5372b382fe2cc","index1","<span style='color:red'>Fail,<span style='color:red'>Fail,<span style='color:green'>Lift,<span style='color:green'>Lift,<span style='color:red'>Fail,<span style='color:red'>Fail,<span style='color:red'>Fail,<span style='color:red'>Fail,<span style='color:green'>Lift,<span style='color:red'>Fail,<span style='color:red'>Fail,<span style='color:green'>Lift","<span style='color:red'>Fail,<span style='color:red'>Fail,<span style='color:green'>Lift,<span style='color:green'>Lift,<span style='color:green'>Lift,<span style='color:green'>Lift,<span style='color:green'>Lift,<span style='color:red'>Fail,<span style='color:green'>Lift,<span style='color:green'>Lift,<span style='color:red'>Fail,<span style='color:green'>Lift","<span style='color:red'>Fail,<span style='color:green'>Lift,<span style='color:green'>Lift,<span style='color:red'>Fail,<span style='color:green'>Lift,<span style='color:green'>Lift","0,0,1,1,0,0,0,0,1,0,0,1","0,0,1,1,1,1,1,0,1,1,0,1","0,1,1,0,1,1",10,20,20,"","[{""page_index"":0,""viewing_time"":11083.700000017881},{""page_index"":1,""viewing_time"":5004},{""page_index"":2,""viewing_time"":8041.199999988079},{""page_index"":3,""viewing_time"":6659.4000000059605},{""page_index"":4,""viewing_time"":8512.09999999404},{""page_index"":5,""viewing_time"":6925.5},{""page_index"":6,""viewing_time"":1367}]","","","","",NA,"",NA,NA,NA,NA,NA,NA,NA,NA,NA,NA,NA,NA,NA,NA,NA,NA,NA,NA,NA,NA,NA,NA,NA,NA,NA,NA,NA,NA,NA,NA,NA,NA,NA,NA,NA,NA,NA,NA,NA,"",NA,NA,NA,NA,NA,NA,NA,NA,NA,2025-11-20 23:05:54
"null","https://psyc-201.github.io/xiang2023/exp/index1.html?PROLIFIC_PID=REDACTED&STUDY_ID=691f8ca61c6b4dcbb0aeb5f4&SESSION_ID=691f9710cba5372b382fe2cc","html-keyboard-response",3,54584,"0.0-3.0","QGfAw+bPUydOAKkzEx99ZHcnyQLfjkRwaUyObWD/grQ31oZlYGmXSpCGyqfV3rw2VYz/IvcD1kFzdOUEq4EdFMm7hQyEKMWUy+QwWUlYw6Hzu/2klX1p6yP93oNAGPJMjumLoAd/gT/7LICfeVPutMSENO6zmYyN9oW7gFZoHNRaS4DS82aQ+W2A3fBsDzxwBzeHZm8+gwdNGaDENcaac7u9kjdfO27a/hPQqTZMZkz907sUyne/O3Mn9GdUsv3tNXhRl48zjqJp8wBJSV2GJcgCJAG5QOljz+Q7bxgC/VW2n5oeOvtxNovvkIiHEoCer2M2GVHLkDF7Hi3Q2yB8cg==","691f8ca61c6b4dcbb0aeb5f4","691f9710cba5372b382fe2cc","index1","<span style='color:red'>Fail,<span style='color:red'>Fail,<span style='color:green'>Lift,<span style='color:green'>Lift,<span style='color:red'>Fail,<span style='color:red'>Fail,<span style='color:red'>Fail,<span style='color:red'>Fail,<span style='color:green'>Lift,<span style='color:red'>Fail,<span style='color:red'>Fail,<span style='color:green'>Lift","<span style='color:red'>Fail,<span style='color:red'>Fail,<span style='color:green'>Lift,<span style='color:green'>Lift,<span style='color:green'>Lift,<span style='color:green'>Lift,<span style='color:green'>Lift,<span style='color:red'>Fail,<span style='color:green'>Lift,<span style='color:green'>Lift,<span style='color:red'>Fail,<span style='color:green'>Lift","<span style='color:red'>Fail,<span style='color:green'>Lift,<span style='color:green'>Lift,<span style='color:red'>Fail,<span style='color:green'>Lift,<span style='color:green'>Lift","0,0,1,1,0,0,0,0,1,0,0,1","0,0,1,1,1,1,1,0,1,1,0,1","0,1,1,0,1,1",10,20,20,"",""," ","null","","",NA,"",NA,NA,NA,NA,NA,NA,NA,NA,NA,NA,NA,NA,NA,NA,NA,NA,NA,NA,NA,NA,NA,NA,NA,NA,NA,NA,NA,NA,NA,NA,NA,NA,NA,NA,NA,NA,NA,NA,NA,"",NA,NA,NA,NA,NA,NA,NA,NA,NA,2025-11-20 23:05:54
"17924","https://psyc-201.github.io/xiang2023/exp/index1.html?PROLIFIC_PID=REDACTED&STUDY_ID=691f8ca61c6b4dcbb0aeb5f4&SESSION_ID=691f9710cba5372b382fe2cc","survey-multi-choice",4,72509,"0.0-4.0","QGfAw+bPUydOAKkzEx99ZHcnyQLfjkRwaUyObWD/grQ31oZlYGmXSpCGyqfV3rw2VYz/IvcD1kFzdOUEq4EdFMm7hQyEKMWUy+QwWUlYw6Hzu/2klX1p6yP93oNAGPJMjumLoAd/gT/7LICfeVPutMSENO6zmYyN9oW7gFZoHNRaS4DS82aQ+W2A3fBsDzxwBzeHZm8+gwdNGaDENcaac7u9kjdfO27a/hPQqTZMZkz907sUyne/O3Mn9GdUsv3tNXhRl48zjqJp8wBJSV2GJcgCJAG5QOljz+Q7bxgC/VW2n5oeOvtxNovvkIiHEoCer2M2GVHLkDF7Hi3Q2yB8cg==","691f8ca61c6b4dcbb0aeb5f4","691f9710cba5372b382fe2cc","index1","<span style='color:red'>Fail,<span style='color:red'>Fail,<span style='color:green'>Lift,<span style='color:green'>Lift,<span style='color:red'>Fail,<span style='color:red'>Fail,<span style='color:red'>Fail,<span style='color:red'>Fail,<span style='color:green'>Lift,<span style='color:red'>Fail,<span style='color:red'>Fail,<span style='color:green'>Lift","<span style='color:red'>Fail,<span style='color:red'>Fail,<span style='color:green'>Lift,<span style='color:green'>Lift,<span style='color:green'>Lift,<span style='color:green'>Lift,<span style='color:green'>Lift,<span style='color:red'>Fail,<span style='color:green'>Lift,<span style='color:green'>Lift,<span style='color:red'>Fail,<span style='color:green'>Lift","<span style='color:red'>Fail,<span style='color:green'>Lift,<span style='color:green'>Lift,<span style='color:red'>Fail,<span style='color:green'>Lift,<span style='color:green'>Lift","0,0,1,1,0,0,0,0,1,0,0,1","0,0,1,1,1,1,1,0,1,1,0,1","0,1,1,0,1,1",10,20,20,"","","","","{""Q0"":""It consists of multiple contests, each contest with three rounds."",""Q1"":""When a new contest begins."",""Q2"":""The box weight always stays the same (equivalent to strength of 5)."",""Q3"":""Each will get $20."",""Q4"":""How close my guesses are to the actual outcome.""}","[0,1,2,3,4]",NA,"",NA,NA,NA,NA,NA,NA,NA,NA,NA,NA,NA,NA,NA,NA,NA,NA,NA,NA,NA,NA,NA,NA,NA,NA,NA,NA,NA,NA,NA,NA,NA,NA,NA,NA,NA,NA,NA,NA,NA,"",NA,NA,NA,NA,NA,NA,NA,NA,NA,2025-11-20 23:05:54
"12819","https://psyc-201.github.io/xiang2023/exp/index1.html?PROLIFIC_PID=REDACTED&STUDY_ID=691f8ca61c6b4dcbb0aeb5f4&SESSION_ID=691f9710cba5372b382fe2cc","instructions",5,85331,"0.0-305.0","QGfAw+bPUydOAKkzEx99ZHcnyQLfjkRwaUyObWD/grQ31oZlYGmXSpCGyqfV3rw2VYz/IvcD1kFzdOUEq4EdFMm7hQyEKMWUy+QwWUlYw6Hzu/2klX1p6yP93oNAGPJMjumLoAd/gT/7LICfeVPutMSENO6zmYyN9oW7gFZoHNRaS4DS82aQ+W2A3fBsDzxwBzeHZm8+gwdNGaDENcaac7u9kjdfO27a/hPQqTZMZkz907sUyne/O3Mn9GdUsv3tNXhRl48zjqJp8wBJSV2GJcgCJAG5QOljz+Q7bxgC/VW2n5oeOvtxNovvkIiHEoCer2M2GVHLkDF7Hi3Q2yB8cg==","691f8ca61c6b4dcbb0aeb5f4","691f9710cba5372b382fe2cc","index1","<span style='color:red'>Fail,<span style='color:red'>Fail,<span style='color:green'>Lift,<span style='color:green'>Lift,<span style='color:red'>Fail,<span style='color:red'>Fail,<span style='color:red'>Fail,<span style='color:red'>Fail,<span style='color:green'>Lift,<span style='color:red'>Fail,<span style='color:red'>Fail,<span style='color:green'>Lift","<span style='color:red'>Fail,<span style='color:red'>Fail,<span style='color:green'>Lift,<span style='color:green'>Lift,<span style='color:green'>Lift,<span style='color:green'>Lift,<span style='color:green'>Lift,<span style='color:red'>Fail,<span style='color:green'>Lift,<span style='color:green'>Lift,<span style='color:red'>Fail,<span style='color:green'>Lift","<span style='color:red'>Fail,<span style='color:green'>Lift,<span style='color:green'>Lift,<span style='color:red'>Fail,<span style='color:green'>Lift,<span style='color:green'>Lift","0,0,1,1,0,0,0,0,1,0,0,1","0,0,1,1,1,1,1,0,1,1,0,1","0,1,1,0,1,1",10,20,20,"","[{""page_index"":0,""viewing_time"":8175.5},{""page_index"":1,""viewing_time"":4643.299999982119}]","","","","",NA,"",NA,NA,NA,NA,NA,NA,NA,NA,NA,NA,NA,NA,NA,NA,NA,NA,NA,NA,NA,NA,NA,NA,NA,NA,NA,NA,NA,NA,NA,NA,NA,NA,NA,NA,NA,NA,NA,NA,NA,"",NA,NA,NA,NA,NA,NA,NA,NA,NA,2025-11-20 23:05:54
"null","https://psyc-201.github.io/xiang2023/exp/index1.html?PROLIFIC_PID=REDACTED&STUDY_ID=691f8ca61c6b4dcbb0aeb5f4&SESSION_ID=691f9710cba5372b382fe2cc","html-keyboard-response",6,86333,"0.0-306.0","QGfAw+bPUydOAKkzEx99ZHcnyQLfjkRwaUyObWD/grQ31oZlYGmXSpCGyqfV3rw2VYz/IvcD1kFzdOUEq4EdFMm7hQyEKMWUy+QwWUlYw6Hzu/2klX1p6yP93oNAGPJMjumLoAd/gT/7LICfeVPutMSENO6zmYyN9oW7gFZoHNRaS4DS82aQ+W2A3fBsDzxwBzeHZm8+gwdNGaDENcaac7u9kjdfO27a/hPQqTZMZkz907sUyne/O3Mn9GdUsv3tNXhRl48zjqJp8wBJSV2GJcgCJAG5QOljz+Q7bxgC/VW2n5oeOvtxNovvkIiHEoCer2M2GVHLkDF7Hi3Q2yB8cg==","691f8ca61c6b4dcbb0aeb5f4","691f9710cba5372b382fe2cc","index1","<span style='color:red'>Fail,<span style='color:red'>Fail,<span style='color:green'>Lift,<span style='color:green'>Lift,<span style='color:red'>Fail,<span style='color:red'>Fail,<span style='color:red'>Fail,<span style='color:red'>Fail,<span style='color:green'>Lift,<span style='color:red'>Fail,<span style='color:red'>Fail,<span style='color:green'>Lift","<span style='color:red'>Fail,<span style='color:red'>Fail,<span style='color:green'>Lift,<span style='color:green'>Lift,<span style='color:green'>Lift,<span style='color:green'>Lift,<span style='color:green'>Lift,<span style='color:red'>Fail,<span style='color:green'>Lift,<span style='color:green'>Lift,<span style='color:red'>Fail,<span style='color:green'>Lift","<span style='color:red'>Fail,<span style='color:green'>Lift,<span style='color:green'>Lift,<span style='color:red'>Fail,<span style='color:green'>Lift,<span style='color:green'>Lift","0,0,1,1,0,0,0,0,1,0,0,1","0,0,1,1,1,1,1,0,1,1,0,1","0,1,1,0,1,1",10,20,20,"",""," ","null","","",1,"",NA,NA,NA,NA,NA,NA,NA,NA,NA,NA,NA,NA,NA,NA,NA,NA,NA,NA,NA,NA,NA,NA,NA,NA,NA,NA,NA,NA,NA,NA,NA,NA,NA,NA,NA,NA,NA,NA,NA,"",NA,NA,NA,NA,NA,NA,NA,NA,NA,2025-11-20 23:05:54
"null","https://psyc-201.github.io/xiang2023/exp/index1.html?PROLIFIC_PID=REDACTED&STUDY_ID=691f8ca61c6b4dcbb0aeb5f4&SESSION_ID=691f9710cba5372b382fe2cc","html-keyboard-response",7,89335,"0.0-307.0","QGfAw+bPUydOAKkzEx99ZHcnyQLfjkRwaUyObWD/grQ31oZlYGmXSpCGyqfV3rw2VYz/IvcD1kFzdOUEq4EdFMm7hQyEKMWUy+QwWUlYw6Hzu/2klX1p6yP93oNAGPJMjumLoAd/gT/7LICfeVPutMSENO6zmYyN9oW7gFZoHNRaS4DS82aQ+W2A3fBsDzxwBzeHZm8+gwdNGaDENcaac7u9kjdfO27a/hPQqTZMZkz907sUyne/O3Mn9GdUsv3tNXhRl48zjqJp8wBJSV2GJcgCJAG5QOljz+Q7bxgC/VW2n5oeOvtxNovvkIiHEoCer2M2GVHLkDF7Hi3Q2yB8cg==","691f8ca61c6b4dcbb0aeb5f4","691f9710cba5372b382fe2cc","index1","<span style='color:red'>Fail,<span style='color:red'>Fail,<span style='color:green'>Lift,<span style='color:green'>Lift,<span style='color:red'>Fail,<span style='color:red'>Fail,<span style='color:red'>Fail,<span style='color:red'>Fail,<span style='color:green'>Lift,<span style='color:red'>Fail,<span style='color:red'>Fail,<span style='color:green'>Lift","<span style='color:red'>Fail,<span style='color:red'>Fail,<span style='color:green'>Lift,<span style='color:green'>Lift,<span style='color:green'>Lift,<span style='color:green'>Lift,<span style='color:green'>Lift,<span style='color:red'>Fail,<span style='color:green'>Lift,<span style='color:green'>Lift,<span style='color:red'>Fail,<span style='color:green'>Lift","<span style='color:red'>Fail,<span style='color:green'>Lift,<span style='color:green'>Lift,<span style='color:red'>Fail,<span style='color:green'>Lift,<span style='color:green'>Lift","0,0,1,1,0,0,0,0,1,0,0,1","0,0,1,1,1,1,1,0,1,1,0,1","0,1,1,0,1,1",10,20,20,"","","<p style='font-size:30px'><b> New Contest! </b></p>","null","","",1,"",NA,NA,NA,NA,NA,NA,NA,NA,NA,NA,NA,NA,NA,NA,NA,NA,NA,NA,NA,NA,NA,NA,NA,NA,NA,NA,NA,NA,NA,NA,NA,NA,NA,NA,NA,NA,NA,NA,NA,"",NA,NA,NA,NA,NA,NA,NA,NA,NA,2025-11-20 23:05:54
"30577.59999999404","https://psyc-201.github.io/xiang2023/exp/index1.html?PROLIFIC_PID=REDACTED&STUDY_ID=691f8ca61c6b4dcbb0aeb5f4&SESSION_ID=691f9710cba5372b382fe2cc","survey-html-form",8,119914,"0.0-308.0","QGfAw+bPUydOAKkzEx99ZHcnyQLfjkRwaUyObWD/grQ31oZlYGmXSpCGyqfV3rw2VYz/IvcD1kFzdOUEq4EdFMm7hQyEKMWUy+QwWUlYw6Hzu/2klX1p6yP93oNAGPJMjumLoAd/gT/7LICfeVPutMSENO6zmYyN9oW7gFZoHNRaS4DS82aQ+W2A3fBsDzxwBzeHZm8+gwdNGaDENcaac7u9kjdfO27a/hPQqTZMZkz907sUyne/O3Mn9GdUsv3tNXhRl48zjqJp8wBJSV2GJcgCJAG5QOljz+Q7bxgC/VW2n5oeOvtxNovvkIiHEoCer2M2GVHLkDF7Hi3Q2yB8cg==","691f8ca61c6b4dcbb0aeb5f4","691f9710cba5372b382fe2cc","index1","<span style='color:red'>Fail,<span style='color:red'>Fail,<span style='color:green'>Lift,<span style='color:green'>Lift,<span style='color:red'>Fail,<span style='color:red'>Fail,<span style='color:red'>Fail,<span style='color:red'>Fail,<span style='color:green'>Lift,<span style='color:red'>Fail,<span style='color:red'>Fail,<span style='color:green'>Lift","<span style='color:red'>Fail,<span style='color:red'>Fail,<span style='color:green'>Lift,<span style='color:green'>Lift,<span style='color:green'>Lift,<span style='color:green'>Lift,<span style='color:green'>Lift,<span style='color:red'>Fail,<span style='color:green'>Lift,<span style='color:green'>Lift,<span style='color:red'>Fail,<span style='color:green'>Lift","<span style='color:red'>Fail,<span style='color:green'>Lift,<span style='color:green'>Lift,<span style='color:red'>Fail,<span style='color:green'>Lift,<span style='color:green'>Lift","0,0,1,1,0,0,0,0,1,0,0,1","0,0,1,1,1,1,1,0,1,1,0,1","0,1,1,0,1,1",10,20,20,"","","","","{""box1"":""5"",""box2"":""5"",""box4"":""50""}","",1,"round1_outcome",1,1,1,5,5,NA,50,0,1,10,5,5,NA,50,0,1,10,NA,NA,NA,NA,NA,NA,NA,NA,NA,NA,NA,NA,NA,NA,NA,NA,NA,NA,NA,NA,NA,NA,"",NA,NA,NA,NA,NA,NA,NA,NA,NA,2025-11-20 23:05:54
"14231.59999999404","https://psyc-201.github.io/xiang2023/exp/index1.html?PROLIFIC_PID=REDACTED&STUDY_ID=691f8ca61c6b4dcbb0aeb5f4&SESSION_ID=691f9710cba5372b382fe2cc","survey-html-form",9,134147,"0.0-309.0","QGfAw+bPUydOAKkzEx99ZHcnyQLfjkRwaUyObWD/grQ31oZlYGmXSpCGyqfV3rw2VYz/IvcD1kFzdOUEq4EdFMm7hQyEKMWUy+QwWUlYw6Hzu/2klX1p6yP93oNAGPJMjumLoAd/gT/7LICfeVPutMSENO6zmYyN9oW7gFZoHNRaS4DS82aQ+W2A3fBsDzxwBzeHZm8+gwdNGaDENcaac7u9kjdfO27a/hPQqTZMZkz907sUyne/O3Mn9GdUsv3tNXhRl48zjqJp8wBJSV2GJcgCJAG5QOljz+Q7bxgC/VW2n5oeOvtxNovvkIiHEoCer2M2GVHLkDF7Hi3Q2yB8cg==","691f8ca61c6b4dcbb0aeb5f4","691f9710cba5372b382fe2cc","index1","<span style='color:red'>Fail,<span style='color:red'>Fail,<span style='color:green'>Lift,<span style='color:green'>Lift,<span style='color:red'>Fail,<span style='color:red'>Fail,<span style='color:red'>Fail,<span style='color:red'>Fail,<span style='color:green'>Lift,<span style='color:red'>Fail,<span style='color:red'>Fail,<span style='color:green'>Lift","<span style='color:red'>Fail,<span style='color:red'>Fail,<span style='color:green'>Lift,<span style='color:green'>Lift,<span style='color:green'>Lift,<span style='color:green'>Lift,<span style='color:green'>Lift,<span style='color:red'>Fail,<span style='color:green'>Lift,<span style='color:green'>Lift,<span style='color:red'>Fail,<span style='color:green'>Lift","<span style='color:red'>Fail,<span style='color:green'>Lift,<span style='color:green'>Lift,<span style='color:red'>Fail,<span style='color:green'>Lift,<span style='color:green'>Lift","0,0,1,1,0,0,0,0,1,0,0,1","0,0,1,1,1,1,1,0,1,1,0,1","0,1,1,0,1,1",10,20,20,"","","","","{""box1"":""25"",""box2"":""75""}","",1,"round2_ready",2,1,2,NA,NA,NA,NA,NA,NA,NA,NA,NA,NA,NA,NA,NA,NA,25,75,25,75,NA,NA,NA,NA,NA,NA,NA,NA,NA,NA,NA,NA,NA,NA,NA,NA,NA,NA,"",NA,NA,NA,NA,NA,NA,NA,NA,NA,2025-11-20 23:05:54
"25980.5","https://psyc-201.github.io/xiang2023/exp/index1.html?PROLIFIC_PID=REDACTED&STUDY_ID=691f8ca61c6b4dcbb0aeb5f4&SESSION_ID=691f9710cba5372b382fe2cc","survey-html-form",10,160129,"0.0-310.0","QGfAw+bPUydOAKkzEx99ZHcnyQLfjkRwaUyObWD/grQ31oZlYGmXSpCGyqfV3rw2VYz/IvcD1kFzdOUEq4EdFMm7hQyEKMWUy+QwWUlYw6Hzu/2klX1p6yP93oNAGPJMjumLoAd/gT/7LICfeVPutMSENO6zmYyN9oW7gFZoHNRaS4DS82aQ+W2A3fBsDzxwBzeHZm8+gwdNGaDENcaac7u9kjdfO27a/hPQqTZMZkz907sUyne/O3Mn9GdUsv3tNXhRl48zjqJp8wBJSV2GJcgCJAG5QOljz+Q7bxgC/VW2n5oeOvtxNovvkIiHEoCer2M2GVHLkDF7Hi3Q2yB8cg==","691f8ca61c6b4dcbb0aeb5f4","691f9710cba5372b382fe2cc","index1","<span style='color:red'>Fail,<span style='color:red'>Fail,<span style='color:green'>Lift,<span style='color:green'>Lift,<span style='color:red'>Fail,<span style='color:red'>Fail,<span style='color:red'>Fail,<span style='color:red'>Fail,<span style='color:green'>Lift,<span style='color:red'>Fail,<span style='color:red'>Fail,<span style='color:green'>Lift","<span style='color:red'>Fail,<span style='color:red'>Fail,<span style='color:green'>Lift,<span style='color:green'>Lift,<span style='color:green'>Lift,<span style='color:green'>Lift,<span style='color:green'>Lift,<span style='color:red'>Fail,<span style='color:green'>Lift,<span style='color:green'>Lift,<span style='color:red'>Fail,<span style='color:green'>Lift","<span style='color:red'>Fail,<span style='color:green'>Lift,<span style='color:green'>Lift,<span style='color:red'>Fail,<span style='color:green'>Lift,<span style='color:green'>Lift","0,0,1,1,0,0,0,0,1,0,0,1","0,0,1,1,1,1,1,0,1,1,0,1","0,1,1,0,1,1",10,20,20,"","","","","{""box1"":""4"",""box2"":""6"",""box4"":""60""}","",1,"round2_outcome",3,1,2,4,6,NA,60,0,1,20,NA,NA,NA,NA,NA,NA,NA,NA,NA,NA,NA,4,6,NA,60,0,1,20,NA,NA,NA,NA,NA,NA,NA,NA,NA,NA,NA,"",NA,NA,NA,NA,NA,NA,NA,NA,NA,2025-11-20 23:05:54
"7317.699999988079","https://psyc-201.github.io/xiang2023/exp/index1.html?PROLIFIC_PID=REDACTED&STUDY_ID=691f8ca61c6b4dcbb0aeb5f4&SESSION_ID=691f9710cba5372b382fe2cc","survey-html-form",11,167448,"0.0-311.0","QGfAw+bPUydOAKkzEx99ZHcnyQLfjkRwaUyObWD/grQ31oZlYGmXSpCGyqfV3rw2VYz/IvcD1kFzdOUEq4EdFMm7hQyEKMWUy+QwWUlYw6Hzu/2klX1p6yP93oNAGPJMjumLoAd/gT/7LICfeVPutMSENO6zmYyN9oW7gFZoHNRaS4DS82aQ+W2A3fBsDzxwBzeHZm8+gwdNGaDENcaac7u9kjdfO27a/hPQqTZMZkz907sUyne/O3Mn9GdUsv3tNXhRl48zjqJp8wBJSV2GJcgCJAG5QOljz+Q7bxgC/VW2n5oeOvtxNovvkIiHEoCer2M2GVHLkDF7Hi3Q2yB8cg==","691f8ca61c6b4dcbb0aeb5f4","691f9710cba5372b382fe2cc","index1","<span style='color:red'>Fail,<span style='color:red'>Fail,<span style='color:green'>Lift,<span style='color:green'>Lift,<span style='color:red'>Fail,<span style='color:red'>Fail,<span style='color:red'>Fail,<span style='color:red'>Fail,<span style='color:green'>Lift,<span style='color:red'>Fail,<span style='color:red'>Fail,<span style='color:green'>Lift","<span style='color:red'>Fail,<span style='color:red'>Fail,<span style='color:green'>Lift,<span style='color:green'>Lift,<span style='color:green'>Lift,<span style='color:green'>Lift,<span style='color:green'>Lift,<span style='color:red'>Fail,<span style='color:green'>Lift,<span style='color:green'>Lift,<span style='color:red'>Fail,<span style='color:green'>Lift","<span style='color:red'>Fail,<span style='color:green'>Lift,<span style='color:green'>Lift,<span style='color:red'>Fail,<span style='color:green'>Lift,<span style='color:green'>Lift","0,0,1,1,0,0,0,0,1,0,0,1","0,0,1,1,1,1,1,0,1,1,0,1","0,1,1,0,1,1",10,20,20,"","","","","{""box1"":""90""}","",1,"round3_ready",4,1,3,NA,NA,NA,NA,NA,NA,NA,NA,NA,NA,NA,NA,NA,NA,90,90,NA,NA,NA,NA,NA,NA,NA,NA,NA,90,90,NA,NA,NA,NA,NA,NA,NA,NA,NA,"",NA,NA,NA,NA,NA,NA,NA,NA,NA,2025-11-20 23:05:54
"30870.79999998212","https://psyc-201.github.io/xiang2023/exp/index1.html?PROLIFIC_PID=REDACTED&STUDY_ID=691f8ca61c6b4dcbb0aeb5f4&SESSION_ID=691f9710cba5372b382fe2cc","survey-html-form",12,198320,"0.0-312.0-0.0","QGfAw+bPUydOAKkzEx99ZHcnyQLfjkRwaUyObWD/grQ31oZlYGmXSpCGyqfV3rw2VYz/IvcD1kFzdOUEq4EdFMm7hQyEKMWUy+QwWUlYw6Hzu/2klX1p6yP93oNAGPJMjumLoAd/gT/7LICfeVPutMSENO6zmYyN9oW7gFZoHNRaS4DS82aQ+W2A3fBsDzxwBzeHZm8+gwdNGaDENcaac7u9kjdfO27a/hPQqTZMZkz907sUyne/O3Mn9GdUsv3tNXhRl48zjqJp8wBJSV2GJcgCJAG5QOljz+Q7bxgC/VW2n5oeOvtxNovvkIiHEoCer2M2GVHLkDF7Hi3Q2yB8cg==","691f8ca61c6b4dcbb0aeb5f4","691f9710cba5372b382fe2cc","index1","<span style='color:red'>Fail,<span style='color:red'>Fail,<span style='color:green'>Lift,<span style='color:green'>Lift,<span style='color:red'>Fail,<span style='color:red'>Fail,<span style='color:red'>Fail,<span style='color:red'>Fail,<span style='color:green'>Lift,<span style='color:red'>Fail,<span style='color:red'>Fail,<span style='color:green'>Lift","<span style='color:red'>Fail,<span style='color:red'>Fail,<span style='color:green'>Lift,<span style='color:green'>Lift,<span style='color:green'>Lift,<span style='color:green'>Lift,<span style='color:green'>Lift,<span style='color:red'>Fail,<span style='color:green'>Lift,<span style='color:green'>Lift,<span style='color:red'>Fail,<span style='color:green'>Lift","<span style='color:red'>Fail,<span style='color:green'>Lift,<span style='color:green'>Lift,<span style='color:red'>Fail,<span style='color:green'>Lift,<span style='color:green'>Lift","0,0,1,1,0,0,0,0,1,0,0,1","0,0,1,1,1,1,1,0,1,1,0,1","0,1,1,0,1,1",10,20,20,"","","","","{""box1"":""6"",""box2"":""8"",""box3"":""50"",""box4"":""80""}","",2,"round3_lift",5,1,3,6,8,50,80,1,1,20,NA,NA,NA,NA,NA,NA,NA,NA,NA,NA,NA,NA,NA,NA,NA,NA,NA,NA,NA,NA,6,8,50,80,1,1,20,NA,NA,"",NA,NA,NA,NA,NA,NA,NA,NA,NA,2025-11-20 23:05:54
"null","https://psyc-201.github.io/xiang2023/exp/index1.html?PROLIFIC_PID=REDACTED&STUDY_ID=691f8ca61c6b4dcbb0aeb5f4&SESSION_ID=691f9710cba5372b382fe2cc","html-keyboard-response",13,201322,"0.0-316.0","QGfAw+bPUydOAKkzEx99ZHcnyQLfjkRwaUyObWD/grQ31oZlYGmXSpCGyqfV3rw2VYz/IvcD1kFzdOUEq4EdFMm7hQyEKMWUy+QwWUlYw6Hzu/2klX1p6yP93oNAGPJMjumLoAd/gT/7LICfeVPutMSENO6zmYyN9oW7gFZoHNRaS4DS82aQ+W2A3fBsDzxwBzeHZm8+gwdNGaDENcaac7u9kjdfO27a/hPQqTZMZkz907sUyne/O3Mn9GdUsv3tNXhRl48zjqJp8wBJSV2GJcgCJAG5QOljz+Q7bxgC/VW2n5oeOvtxNovvkIiHEoCer2M2GVHLkDF7Hi3Q2yB8cg==","691f8ca61c6b4dcbb0aeb5f4","691f9710cba5372b382fe2cc","index1","<span style='color:red'>Fail,<span style='color:red'>Fail,<span style='color:green'>Lift,<span style='color:green'>Lift,<span style='color:red'>Fail,<span style='color:red'>Fail,<span style='color:red'>Fail,<span style='color:red'>Fail,<span style='color:green'>Lift,<span style='color:red'>Fail,<span style='color:red'>Fail,<span style='color:green'>Lift","<span style='color:red'>Fail,<span style='color:red'>Fail,<span style='color:green'>Lift,<span style='color:green'>Lift,<span style='color:green'>Lift,<span style='color:green'>Lift,<span style='color:green'>Lift,<span style='color:red'>Fail,<span style='color:green'>Lift,<span style='color:green'>Lift,<span style='color:red'>Fail,<span style='color:green'>Lift","<span style='color:red'>Fail,<span style='color:green'>Lift,<span style='color:green'>Lift,<span style='color:red'>Fail,<span style='color:green'>Lift,<span style='color:green'>Lift","0,0,1,1,0,0,0,0,1,0,0,1","0,0,1,1,1,1,1,0,1,1,0,1","0,1,1,0,1,1",10,20,20,"","","<p style='font-size:30px'><b> New Contest! </b></p>","null","","",2,"",NA,NA,NA,NA,NA,NA,NA,NA,NA,NA,NA,NA,NA,NA,NA,NA,NA,NA,NA,NA,NA,NA,NA,NA,NA,NA,NA,NA,NA,NA,NA,NA,NA,NA,NA,NA,NA,NA,NA,"",NA,NA,NA,NA,NA,NA,NA,NA,NA,2025-11-20 23:05:54
"8446.40000000596","https://psyc-201.github.io/xiang2023/exp/index1.html?PROLIFIC_PID=REDACTED&STUDY_ID=691f8ca61c6b4dcbb0aeb5f4&SESSION_ID=691f9710cba5372b382fe2cc","survey-html-form",14,209769,"0.0-317.0","QGfAw+bPUydOAKkzEx99ZHcnyQLfjkRwaUyObWD/grQ31oZlYGmXSpCGyqfV3rw2VYz/IvcD1kFzdOUEq4EdFMm7hQyEKMWUy+QwWUlYw6Hzu/2klX1p6yP93oNAGPJMjumLoAd/gT/7LICfeVPutMSENO6zmYyN9oW7gFZoHNRaS4DS82aQ+W2A3fBsDzxwBzeHZm8+gwdNGaDENcaac7u9kjdfO27a/hPQqTZMZkz907sUyne/O3Mn9GdUsv3tNXhRl48zjqJp8wBJSV2GJcgCJAG5QOljz+Q7bxgC/VW2n5oeOvtxNovvkIiHEoCer2M2GVHLkDF7Hi3Q2yB8cg==","691f8ca61c6b4dcbb0aeb5f4","691f9710cba5372b382fe2cc","index1","<span style='color:red'>Fail,<span style='color:red'>Fail,<span style='color:green'>Lift,<span style='color:green'>Lift,<span style='color:red'>Fail,<span style='color:red'>Fail,<span style='color:red'>Fail,<span style='color:red'>Fail,<span style='color:green'>Lift,<span style='color:red'>Fail,<span style='color:red'>Fail,<span style='color:green'>Lift","<span style='color:red'>Fail,<span style='color:red'>Fail,<span style='color:green'>Lift,<span style='color:green'>Lift,<span style='color:green'>Lift,<span style='color:green'>Lift,<span style='color:green'>Lift,<span style='color:red'>Fail,<span style='color:green'>Lift,<span style='color:green'>Lift,<span style='color:red'>Fail,<span style='color:green'>Lift","<span style='color:red'>Fail,<span style='color:green'>Lift,<span style='color:green'>Lift,<span style='color:red'>Fail,<span style='color:green'>Lift,<span style='color:green'>Lift","0,0,1,1,0,0,0,0,1,0,0,1","0,0,1,1,1,1,1,0,1,1,0,1","0,1,1,0,1,1",10,20,20,"","","","","{""box1"":""5"",""box2"":""5""}","",2,"round1_outcome",1,2,1,5,5,NA,NA,0,0,10,5,5,NA,NA,0,0,10,NA,NA,NA,NA,NA,NA,NA,NA,NA,NA,NA,NA,NA,NA,NA,NA,NA,NA,NA,NA,NA,NA,"",NA,NA,NA,NA,NA,NA,NA,NA,NA,2025-11-20 23:05:54
"10441.800000011921","https://psyc-201.github.io/xiang2023/exp/index1.html?PROLIFIC_PID=REDACTED&STUDY_ID=691f8ca61c6b4dcbb0aeb5f4&SESSION_ID=691f9710cba5372b382fe2cc","survey-html-form",15,220212,"0.0-318.0","QGfAw+bPUydOAKkzEx99ZHcnyQLfjkRwaUyObWD/grQ31oZlYGmXSpCGyqfV3rw2VYz/IvcD1kFzdOUEq4EdFMm7hQyEKMWUy+QwWUlYw6Hzu/2klX1p6yP93oNAGPJMjumLoAd/gT/7LICfeVPutMSENO6zmYyN9oW7gFZoHNRaS4DS82aQ+W2A3fBsDzxwBzeHZm8+gwdNGaDENcaac7u9kjdfO27a/hPQqTZMZkz907sUyne/O3Mn9GdUsv3tNXhRl48zjqJp8wBJSV2GJcgCJAG5QOljz+Q7bxgC/VW2n5oeOvtxNovvkIiHEoCer2M2GVHLkDF7Hi3Q2yB8cg==","691f8ca61c6b4dcbb0aeb5f4","691f9710cba5372b382fe2cc","index1","<span style='color:red'>Fail,<span style='color:red'>Fail,<span style='color:green'>Lift,<span style='color:green'>Lift,<span style='color:red'>Fail,<span style='color:red'>Fail,<span style='color:red'>Fail,<span style='color:red'>Fail,<span style='color:green'>Lift,<span style='color:red'>Fail,<span style='color:red'>Fail,<span style='color:green'>Lift","<span style='color:red'>Fail,<span style='color:red'>Fail,<span style='color:green'>Lift,<span style='color:green'>Lift,<span style='color:green'>Lift,<span style='color:green'>Lift,<span style='color:green'>Lift,<span style='color:red'>Fail,<span style='color:green'>Lift,<span style='color:green'>Lift,<span style='color:red'>Fail,<span style='color:green'>Lift","<span style='color:red'>Fail,<span style='color:green'>Lift,<span style='color:green'>Lift,<span style='color:red'>Fail,<span style='color:green'>Lift,<span style='color:green'>Lift","0,0,1,1,0,0,0,0,1,0,0,1","0,0,1,1,1,1,1,0,1,1,0,1","0,1,1,0,1,1",10,20,20,"","","","","{""box1"":""50"",""box2"":""50""}","",2,"round2_ready",2,2,2,NA,NA,NA,NA,NA,NA,NA,NA,NA,NA,NA,NA,NA,NA,50,50,50,50,NA,NA,NA,NA,NA,NA,NA,NA,NA,NA,NA,NA,NA,NA,NA,NA,NA,NA,"",NA,NA,NA,NA,NA,NA,NA,NA,NA,2025-11-20 23:05:54
"26856.79999998212","https://psyc-201.github.io/xiang2023/exp/index1.html?PROLIFIC_PID=REDACTED&STUDY_ID=691f8ca61c6b4dcbb0aeb5f4&SESSION_ID=691f9710cba5372b382fe2cc","survey-html-form",16,247070,"0.0-319.0","QGfAw+bPUydOAKkzEx99ZHcnyQLfjkRwaUyObWD/grQ31oZlYGmXSpCGyqfV3rw2VYz/IvcD1kFzdOUEq4EdFMm7hQyEKMWUy+QwWUlYw6Hzu/2klX1p6yP93oNAGPJMjumLoAd/gT/7LICfeVPutMSENO6zmYyN9oW7gFZoHNRaS4DS82aQ+W2A3fBsDzxwBzeHZm8+gwdNGaDENcaac7u9kjdfO27a/hPQqTZMZkz907sUyne/O3Mn9GdUsv3tNXhRl48zjqJp8wBJSV2GJcgCJAG5QOljz+Q7bxgC/VW2n5oeOvtxNovvkIiHEoCer2M2GVHLkDF7Hi3Q2yB8cg==","691f8ca61c6b4dcbb0aeb5f4","691f9710cba5372b382fe2cc","index1","<span style='color:red'>Fail,<span style='color:red'>Fail,<span style='color:green'>Lift,<span style='color:green'>Lift,<span style='color:red'>Fail,<span style='color:red'>Fail,<span style='color:red'>Fail,<span style='color:red'>Fail,<span style='color:green'>Lift,<span style='color:red'>Fail,<span style='color:red'>Fail,<span style='color:green'>Lift","<span style='color:red'>Fail,<span style='color:red'>Fail,<span style='color:green'>Lift,<span style='color:green'>Lift,<span style='color:green'>Lift,<span style='color:green'>Lift,<span style='color:green'>Lift,<span style='color:red'>Fail,<span style='color:green'>Lift,<span style='color:green'>Lift,<span style='color:red'>Fail,<span style='color:green'>Lift","<span style='color:red'>Fail,<span style='color:green'>Lift,<span style='color:green'>Lift,<span style='color:red'>Fail,<span style='color:green'>Lift,<span style='color:green'>Lift","0,0,1,1,0,0,0,0,1,0,0,1","0,0,1,1,1,1,1,0,1,1,0,1","0,1,1,0,1,1",10,20,20,"","","","","{""box1"":""5"",""box2"":""5"",""box3"":""50"",""box4"":""50""}","",2,"round2_outcome",3,2,2,5,5,50,50,1,1,20,NA,NA,NA,NA,NA,NA,NA,NA,NA,NA,NA,5,5,50,50,1,1,20,NA,NA,NA,NA,NA,NA,NA,NA,NA,NA,NA,"",NA,NA,NA,NA,NA,NA,NA,NA,NA,2025-11-20 23:05:54
"10567.899999976158","https://psyc-201.github.io/xiang2023/exp/index1.html?PROLIFIC_PID=REDACTED&STUDY_ID=691f8ca61c6b4dcbb0aeb5f4&SESSION_ID=691f9710cba5372b382fe2cc","survey-html-form",17,257639,"0.0-320.0","QGfAw+bPUydOAKkzEx99ZHcnyQLfjkRwaUyObWD/grQ31oZlYGmXSpCGyqfV3rw2VYz/IvcD1kFzdOUEq4EdFMm7hQyEKMWUy+QwWUlYw6Hzu/2klX1p6yP93oNAGPJMjumLoAd/gT/7LICfeVPutMSENO6zmYyN9oW7gFZoHNRaS4DS82aQ+W2A3fBsDzxwBzeHZm8+gwdNGaDENcaac7u9kjdfO27a/hPQqTZMZkz907sUyne/O3Mn9GdUsv3tNXhRl48zjqJp8wBJSV2GJcgCJAG5QOljz+Q7bxgC/VW2n5oeOvtxNovvkIiHEoCer2M2GVHLkDF7Hi3Q2yB8cg==","691f8ca61c6b4dcbb0aeb5f4","691f9710cba5372b382fe2cc","index1","<span style='color:red'>Fail,<span style='color:red'>Fail,<span style='color:green'>Lift,<span style='color:green'>Lift,<span style='color:red'>Fail,<span style='color:red'>Fail,<span style='color:red'>Fail,<span style='color:red'>Fail,<span style='color:green'>Lift,<span style='color:red'>Fail,<span style='color:red'>Fail,<span style='color:green'>Lift","<span style='color:red'>Fail,<span style='color:red'>Fail,<span style='color:green'>Lift,<span style='color:green'>Lift,<span style='color:green'>Lift,<span style='color:green'>Lift,<span style='color:green'>Lift,<span style='color:red'>Fail,<span style='color:green'>Lift,<span style='color:green'>Lift,<span style='color:red'>Fail,<span style='color:green'>Lift","<span style='color:red'>Fail,<span style='color:green'>Lift,<span style='color:green'>Lift,<span style='color:red'>Fail,<span style='color:green'>Lift,<span style='color:green'>Lift","0,0,1,1,0,0,0,0,1,0,0,1","0,0,1,1,1,1,1,0,1,1,0,1","0,1,1,0,1,1",10,20,20,"","","","","{""box1"":""80""}","",2,"round3_ready",4,2,3,NA,NA,NA,NA,NA,NA,NA,NA,NA,NA,NA,NA,NA,NA,80,80,NA,NA,NA,NA,NA,NA,NA,NA,NA,80,80,NA,NA,NA,NA,NA,NA,NA,NA,NA,"",NA,NA,NA,NA,NA,NA,NA,NA,NA,2025-11-20 23:05:54
"155667.20000001788","https://psyc-201.github.io/xiang2023/exp/index1.html?PROLIFIC_PID=REDACTED&STUDY_ID=691f8ca61c6b4dcbb0aeb5f4&SESSION_ID=691f9710cba5372b382fe2cc","survey-html-form",18,413308,"0.0-321.0-0.0","QGfAw+bPUydOAKkzEx99ZHcnyQLfjkRwaUyObWD/grQ31oZlYGmXSpCGyqfV3rw2VYz/IvcD1kFzdOUEq4EdFMm7hQyEKMWUy+QwWUlYw6Hzu/2klX1p6yP93oNAGPJMjumLoAd/gT/7LICfeVPutMSENO6zmYyN9oW7gFZoHNRaS4DS82aQ+W2A3fBsDzxwBzeHZm8+gwdNGaDENcaac7u9kjdfO27a/hPQqTZMZkz907sUyne/O3Mn9GdUsv3tNXhRl48zjqJp8wBJSV2GJcgCJAG5QOljz+Q7bxgC/VW2n5oeOvtxNovvkIiHEoCer2M2GVHLkDF7Hi3Q2yB8cg==","691f8ca61c6b4dcbb0aeb5f4","691f9710cba5372b382fe2cc","index1","<span style='color:red'>Fail,<span style='color:red'>Fail,<span style='color:green'>Lift,<span style='color:green'>Lift,<span style='color:red'>Fail,<span style='color:red'>Fail,<span style='color:red'>Fail,<span style='color:red'>Fail,<span style='color:green'>Lift,<span style='color:red'>Fail,<span style='color:red'>Fail,<span style='color:green'>Lift","<span style='color:red'>Fail,<span style='color:red'>Fail,<span style='color:green'>Lift,<span style='color:green'>Lift,<span style='color:green'>Lift,<span style='color:green'>Lift,<span style='color:green'>Lift,<span style='color:red'>Fail,<span style='color:green'>Lift,<span style='color:green'>Lift,<span style='color:red'>Fail,<span style='color:green'>Lift","<span style='color:red'>Fail,<span style='color:green'>Lift,<span style='color:green'>Lift,<span style='color:red'>Fail,<span style='color:green'>Lift,<span style='color:green'>Lift","0,0,1,1,0,0,0,0,1,0,0,1","0,0,1,1,1,1,1,0,1,1,0,1","0,1,1,0,1,1",10,20,20,"","","","","{""box1"":""7"",""box2"":""7"",""box3"":""60"",""box4"":""60""}","",3,"round3_lift",5,2,3,7,7,60,60,1,1,20,NA,NA,NA,NA,NA,NA,NA,NA,NA,NA,NA,NA,NA,NA,NA,NA,NA,NA,NA,NA,7,7,60,60,1,1,20,NA,NA,"",NA,NA,NA,NA,NA,NA,NA,NA,NA,2025-11-20 23:05:54
"null","https://psyc-201.github.io/xiang2023/exp/index1.html?PROLIFIC_PID=REDACTED&STUDY_ID=691f8ca61c6b4dcbb0aeb5f4&SESSION_ID=691f9710cba5372b382fe2cc","html-keyboard-response",19,416309,"0.0-325.0","QGfAw+bPUydOAKkzEx99ZHcnyQLfjkRwaUyObWD/grQ31oZlYGmXSpCGyqfV3rw2VYz/IvcD1kFzdOUEq4EdFMm7hQyEKMWUy+QwWUlYw6Hzu/2klX1p6yP93oNAGPJMjumLoAd/gT/7LICfeVPutMSENO6zmYyN9oW7gFZoHNRaS4DS82aQ+W2A3fBsDzxwBzeHZm8+gwdNGaDENcaac7u9kjdfO27a/hPQqTZMZkz907sUyne/O3Mn9GdUsv3tNXhRl48zjqJp8wBJSV2GJcgCJAG5QOljz+Q7bxgC/VW2n5oeOvtxNovvkIiHEoCer2M2GVHLkDF7Hi3Q2yB8cg==","691f8ca61c6b4dcbb0aeb5f4","691f9710cba5372b382fe2cc","index1","<span style='color:red'>Fail,<span style='color:red'>Fail,<span style='color:green'>Lift,<span style='color:green'>Lift,<span style='color:red'>Fail,<span style='color:red'>Fail,<span style='color:red'>Fail,<span style='color:red'>Fail,<span style='color:green'>Lift,<span style='color:red'>Fail,<span style='color:red'>Fail,<span style='color:green'>Lift","<span style='color:red'>Fail,<span style='color:red'>Fail,<span style='color:green'>Lift,<span style='color:green'>Lift,<span style='color:green'>Lift,<span style='color:green'>Lift,<span style='color:green'>Lift,<span style='color:red'>Fail,<span style='color:green'>Lift,<span style='color:green'>Lift,<span style='color:red'>Fail,<span style='color:green'>Lift","<span style='color:red'>Fail,<span style='color:green'>Lift,<span style='color:green'>Lift,<span style='color:red'>Fail,<span style='color:green'>Lift,<span style='color:green'>Lift","0,0,1,1,0,0,0,0,1,0,0,1","0,0,1,1,1,1,1,0,1,1,0,1","0,1,1,0,1,1",10,20,20,"","","<p style='font-size:30px'><b> New Contest! </b></p>","null","","",3,"",NA,NA,NA,NA,NA,NA,NA,NA,NA,NA,NA,NA,NA,NA,NA,NA,NA,NA,NA,NA,NA,NA,NA,NA,NA,NA,NA,NA,NA,NA,NA,NA,NA,NA,NA,NA,NA,NA,NA,"",NA,NA,NA,NA,NA,NA,NA,NA,NA,2025-11-20 23:05:54
"48085.59999999404","https://psyc-201.github.io/xiang2023/exp/index1.html?PROLIFIC_PID=REDACTED&STUDY_ID=691f8ca61c6b4dcbb0aeb5f4&SESSION_ID=691f9710cba5372b382fe2cc","survey-html-form",20,464396,"0.0-326.0","QGfAw+bPUydOAKkzEx99ZHcnyQLfjkRwaUyObWD/grQ31oZlYGmXSpCGyqfV3rw2VYz/IvcD1kFzdOUEq4EdFMm7hQyEKMWUy+QwWUlYw6Hzu/2klX1p6yP93oNAGPJMjumLoAd/gT/7LICfeVPutMSENO6zmYyN9oW7gFZoHNRaS4DS82aQ+W2A3fBsDzxwBzeHZm8+gwdNGaDENcaac7u9kjdfO27a/hPQqTZMZkz907sUyne/O3Mn9GdUsv3tNXhRl48zjqJp8wBJSV2GJcgCJAG5QOljz+Q7bxgC/VW2n5oeOvtxNovvkIiHEoCer2M2GVHLkDF7Hi3Q2yB8cg==","691f8ca61c6b4dcbb0aeb5f4","691f9710cba5372b382fe2cc","index1","<span style='color:red'>Fail,<span style='color:red'>Fail,<span style='color:green'>Lift,<span style='color:green'>Lift,<span style='color:red'>Fail,<span style='color:red'>Fail,<span style='color:red'>Fail,<span style='color:red'>Fail,<span style='color:green'>Lift,<span style='color:red'>Fail,<span style='color:red'>Fail,<span style='color:green'>Lift","<span style='color:red'>Fail,<span style='color:red'>Fail,<span style='color:green'>Lift,<span style='color:green'>Lift,<span style='color:green'>Lift,<span style='color:green'>Lift,<span style='color:green'>Lift,<span style='color:red'>Fail,<span style='color:green'>Lift,<span style='color:green'>Lift,<span style='color:red'>Fail,<span style='color:green'>Lift","<span style='color:red'>Fail,<span style='color:green'>Lift,<span style='color:green'>Lift,<span style='color:red'>Fail,<span style='color:green'>Lift,<span style='color:green'>Lift","0,0,1,1,0,0,0,0,1,0,0,1","0,0,1,1,1,1,1,0,1,1,0,1","0,1,1,0,1,1",10,20,20,"","","","","{""box1"":""7"",""box2"":""3"",""box3"":""30""}","",3,"round1_outcome",1,3,1,7,3,30,NA,1,0,10,7,3,30,NA,1,0,10,NA,NA,NA,NA,NA,NA,NA,NA,NA,NA,NA,NA,NA,NA,NA,NA,NA,NA,NA,NA,NA,NA,"",NA,NA,NA,NA,NA,NA,NA,NA,NA,2025-11-20 23:05:54
"9059.90000000596","https://psyc-201.github.io/xiang2023/exp/index1.html?PROLIFIC_PID=REDACTED&STUDY_ID=691f8ca61c6b4dcbb0aeb5f4&SESSION_ID=691f9710cba5372b382fe2cc","survey-html-form",21,473457,"0.0-327.0","QGfAw+bPUydOAKkzEx99ZHcnyQLfjkRwaUyObWD/grQ31oZlYGmXSpCGyqfV3rw2VYz/IvcD1kFzdOUEq4EdFMm7hQyEKMWUy+QwWUlYw6Hzu/2klX1p6yP93oNAGPJMjumLoAd/gT/7LICfeVPutMSENO6zmYyN9oW7gFZoHNRaS4DS82aQ+W2A3fBsDzxwBzeHZm8+gwdNGaDENcaac7u9kjdfO27a/hPQqTZMZkz907sUyne/O3Mn9GdUsv3tNXhRl48zjqJp8wBJSV2GJcgCJAG5QOljz+Q7bxgC/VW2n5oeOvtxNovvkIiHEoCer2M2GVHLkDF7Hi3Q2yB8cg==","691f8ca61c6b4dcbb0aeb5f4","691f9710cba5372b382fe2cc","index1","<span style='color:red'>Fail,<span style='color:red'>Fail,<span style='color:green'>Lift,<span style='color:green'>Lift,<span style='color:red'>Fail,<span style='color:red'>Fail,<span style='color:red'>Fail,<span style='color:red'>Fail,<span style='color:green'>Lift,<span style='color:red'>Fail,<span style='color:red'>Fail,<span style='color:green'>Lift","<span style='color:red'>Fail,<span style='color:red'>Fail,<span style='color:green'>Lift,<span style='color:green'>Lift,<span style='color:green'>Lift,<span style='color:green'>Lift,<span style='color:green'>Lift,<span style='color:red'>Fail,<span style='color:green'>Lift,<span style='color:green'>Lift,<span style='color:red'>Fail,<span style='color:green'>Lift","<span style='color:red'>Fail,<span style='color:green'>Lift,<span style='color:green'>Lift,<span style='color:red'>Fail,<span style='color:green'>Lift,<span style='color:green'>Lift","0,0,1,1,0,0,0,0,1,0,0,1","0,0,1,1,1,1,1,0,1,1,0,1","0,1,1,0,1,1",10,20,20,"","","","","{""box1"":""90"",""box2"":""60""}","",3,"round2_ready",2,3,2,NA,NA,NA,NA,NA,NA,NA,NA,NA,NA,NA,NA,NA,NA,90,60,90,60,NA,NA,NA,NA,NA,NA,NA,NA,NA,NA,NA,NA,NA,NA,NA,NA,NA,NA,"",NA,NA,NA,NA,NA,NA,NA,NA,NA,2025-11-20 23:05:54
"14838.399999976158","https://psyc-201.github.io/xiang2023/exp/index1.html?PROLIFIC_PID=REDACTED&STUDY_ID=691f8ca61c6b4dcbb0aeb5f4&SESSION_ID=691f9710cba5372b382fe2cc","survey-html-form",22,488296,"0.0-328.0","QGfAw+bPUydOAKkzEx99ZHcnyQLfjkRwaUyObWD/grQ31oZlYGmXSpCGyqfV3rw2VYz/IvcD1kFzdOUEq4EdFMm7hQyEKMWUy+QwWUlYw6Hzu/2klX1p6yP93oNAGPJMjumLoAd/gT/7LICfeVPutMSENO6zmYyN9oW7gFZoHNRaS4DS82aQ+W2A3fBsDzxwBzeHZm8+gwdNGaDENcaac7u9kjdfO27a/hPQqTZMZkz907sUyne/O3Mn9GdUsv3tNXhRl48zjqJp8wBJSV2GJcgCJAG5QOljz+Q7bxgC/VW2n5oeOvtxNovvkIiHEoCer2M2GVHLkDF7Hi3Q2yB8cg==","691f8ca61c6b4dcbb0aeb5f4","691f9710cba5372b382fe2cc","index1","<span style='color:red'>Fail,<span style='color:red'>Fail,<span style='color:green'>Lift,<span style='color:green'>Lift,<span style='color:red'>Fail,<span style='color:red'>Fail,<span style='color:red'>Fail,<span style='color:red'>Fail,<span style='color:green'>Lift,<span style='color:red'>Fail,<span style='color:red'>Fail,<span style='color:green'>Lift","<span style='color:red'>Fail,<span style='color:red'>Fail,<span style='color:green'>Lift,<span style='color:green'>Lift,<span style='color:green'>Lift,<span style='color:green'>Lift,<span style='color:green'>Lift,<span style='color:red'>Fail,<span style='color:green'>Lift,<span style='color:green'>Lift,<span style='color:red'>Fail,<span style='color:green'>Lift","<span style='color:red'>Fail,<span style='color:green'>Lift,<span style='color:green'>Lift,<span style='color:red'>Fail,<span style='color:green'>Lift,<span style='color:green'>Lift","0,0,1,1,0,0,0,0,1,0,0,1","0,0,1,1,1,1,1,0,1,1,0,1","0,1,1,0,1,1",10,20,20,"","","","","{""box1"":""7"",""box2"":""5"",""box3"":""30"",""box4"":""50""}","",3,"round2_outcome",3,3,2,7,5,30,50,1,1,20,NA,NA,NA,NA,NA,NA,NA,NA,NA,NA,NA,7,5,30,50,1,1,20,NA,NA,NA,NA,NA,NA,NA,NA,NA,NA,NA,"",NA,NA,NA,NA,NA,NA,NA,NA,NA,2025-11-20 23:05:54
"6101.9000000059605","https://psyc-201.github.io/xiang2023/exp/index1.html?PROLIFIC_PID=REDACTED&STUDY_ID=691f8ca61c6b4dcbb0aeb5f4&SESSION_ID=691f9710cba5372b382fe2cc","survey-html-form",23,494399,"0.0-329.0","QGfAw+bPUydOAKkzEx99ZHcnyQLfjkRwaUyObWD/grQ31oZlYGmXSpCGyqfV3rw2VYz/IvcD1kFzdOUEq4EdFMm7hQyEKMWUy+QwWUlYw6Hzu/2klX1p6yP93oNAGPJMjumLoAd/gT/7LICfeVPutMSENO6zmYyN9oW7gFZoHNRaS4DS82aQ+W2A3fBsDzxwBzeHZm8+gwdNGaDENcaac7u9kjdfO27a/hPQqTZMZkz907sUyne/O3Mn9GdUsv3tNXhRl48zjqJp8wBJSV2GJcgCJAG5QOljz+Q7bxgC/VW2n5oeOvtxNovvkIiHEoCer2M2GVHLkDF7Hi3Q2yB8cg==","691f8ca61c6b4dcbb0aeb5f4","691f9710cba5372b382fe2cc","index1","<span style='color:red'>Fail,<span style='color:red'>Fail,<span style='color:green'>Lift,<span style='color:green'>Lift,<span style='color:red'>Fail,<span style='color:red'>Fail,<span style='color:red'>Fail,<span style='color:red'>Fail,<span style='color:green'>Lift,<span style='color:red'>Fail,<span style='color:red'>Fail,<span style='color:green'>Lift","<span style='color:red'>Fail,<span style='color:red'>Fail,<span style='color:green'>Lift,<span style='color:green'>Lift,<span style='color:green'>Lift,<span style='color:green'>Lift,<span style='color:green'>Lift,<span style='color:red'>Fail,<span style='color:green'>Lift,<span style='color:green'>Lift,<span style='color:red'>Fail,<span style='color:green'>Lift","<span style='color:red'>Fail,<span style='color:green'>Lift,<span style='color:green'>Lift,<span style='color:red'>Fail,<span style='color:green'>Lift,<span style='color:green'>Lift","0,0,1,1,0,0,0,0,1,0,0,1","0,0,1,1,1,1,1,0,1,1,0,1","0,1,1,0,1,1",10,20,20,"","","","","{""box1"":""90""}","",3,"round3_ready",4,3,3,NA,NA,NA,NA,NA,NA,NA,NA,NA,NA,NA,NA,NA,NA,90,90,NA,NA,NA,NA,NA,NA,NA,NA,NA,90,90,NA,NA,NA,NA,NA,NA,NA,NA,NA,"",NA,NA,NA,NA,NA,NA,NA,NA,NA,2025-11-20 23:05:54
"15360.40000000596","https://psyc-201.github.io/xiang2023/exp/index1.html?PROLIFIC_PID=REDACTED&STUDY_ID=691f8ca61c6b4dcbb0aeb5f4&SESSION_ID=691f9710cba5372b382fe2cc","survey-html-form",24,509761,"0.0-330.0-0.0","QGfAw+bPUydOAKkzEx99ZHcnyQLfjkRwaUyObWD/grQ31oZlYGmXSpCGyqfV3rw2VYz/IvcD1kFzdOUEq4EdFMm7hQyEKMWUy+QwWUlYw6Hzu/2klX1p6yP93oNAGPJMjumLoAd/gT/7LICfeVPutMSENO6zmYyN9oW7gFZoHNRaS4DS82aQ+W2A3fBsDzxwBzeHZm8+gwdNGaDENcaac7u9kjdfO27a/hPQqTZMZkz907sUyne/O3Mn9GdUsv3tNXhRl48zjqJp8wBJSV2GJcgCJAG5QOljz+Q7bxgC/VW2n5oeOvtxNovvkIiHEoCer2M2GVHLkDF7Hi3Q2yB8cg==","691f8ca61c6b4dcbb0aeb5f4","691f9710cba5372b382fe2cc","index1","<span style='color:red'>Fail,<span style='color:red'>Fail,<span style='color:green'>Lift,<span style='color:green'>Lift,<span style='color:red'>Fail,<span style='color:red'>Fail,<span style='color:red'>Fail,<span style='color:red'>Fail,<span style='color:green'>Lift,<span style='color:red'>Fail,<span style='color:red'>Fail,<span style='color:green'>Lift","<span style='color:red'>Fail,<span style='color:red'>Fail,<span style='color:green'>Lift,<span style='color:green'>Lift,<span style='color:green'>Lift,<span style='color:green'>Lift,<span style='color:green'>Lift,<span style='color:red'>Fail,<span style='color:green'>Lift,<span style='color:green'>Lift,<span style='color:red'>Fail,<span style='color:green'>Lift","<span style='color:red'>Fail,<span style='color:green'>Lift,<span style='color:green'>Lift,<span style='color:red'>Fail,<span style='color:green'>Lift,<span style='color:green'>Lift","0,0,1,1,0,0,0,0,1,0,0,1","0,0,1,1,1,1,1,0,1,1,0,1","0,1,1,0,1,1",10,20,20,"","","","","{""box1"":""7"",""box2"":""5"",""box3"":""40"",""box4"":""60""}","",4,"round3_lift",5,3,3,7,5,40,60,1,1,20,NA,NA,NA,NA,NA,NA,NA,NA,NA,NA,NA,NA,NA,NA,NA,NA,NA,NA,NA,NA,7,5,40,60,1,1,20,NA,NA,"",NA,NA,NA,NA,NA,NA,NA,NA,NA,2025-11-20 23:05:54
"null","https://psyc-201.github.io/xiang2023/exp/index1.html?PROLIFIC_PID=REDACTED&STUDY_ID=691f8ca61c6b4dcbb0aeb5f4&SESSION_ID=691f9710cba5372b382fe2cc","html-keyboard-response",25,512762,"0.0-334.0","QGfAw+bPUydOAKkzEx99ZHcnyQLfjkRwaUyObWD/grQ31oZlYGmXSpCGyqfV3rw2VYz/IvcD1kFzdOUEq4EdFMm7hQyEKMWUy+QwWUlYw6Hzu/2klX1p6yP93oNAGPJMjumLoAd/gT/7LICfeVPutMSENO6zmYyN9oW7gFZoHNRaS4DS82aQ+W2A3fBsDzxwBzeHZm8+gwdNGaDENcaac7u9kjdfO27a/hPQqTZMZkz907sUyne/O3Mn9GdUsv3tNXhRl48zjqJp8wBJSV2GJcgCJAG5QOljz+Q7bxgC/VW2n5oeOvtxNovvkIiHEoCer2M2GVHLkDF7Hi3Q2yB8cg==","691f8ca61c6b4dcbb0aeb5f4","691f9710cba5372b382fe2cc","index1","<span style='color:red'>Fail,<span style='color:red'>Fail,<span style='color:green'>Lift,<span style='color:green'>Lift,<span style='color:red'>Fail,<span style='color:red'>Fail,<span style='color:red'>Fail,<span style='color:red'>Fail,<span style='color:green'>Lift,<span style='color:red'>Fail,<span style='color:red'>Fail,<span style='color:green'>Lift","<span style='color:red'>Fail,<span style='color:red'>Fail,<span style='color:green'>Lift,<span style='color:green'>Lift,<span style='color:green'>Lift,<span style='color:green'>Lift,<span style='color:green'>Lift,<span style='color:red'>Fail,<span style='color:green'>Lift,<span style='color:green'>Lift,<span style='color:red'>Fail,<span style='color:green'>Lift","<span style='color:red'>Fail,<span style='color:green'>Lift,<span style='color:green'>Lift,<span style='color:red'>Fail,<span style='color:green'>Lift,<span style='color:green'>Lift","0,0,1,1,0,0,0,0,1,0,0,1","0,0,1,1,1,1,1,0,1,1,0,1","0,1,1,0,1,1",10,20,20,"","","<p style='font-size:30px'><b> New Contest! </b></p>","null","","",4,"",NA,NA,NA,NA,NA,NA,NA,NA,NA,NA,NA,NA,NA,NA,NA,NA,NA,NA,NA,NA,NA,NA,NA,NA,NA,NA,NA,NA,NA,NA,NA,NA,NA,NA,NA,NA,NA,NA,NA,"",NA,NA,NA,NA,NA,NA,NA,NA,NA,2025-11-20 23:05:54
"22033.29999998212","https://psyc-201.github.io/xiang2023/exp/index1.html?PROLIFIC_PID=REDACTED&STUDY_ID=691f8ca61c6b4dcbb0aeb5f4&SESSION_ID=691f9710cba5372b382fe2cc","survey-html-form",26,534797,"0.0-335.0","QGfAw+bPUydOAKkzEx99ZHcnyQLfjkRwaUyObWD/grQ31oZlYGmXSpCGyqfV3rw2VYz/IvcD1kFzdOUEq4EdFMm7hQyEKMWUy+QwWUlYw6Hzu/2klX1p6yP93oNAGPJMjumLoAd/gT/7LICfeVPutMSENO6zmYyN9oW7gFZoHNRaS4DS82aQ+W2A3fBsDzxwBzeHZm8+gwdNGaDENcaac7u9kjdfO27a/hPQqTZMZkz907sUyne/O3Mn9GdUsv3tNXhRl48zjqJp8wBJSV2GJcgCJAG5QOljz+Q7bxgC/VW2n5oeOvtxNovvkIiHEoCer2M2GVHLkDF7Hi3Q2yB8cg==","691f8ca61c6b4dcbb0aeb5f4","691f9710cba5372b382fe2cc","index1","<span style='color:red'>Fail,<span style='color:red'>Fail,<span style='color:green'>Lift,<span style='color:green'>Lift,<span style='color:red'>Fail,<span style='color:red'>Fail,<span style='color:red'>Fail,<span style='color:red'>Fail,<span style='color:green'>Lift,<span style='color:red'>Fail,<span style='color:red'>Fail,<span style='color:green'>Lift","<span style='color:red'>Fail,<span style='color:red'>Fail,<span style='color:green'>Lift,<span style='color:green'>Lift,<span style='color:green'>Lift,<span style='color:green'>Lift,<span style='color:green'>Lift,<span style='color:red'>Fail,<span style='color:green'>Lift,<span style='color:green'>Lift,<span style='color:red'>Fail,<span style='color:green'>Lift","<span style='color:red'>Fail,<span style='color:green'>Lift,<span style='color:green'>Lift,<span style='color:red'>Fail,<span style='color:green'>Lift,<span style='color:green'>Lift","0,0,1,1,0,0,0,0,1,0,0,1","0,0,1,1,1,1,1,0,1,1,0,1","0,1,1,0,1,1",10,20,20,"","","","","{""box1"":""8"",""box2"":""8"",""box3"":""30"",""box4"":""30""}","",4,"round1_outcome",1,4,1,8,8,30,30,1,1,10,8,8,30,30,1,1,10,NA,NA,NA,NA,NA,NA,NA,NA,NA,NA,NA,NA,NA,NA,NA,NA,NA,NA,NA,NA,NA,NA,"",NA,NA,NA,NA,NA,NA,NA,NA,NA,2025-11-20 23:05:54
"6982","https://psyc-201.github.io/xiang2023/exp/index1.html?PROLIFIC_PID=REDACTED&STUDY_ID=691f8ca61c6b4dcbb0aeb5f4&SESSION_ID=691f9710cba5372b382fe2cc","survey-html-form",27,541780,"0.0-336.0","QGfAw+bPUydOAKkzEx99ZHcnyQLfjkRwaUyObWD/grQ31oZlYGmXSpCGyqfV3rw2VYz/IvcD1kFzdOUEq4EdFMm7hQyEKMWUy+QwWUlYw6Hzu/2klX1p6yP93oNAGPJMjumLoAd/gT/7LICfeVPutMSENO6zmYyN9oW7gFZoHNRaS4DS82aQ+W2A3fBsDzxwBzeHZm8+gwdNGaDENcaac7u9kjdfO27a/hPQqTZMZkz907sUyne/O3Mn9GdUsv3tNXhRl48zjqJp8wBJSV2GJcgCJAG5QOljz+Q7bxgC/VW2n5oeOvtxNovvkIiHEoCer2M2GVHLkDF7Hi3Q2yB8cg==","691f8ca61c6b4dcbb0aeb5f4","691f9710cba5372b382fe2cc","index1","<span style='color:red'>Fail,<span style='color:red'>Fail,<span style='color:green'>Lift,<span style='color:green'>Lift,<span style='color:red'>Fail,<span style='color:red'>Fail,<span style='color:red'>Fail,<span style='color:red'>Fail,<span style='color:green'>Lift,<span style='color:red'>Fail,<span style='color:red'>Fail,<span style='color:green'>Lift","<span style='color:red'>Fail,<span style='color:red'>Fail,<span style='color:green'>Lift,<span style='color:green'>Lift,<span style='color:green'>Lift,<span style='color:green'>Lift,<span style='color:green'>Lift,<span style='color:red'>Fail,<span style='color:green'>Lift,<span style='color:green'>Lift,<span style='color:red'>Fail,<span style='color:green'>Lift","<span style='color:red'>Fail,<span style='color:green'>Lift,<span style='color:green'>Lift,<span style='color:red'>Fail,<span style='color:green'>Lift,<span style='color:green'>Lift","0,0,1,1,0,0,0,0,1,0,0,1","0,0,1,1,1,1,1,0,1,1,0,1","0,1,1,0,1,1",10,20,20,"","","","","{""box1"":""90"",""box2"":""90""}","",4,"round2_ready",2,4,2,NA,NA,NA,NA,NA,NA,NA,NA,NA,NA,NA,NA,NA,NA,90,90,90,90,NA,NA,NA,NA,NA,NA,NA,NA,NA,NA,NA,NA,NA,NA,NA,NA,NA,NA,"",NA,NA,NA,NA,NA,NA,NA,NA,NA,2025-11-20 23:05:54
"16113","https://psyc-201.github.io/xiang2023/exp/index1.html?PROLIFIC_PID=REDACTED&STUDY_ID=691f8ca61c6b4dcbb0aeb5f4&SESSION_ID=691f9710cba5372b382fe2cc","survey-html-form",28,557894,"0.0-337.0","QGfAw+bPUydOAKkzEx99ZHcnyQLfjkRwaUyObWD/grQ31oZlYGmXSpCGyqfV3rw2VYz/IvcD1kFzdOUEq4EdFMm7hQyEKMWUy+QwWUlYw6Hzu/2klX1p6yP93oNAGPJMjumLoAd/gT/7LICfeVPutMSENO6zmYyN9oW7gFZoHNRaS4DS82aQ+W2A3fBsDzxwBzeHZm8+gwdNGaDENcaac7u9kjdfO27a/hPQqTZMZkz907sUyne/O3Mn9GdUsv3tNXhRl48zjqJp8wBJSV2GJcgCJAG5QOljz+Q7bxgC/VW2n5oeOvtxNovvkIiHEoCer2M2GVHLkDF7Hi3Q2yB8cg==","691f8ca61c6b4dcbb0aeb5f4","691f9710cba5372b382fe2cc","index1","<span style='color:red'>Fail,<span style='color:red'>Fail,<span style='color:green'>Lift,<span style='color:green'>Lift,<span style='color:red'>Fail,<span style='color:red'>Fail,<span style='color:red'>Fail,<span style='color:red'>Fail,<span style='color:green'>Lift,<span style='color:red'>Fail,<span style='color:red'>Fail,<span style='color:green'>Lift","<span style='color:red'>Fail,<span style='color:red'>Fail,<span style='color:green'>Lift,<span style='color:green'>Lift,<span style='color:green'>Lift,<span style='color:green'>Lift,<span style='color:green'>Lift,<span style='color:red'>Fail,<span style='color:green'>Lift,<span style='color:green'>Lift,<span style='color:red'>Fail,<span style='color:green'>Lift","<span style='color:red'>Fail,<span style='color:green'>Lift,<span style='color:green'>Lift,<span style='color:red'>Fail,<span style='color:green'>Lift,<span style='color:green'>Lift","0,0,1,1,0,0,0,0,1,0,0,1","0,0,1,1,1,1,1,0,1,1,0,1","0,1,1,0,1,1",10,20,20,"","","","","{""box1"":""8"",""box2"":""8"",""box3"":""40"",""box4"":""40""}","",4,"round2_outcome",3,4,2,8,8,40,40,1,1,20,NA,NA,NA,NA,NA,NA,NA,NA,NA,NA,NA,8,8,40,40,1,1,20,NA,NA,NA,NA,NA,NA,NA,NA,NA,NA,NA,"",NA,NA,NA,NA,NA,NA,NA,NA,NA,2025-11-20 23:05:54
"9681.299999982119","https://psyc-201.github.io/xiang2023/exp/index1.html?PROLIFIC_PID=REDACTED&STUDY_ID=691f8ca61c6b4dcbb0aeb5f4&SESSION_ID=691f9710cba5372b382fe2cc","survey-html-form",29,567576,"0.0-338.0","QGfAw+bPUydOAKkzEx99ZHcnyQLfjkRwaUyObWD/grQ31oZlYGmXSpCGyqfV3rw2VYz/IvcD1kFzdOUEq4EdFMm7hQyEKMWUy+QwWUlYw6Hzu/2klX1p6yP93oNAGPJMjumLoAd/gT/7LICfeVPutMSENO6zmYyN9oW7gFZoHNRaS4DS82aQ+W2A3fBsDzxwBzeHZm8+gwdNGaDENcaac7u9kjdfO27a/hPQqTZMZkz907sUyne/O3Mn9GdUsv3tNXhRl48zjqJp8wBJSV2GJcgCJAG5QOljz+Q7bxgC/VW2n5oeOvtxNovvkIiHEoCer2M2GVHLkDF7Hi3Q2yB8cg==","691f8ca61c6b4dcbb0aeb5f4","691f9710cba5372b382fe2cc","index1","<span style='color:red'>Fail,<span style='color:red'>Fail,<span style='color:green'>Lift,<span style='color:green'>Lift,<span style='color:red'>Fail,<span style='color:red'>Fail,<span style='color:red'>Fail,<span style='color:red'>Fail,<span style='color:green'>Lift,<span style='color:red'>Fail,<span style='color:red'>Fail,<span style='color:green'>Lift","<span style='color:red'>Fail,<span style='color:red'>Fail,<span style='color:green'>Lift,<span style='color:green'>Lift,<span style='color:green'>Lift,<span style='color:green'>Lift,<span style='color:green'>Lift,<span style='color:red'>Fail,<span style='color:green'>Lift,<span style='color:green'>Lift,<span style='color:red'>Fail,<span style='color:green'>Lift","<span style='color:red'>Fail,<span style='color:green'>Lift,<span style='color:green'>Lift,<span style='color:red'>Fail,<span style='color:green'>Lift,<span style='color:green'>Lift","0,0,1,1,0,0,0,0,1,0,0,1","0,0,1,1,1,1,1,0,1,1,0,1","0,1,1,0,1,1",10,20,20,"","","","","{""box1"":""95""}","",4,"round3_ready",4,4,3,NA,NA,NA,NA,NA,NA,NA,NA,NA,NA,NA,NA,NA,NA,95,95,NA,NA,NA,NA,NA,NA,NA,NA,NA,95,95,NA,NA,NA,NA,NA,NA,NA,NA,NA,"",NA,NA,NA,NA,NA,NA,NA,NA,NA,2025-11-20 23:05:54
"221014.30000001192","https://psyc-201.github.io/xiang2023/exp/index1.html?PROLIFIC_PID=REDACTED&STUDY_ID=691f8ca61c6b4dcbb0aeb5f4&SESSION_ID=691f9710cba5372b382fe2cc","survey-html-form",30,788591,"0.0-339.0-0.0","QGfAw+bPUydOAKkzEx99ZHcnyQLfjkRwaUyObWD/grQ31oZlYGmXSpCGyqfV3rw2VYz/IvcD1kFzdOUEq4EdFMm7hQyEKMWUy+QwWUlYw6Hzu/2klX1p6yP93oNAGPJMjumLoAd/gT/7LICfeVPutMSENO6zmYyN9oW7gFZoHNRaS4DS82aQ+W2A3fBsDzxwBzeHZm8+gwdNGaDENcaac7u9kjdfO27a/hPQqTZMZkz907sUyne/O3Mn9GdUsv3tNXhRl48zjqJp8wBJSV2GJcgCJAG5QOljz+Q7bxgC/VW2n5oeOvtxNovvkIiHEoCer2M2GVHLkDF7Hi3Q2yB8cg==","691f8ca61c6b4dcbb0aeb5f4","691f9710cba5372b382fe2cc","index1","<span style='color:red'>Fail,<span style='color:red'>Fail,<span style='color:green'>Lift,<span style='color:green'>Lift,<span style='color:red'>Fail,<span style='color:red'>Fail,<span style='color:red'>Fail,<span style='color:red'>Fail,<span style='color:green'>Lift,<span style='color:red'>Fail,<span style='color:red'>Fail,<span style='color:green'>Lift","<span style='color:red'>Fail,<span style='color:red'>Fail,<span style='color:green'>Lift,<span style='color:green'>Lift,<span style='color:green'>Lift,<span style='color:green'>Lift,<span style='color:green'>Lift,<span style='color:red'>Fail,<span style='color:green'>Lift,<span style='color:green'>Lift,<span style='color:red'>Fail,<span style='color:green'>Lift","<span style='color:red'>Fail,<span style='color:green'>Lift,<span style='color:green'>Lift,<span style='color:red'>Fail,<span style='color:green'>Lift,<span style='color:green'>Lift","0,0,1,1,0,0,0,0,1,0,0,1","0,0,1,1,1,1,1,0,1,1,0,1","0,1,1,0,1,1",10,20,20,"","","","","{""box1"":""8"",""box2"":""8"",""box3"":""30"",""box4"":""30""}","",5,"round3_lift",5,4,3,8,8,30,30,1,1,20,NA,NA,NA,NA,NA,NA,NA,NA,NA,NA,NA,NA,NA,NA,NA,NA,NA,NA,NA,NA,8,8,30,30,1,1,20,NA,NA,"",NA,NA,NA,NA,NA,NA,NA,NA,NA,2025-11-20 23:05:54
"null","https://psyc-201.github.io/xiang2023/exp/index1.html?PROLIFIC_PID=REDACTED&STUDY_ID=691f8ca61c6b4dcbb0aeb5f4&SESSION_ID=691f9710cba5372b382fe2cc","html-keyboard-response",31,791593,"0.0-343.0","QGfAw+bPUydOAKkzEx99ZHcnyQLfjkRwaUyObWD/grQ31oZlYGmXSpCGyqfV3rw2VYz/IvcD1kFzdOUEq4EdFMm7hQyEKMWUy+QwWUlYw6Hzu/2klX1p6yP93oNAGPJMjumLoAd/gT/7LICfeVPutMSENO6zmYyN9oW7gFZoHNRaS4DS82aQ+W2A3fBsDzxwBzeHZm8+gwdNGaDENcaac7u9kjdfO27a/hPQqTZMZkz907sUyne/O3Mn9GdUsv3tNXhRl48zjqJp8wBJSV2GJcgCJAG5QOljz+Q7bxgC/VW2n5oeOvtxNovvkIiHEoCer2M2GVHLkDF7Hi3Q2yB8cg==","691f8ca61c6b4dcbb0aeb5f4","691f9710cba5372b382fe2cc","index1","<span style='color:red'>Fail,<span style='color:red'>Fail,<span style='color:green'>Lift,<span style='color:green'>Lift,<span style='color:red'>Fail,<span style='color:red'>Fail,<span style='color:red'>Fail,<span style='color:red'>Fail,<span style='color:green'>Lift,<span style='color:red'>Fail,<span style='color:red'>Fail,<span style='color:green'>Lift","<span style='color:red'>Fail,<span style='color:red'>Fail,<span style='color:green'>Lift,<span style='color:green'>Lift,<span style='color:green'>Lift,<span style='color:green'>Lift,<span style='color:green'>Lift,<span style='color:red'>Fail,<span style='color:green'>Lift,<span style='color:green'>Lift,<span style='color:red'>Fail,<span style='color:green'>Lift","<span style='color:red'>Fail,<span style='color:green'>Lift,<span style='color:green'>Lift,<span style='color:red'>Fail,<span style='color:green'>Lift,<span style='color:green'>Lift","0,0,1,1,0,0,0,0,1,0,0,1","0,0,1,1,1,1,1,0,1,1,0,1","0,1,1,0,1,1",10,20,20,"","","<p style='font-size:30px'><b> New Contest! </b></p>","null","","",5,"",NA,NA,NA,NA,NA,NA,NA,NA,NA,NA,NA,NA,NA,NA,NA,NA,NA,NA,NA,NA,NA,NA,NA,NA,NA,NA,NA,NA,NA,NA,NA,NA,NA,NA,NA,NA,NA,NA,NA,"",NA,NA,NA,NA,NA,NA,NA,NA,NA,2025-11-20 23:05:54
"71386.80000001192","https://psyc-201.github.io/xiang2023/exp/index1.html?PROLIFIC_PID=REDACTED&STUDY_ID=691f8ca61c6b4dcbb0aeb5f4&SESSION_ID=691f9710cba5372b382fe2cc","survey-html-form",32,862982,"0.0-344.0","QGfAw+bPUydOAKkzEx99ZHcnyQLfjkRwaUyObWD/grQ31oZlYGmXSpCGyqfV3rw2VYz/IvcD1kFzdOUEq4EdFMm7hQyEKMWUy+QwWUlYw6Hzu/2klX1p6yP93oNAGPJMjumLoAd/gT/7LICfeVPutMSENO6zmYyN9oW7gFZoHNRaS4DS82aQ+W2A3fBsDzxwBzeHZm8+gwdNGaDENcaac7u9kjdfO27a/hPQqTZMZkz907sUyne/O3Mn9GdUsv3tNXhRl48zjqJp8wBJSV2GJcgCJAG5QOljz+Q7bxgC/VW2n5oeOvtxNovvkIiHEoCer2M2GVHLkDF7Hi3Q2yB8cg==","691f8ca61c6b4dcbb0aeb5f4","691f9710cba5372b382fe2cc","index1","<span style='color:red'>Fail,<span style='color:red'>Fail,<span style='color:green'>Lift,<span style='color:green'>Lift,<span style='color:red'>Fail,<span style='color:red'>Fail,<span style='color:red'>Fail,<span style='color:red'>Fail,<span style='color:green'>Lift,<span style='color:red'>Fail,<span style='color:red'>Fail,<span style='color:green'>Lift","<span style='color:red'>Fail,<span style='color:red'>Fail,<span style='color:green'>Lift,<span style='color:green'>Lift,<span style='color:green'>Lift,<span style='color:green'>Lift,<span style='color:green'>Lift,<span style='color:red'>Fail,<span style='color:green'>Lift,<span style='color:green'>Lift,<span style='color:red'>Fail,<span style='color:green'>Lift","<span style='color:red'>Fail,<span style='color:green'>Lift,<span style='color:green'>Lift,<span style='color:red'>Fail,<span style='color:green'>Lift,<span style='color:green'>Lift","0,0,1,1,0,0,0,0,1,0,0,1","0,0,1,1,1,1,1,0,1,1,0,1","0,1,1,0,1,1",10,20,20,"","","","","{""box1"":""5"",""box2"":""5""}","",5,"round1_outcome",1,5,1,5,5,NA,NA,0,0,10,5,5,NA,NA,0,0,10,NA,NA,NA,NA,NA,NA,NA,NA,NA,NA,NA,NA,NA,NA,NA,NA,NA,NA,NA,NA,NA,NA,"",NA,NA,NA,NA,NA,NA,NA,NA,NA,2025-11-20 23:05:54
"11542.40000000596","https://psyc-201.github.io/xiang2023/exp/index1.html?PROLIFIC_PID=REDACTED&STUDY_ID=691f8ca61c6b4dcbb0aeb5f4&SESSION_ID=691f9710cba5372b382fe2cc","survey-html-form",33,874525,"0.0-345.0","QGfAw+bPUydOAKkzEx99ZHcnyQLfjkRwaUyObWD/grQ31oZlYGmXSpCGyqfV3rw2VYz/IvcD1kFzdOUEq4EdFMm7hQyEKMWUy+QwWUlYw6Hzu/2klX1p6yP93oNAGPJMjumLoAd/gT/7LICfeVPutMSENO6zmYyN9oW7gFZoHNRaS4DS82aQ+W2A3fBsDzxwBzeHZm8+gwdNGaDENcaac7u9kjdfO27a/hPQqTZMZkz907sUyne/O3Mn9GdUsv3tNXhRl48zjqJp8wBJSV2GJcgCJAG5QOljz+Q7bxgC/VW2n5oeOvtxNovvkIiHEoCer2M2GVHLkDF7Hi3Q2yB8cg==","691f8ca61c6b4dcbb0aeb5f4","691f9710cba5372b382fe2cc","index1","<span style='color:red'>Fail,<span style='color:red'>Fail,<span style='color:green'>Lift,<span style='color:green'>Lift,<span style='color:red'>Fail,<span style='color:red'>Fail,<span style='color:red'>Fail,<span style='color:red'>Fail,<span style='color:green'>Lift,<span style='color:red'>Fail,<span style='color:red'>Fail,<span style='color:green'>Lift","<span style='color:red'>Fail,<span style='color:red'>Fail,<span style='color:green'>Lift,<span style='color:green'>Lift,<span style='color:green'>Lift,<span style='color:green'>Lift,<span style='color:green'>Lift,<span style='color:red'>Fail,<span style='color:green'>Lift,<span style='color:green'>Lift,<span style='color:red'>Fail,<span style='color:green'>Lift","<span style='color:red'>Fail,<span style='color:green'>Lift,<span style='color:green'>Lift,<span style='color:red'>Fail,<span style='color:green'>Lift,<span style='color:green'>Lift","0,0,1,1,0,0,0,0,1,0,0,1","0,0,1,1,1,1,1,0,1,1,0,1","0,1,1,0,1,1",10,20,20,"","","","","{""box1"":""70"",""box2"":""70""}","",5,"round2_ready",2,5,2,NA,NA,NA,NA,NA,NA,NA,NA,NA,NA,NA,NA,NA,NA,70,70,70,70,NA,NA,NA,NA,NA,NA,NA,NA,NA,NA,NA,NA,NA,NA,NA,NA,NA,NA,"",NA,NA,NA,NA,NA,NA,NA,NA,NA,2025-11-20 23:05:54
"10436","https://psyc-201.github.io/xiang2023/exp/index1.html?PROLIFIC_PID=REDACTED&STUDY_ID=691f8ca61c6b4dcbb0aeb5f4&SESSION_ID=691f9710cba5372b382fe2cc","survey-html-form",34,884962,"0.0-346.0","QGfAw+bPUydOAKkzEx99ZHcnyQLfjkRwaUyObWD/grQ31oZlYGmXSpCGyqfV3rw2VYz/IvcD1kFzdOUEq4EdFMm7hQyEKMWUy+QwWUlYw6Hzu/2klX1p6yP93oNAGPJMjumLoAd/gT/7LICfeVPutMSENO6zmYyN9oW7gFZoHNRaS4DS82aQ+W2A3fBsDzxwBzeHZm8+gwdNGaDENcaac7u9kjdfO27a/hPQqTZMZkz907sUyne/O3Mn9GdUsv3tNXhRl48zjqJp8wBJSV2GJcgCJAG5QOljz+Q7bxgC/VW2n5oeOvtxNovvkIiHEoCer2M2GVHLkDF7Hi3Q2yB8cg==","691f8ca61c6b4dcbb0aeb5f4","691f9710cba5372b382fe2cc","index1","<span style='color:red'>Fail,<span style='color:red'>Fail,<span style='color:green'>Lift,<span style='color:green'>Lift,<span style='color:red'>Fail,<span style='color:red'>Fail,<span style='color:red'>Fail,<span style='color:red'>Fail,<span style='color:green'>Lift,<span style='color:red'>Fail,<span style='color:red'>Fail,<span style='color:green'>Lift","<span style='color:red'>Fail,<span style='color:red'>Fail,<span style='color:green'>Lift,<span style='color:green'>Lift,<span style='color:green'>Lift,<span style='color:green'>Lift,<span style='color:green'>Lift,<span style='color:red'>Fail,<span style='color:green'>Lift,<span style='color:green'>Lift,<span style='color:red'>Fail,<span style='color:green'>Lift","<span style='color:red'>Fail,<span style='color:green'>Lift,<span style='color:green'>Lift,<span style='color:red'>Fail,<span style='color:green'>Lift,<span style='color:green'>Lift","0,0,1,1,0,0,0,0,1,0,0,1","0,0,1,1,1,1,1,0,1,1,0,1","0,1,1,0,1,1",10,20,20,"","","","","{""box1"":""3"",""box2"":""3""}","",5,"round2_outcome",3,5,2,3,3,NA,NA,0,0,20,NA,NA,NA,NA,NA,NA,NA,NA,NA,NA,NA,3,3,NA,NA,0,0,20,NA,NA,NA,NA,NA,NA,NA,NA,NA,NA,NA,"",NA,NA,NA,NA,NA,NA,NA,NA,NA,2025-11-20 23:05:54
"5785.9000000059605","https://psyc-201.github.io/xiang2023/exp/index1.html?PROLIFIC_PID=REDACTED&STUDY_ID=691f8ca61c6b4dcbb0aeb5f4&SESSION_ID=691f9710cba5372b382fe2cc","survey-html-form",35,890749,"0.0-347.0","QGfAw+bPUydOAKkzEx99ZHcnyQLfjkRwaUyObWD/grQ31oZlYGmXSpCGyqfV3rw2VYz/IvcD1kFzdOUEq4EdFMm7hQyEKMWUy+QwWUlYw6Hzu/2klX1p6yP93oNAGPJMjumLoAd/gT/7LICfeVPutMSENO6zmYyN9oW7gFZoHNRaS4DS82aQ+W2A3fBsDzxwBzeHZm8+gwdNGaDENcaac7u9kjdfO27a/hPQqTZMZkz907sUyne/O3Mn9GdUsv3tNXhRl48zjqJp8wBJSV2GJcgCJAG5QOljz+Q7bxgC/VW2n5oeOvtxNovvkIiHEoCer2M2GVHLkDF7Hi3Q2yB8cg==","691f8ca61c6b4dcbb0aeb5f4","691f9710cba5372b382fe2cc","index1","<span style='color:red'>Fail,<span style='color:red'>Fail,<span style='color:green'>Lift,<span style='color:green'>Lift,<span style='color:red'>Fail,<span style='color:red'>Fail,<span style='color:red'>Fail,<span style='color:red'>Fail,<span style='color:green'>Lift,<span style='color:red'>Fail,<span style='color:red'>Fail,<span style='color:green'>Lift","<span style='color:red'>Fail,<span style='color:red'>Fail,<span style='color:green'>Lift,<span style='color:green'>Lift,<span style='color:green'>Lift,<span style='color:green'>Lift,<span style='color:green'>Lift,<span style='color:red'>Fail,<span style='color:green'>Lift,<span style='color:green'>Lift,<span style='color:red'>Fail,<span style='color:green'>Lift","<span style='color:red'>Fail,<span style='color:green'>Lift,<span style='color:green'>Lift,<span style='color:red'>Fail,<span style='color:green'>Lift,<span style='color:green'>Lift","0,0,1,1,0,0,0,0,1,0,0,1","0,0,1,1,1,1,1,0,1,1,0,1","0,1,1,0,1,1",10,20,20,"","","","","{""box1"":""50""}","",5,"round3_ready",4,5,3,NA,NA,NA,NA,NA,NA,NA,NA,NA,NA,NA,NA,NA,NA,50,50,NA,NA,NA,NA,NA,NA,NA,NA,NA,50,50,NA,NA,NA,NA,NA,NA,NA,NA,NA,"",NA,NA,NA,NA,NA,NA,NA,NA,NA,2025-11-20 23:05:54
"16117.300000011921","https://psyc-201.github.io/xiang2023/exp/index1.html?PROLIFIC_PID=REDACTED&STUDY_ID=691f8ca61c6b4dcbb0aeb5f4&SESSION_ID=691f9710cba5372b382fe2cc","survey-html-form",36,906868,"0.0-349.0-0.0","QGfAw+bPUydOAKkzEx99ZHcnyQLfjkRwaUyObWD/grQ31oZlYGmXSpCGyqfV3rw2VYz/IvcD1kFzdOUEq4EdFMm7hQyEKMWUy+QwWUlYw6Hzu/2klX1p6yP93oNAGPJMjumLoAd/gT/7LICfeVPutMSENO6zmYyN9oW7gFZoHNRaS4DS82aQ+W2A3fBsDzxwBzeHZm8+gwdNGaDENcaac7u9kjdfO27a/hPQqTZMZkz907sUyne/O3Mn9GdUsv3tNXhRl48zjqJp8wBJSV2GJcgCJAG5QOljz+Q7bxgC/VW2n5oeOvtxNovvkIiHEoCer2M2GVHLkDF7Hi3Q2yB8cg==","691f8ca61c6b4dcbb0aeb5f4","691f9710cba5372b382fe2cc","index1","<span style='color:red'>Fail,<span style='color:red'>Fail,<span style='color:green'>Lift,<span style='color:green'>Lift,<span style='color:red'>Fail,<span style='color:red'>Fail,<span style='color:red'>Fail,<span style='color:red'>Fail,<span style='color:green'>Lift,<span style='color:red'>Fail,<span style='color:red'>Fail,<span style='color:green'>Lift","<span style='color:red'>Fail,<span style='color:red'>Fail,<span style='color:green'>Lift,<span style='color:green'>Lift,<span style='color:green'>Lift,<span style='color:green'>Lift,<span style='color:green'>Lift,<span style='color:red'>Fail,<span style='color:green'>Lift,<span style='color:green'>Lift,<span style='color:red'>Fail,<span style='color:green'>Lift","<span style='color:red'>Fail,<span style='color:green'>Lift,<span style='color:green'>Lift,<span style='color:red'>Fail,<span style='color:green'>Lift,<span style='color:green'>Lift","0,0,1,1,0,0,0,0,1,0,0,1","0,0,1,1,1,1,1,0,1,1,0,1","0,1,1,0,1,1",10,20,20,"","","","","{""box1"":""2"",""box2"":""2"",""box3"":""999"",""box4"":""999""}","",6,"round3_fail",5,5,3,2,2,NA,NA,0,0,20,NA,NA,NA,NA,NA,NA,NA,NA,NA,NA,NA,NA,NA,NA,NA,NA,NA,NA,NA,NA,2,2,NA,NA,0,0,20,1,1,"",NA,NA,NA,NA,NA,NA,NA,NA,NA,2025-11-20 23:05:54
"null","https://psyc-201.github.io/xiang2023/exp/index1.html?PROLIFIC_PID=REDACTED&STUDY_ID=691f8ca61c6b4dcbb0aeb5f4&SESSION_ID=691f9710cba5372b382fe2cc","html-keyboard-response",37,909870,"0.0-352.0","QGfAw+bPUydOAKkzEx99ZHcnyQLfjkRwaUyObWD/grQ31oZlYGmXSpCGyqfV3rw2VYz/IvcD1kFzdOUEq4EdFMm7hQyEKMWUy+QwWUlYw6Hzu/2klX1p6yP93oNAGPJMjumLoAd/gT/7LICfeVPutMSENO6zmYyN9oW7gFZoHNRaS4DS82aQ+W2A3fBsDzxwBzeHZm8+gwdNGaDENcaac7u9kjdfO27a/hPQqTZMZkz907sUyne/O3Mn9GdUsv3tNXhRl48zjqJp8wBJSV2GJcgCJAG5QOljz+Q7bxgC/VW2n5oeOvtxNovvkIiHEoCer2M2GVHLkDF7Hi3Q2yB8cg==","691f8ca61c6b4dcbb0aeb5f4","691f9710cba5372b382fe2cc","index1","<span style='color:red'>Fail,<span style='color:red'>Fail,<span style='color:green'>Lift,<span style='color:green'>Lift,<span style='color:red'>Fail,<span style='color:red'>Fail,<span style='color:red'>Fail,<span style='color:red'>Fail,<span style='color:green'>Lift,<span style='color:red'>Fail,<span style='color:red'>Fail,<span style='color:green'>Lift","<span style='color:red'>Fail,<span style='color:red'>Fail,<span style='color:green'>Lift,<span style='color:green'>Lift,<span style='color:green'>Lift,<span style='color:green'>Lift,<span style='color:green'>Lift,<span style='color:red'>Fail,<span style='color:green'>Lift,<span style='color:green'>Lift,<span style='color:red'>Fail,<span style='color:green'>Lift","<span style='color:red'>Fail,<span style='color:green'>Lift,<span style='color:green'>Lift,<span style='color:red'>Fail,<span style='color:green'>Lift,<span style='color:green'>Lift","0,0,1,1,0,0,0,0,1,0,0,1","0,0,1,1,1,1,1,0,1,1,0,1","0,1,1,0,1,1",10,20,20,"","","<p style='font-size:30px'><b> New Contest! </b></p>","null","","",6,"",NA,NA,NA,NA,NA,NA,NA,NA,NA,NA,NA,NA,NA,NA,NA,NA,NA,NA,NA,NA,NA,NA,NA,NA,NA,NA,NA,NA,NA,NA,NA,NA,NA,NA,NA,NA,NA,NA,NA,"",NA,NA,NA,NA,NA,NA,NA,NA,NA,2025-11-20 23:05:54
"7547","https://psyc-201.github.io/xiang2023/exp/index1.html?PROLIFIC_PID=REDACTED&STUDY_ID=691f8ca61c6b4dcbb0aeb5f4&SESSION_ID=691f9710cba5372b382fe2cc","survey-html-form",38,917418,"0.0-353.0","QGfAw+bPUydOAKkzEx99ZHcnyQLfjkRwaUyObWD/grQ31oZlYGmXSpCGyqfV3rw2VYz/IvcD1kFzdOUEq4EdFMm7hQyEKMWUy+QwWUlYw6Hzu/2klX1p6yP93oNAGPJMjumLoAd/gT/7LICfeVPutMSENO6zmYyN9oW7gFZoHNRaS4DS82aQ+W2A3fBsDzxwBzeHZm8+gwdNGaDENcaac7u9kjdfO27a/hPQqTZMZkz907sUyne/O3Mn9GdUsv3tNXhRl48zjqJp8wBJSV2GJcgCJAG5QOljz+Q7bxgC/VW2n5oeOvtxNovvkIiHEoCer2M2GVHLkDF7Hi3Q2yB8cg==","691f8ca61c6b4dcbb0aeb5f4","691f9710cba5372b382fe2cc","index1","<span style='color:red'>Fail,<span style='color:red'>Fail,<span style='color:green'>Lift,<span style='color:green'>Lift,<span style='color:red'>Fail,<span style='color:red'>Fail,<span style='color:red'>Fail,<span style='color:red'>Fail,<span style='color:green'>Lift,<span style='color:red'>Fail,<span style='color:red'>Fail,<span style='color:green'>Lift","<span style='color:red'>Fail,<span style='color:red'>Fail,<span style='color:green'>Lift,<span style='color:green'>Lift,<span style='color:green'>Lift,<span style='color:green'>Lift,<span style='color:green'>Lift,<span style='color:red'>Fail,<span style='color:green'>Lift,<span style='color:green'>Lift,<span style='color:red'>Fail,<span style='color:green'>Lift","<span style='color:red'>Fail,<span style='color:green'>Lift,<span style='color:green'>Lift,<span style='color:red'>Fail,<span style='color:green'>Lift,<span style='color:green'>Lift","0,0,1,1,0,0,0,0,1,0,0,1","0,0,1,1,1,1,1,0,1,1,0,1","0,1,1,0,1,1",10,20,20,"","","","","{""box1"":""5"",""box2"":""5""}","",6,"round1_outcome",1,6,1,5,5,NA,NA,0,0,10,5,5,NA,NA,0,0,10,NA,NA,NA,NA,NA,NA,NA,NA,NA,NA,NA,NA,NA,NA,NA,NA,NA,NA,NA,NA,NA,NA,"",NA,NA,NA,NA,NA,NA,NA,NA,NA,2025-11-20 23:05:54
"9724.699999988079","https://psyc-201.github.io/xiang2023/exp/index1.html?PROLIFIC_PID=REDACTED&STUDY_ID=691f8ca61c6b4dcbb0aeb5f4&SESSION_ID=691f9710cba5372b382fe2cc","survey-html-form",39,927144,"0.0-354.0","QGfAw+bPUydOAKkzEx99ZHcnyQLfjkRwaUyObWD/grQ31oZlYGmXSpCGyqfV3rw2VYz/IvcD1kFzdOUEq4EdFMm7hQyEKMWUy+QwWUlYw6Hzu/2klX1p6yP93oNAGPJMjumLoAd/gT/7LICfeVPutMSENO6zmYyN9oW7gFZoHNRaS4DS82aQ+W2A3fBsDzxwBzeHZm8+gwdNGaDENcaac7u9kjdfO27a/hPQqTZMZkz907sUyne/O3Mn9GdUsv3tNXhRl48zjqJp8wBJSV2GJcgCJAG5QOljz+Q7bxgC/VW2n5oeOvtxNovvkIiHEoCer2M2GVHLkDF7Hi3Q2yB8cg==","691f8ca61c6b4dcbb0aeb5f4","691f9710cba5372b382fe2cc","index1","<span style='color:red'>Fail,<span style='color:red'>Fail,<span style='color:green'>Lift,<span style='color:green'>Lift,<span style='color:red'>Fail,<span style='color:red'>Fail,<span style='color:red'>Fail,<span style='color:red'>Fail,<span style='color:green'>Lift,<span style='color:red'>Fail,<span style='color:red'>Fail,<span style='color:green'>Lift","<span style='color:red'>Fail,<span style='color:red'>Fail,<span style='color:green'>Lift,<span style='color:green'>Lift,<span style='color:green'>Lift,<span style='color:green'>Lift,<span style='color:green'>Lift,<span style='color:red'>Fail,<span style='color:green'>Lift,<span style='color:green'>Lift,<span style='color:red'>Fail,<span style='color:green'>Lift","<span style='color:red'>Fail,<span style='color:green'>Lift,<span style='color:green'>Lift,<span style='color:red'>Fail,<span style='color:green'>Lift,<span style='color:green'>Lift","0,0,1,1,0,0,0,0,1,0,0,1","0,0,1,1,1,1,1,0,1,1,0,1","0,1,1,0,1,1",10,20,20,"","","","","{""box1"":""20"",""box2"":""20""}","",6,"round2_ready",2,6,2,NA,NA,NA,NA,NA,NA,NA,NA,NA,NA,NA,NA,NA,NA,20,20,20,20,NA,NA,NA,NA,NA,NA,NA,NA,NA,NA,NA,NA,NA,NA,NA,NA,NA,NA,"",NA,NA,NA,NA,NA,NA,NA,NA,NA,2025-11-20 23:05:54
"11782.300000011921","https://psyc-201.github.io/xiang2023/exp/index1.html?PROLIFIC_PID=REDACTED&STUDY_ID=691f8ca61c6b4dcbb0aeb5f4&SESSION_ID=691f9710cba5372b382fe2cc","survey-html-form",40,938927,"0.0-355.0","QGfAw+bPUydOAKkzEx99ZHcnyQLfjkRwaUyObWD/grQ31oZlYGmXSpCGyqfV3rw2VYz/IvcD1kFzdOUEq4EdFMm7hQyEKMWUy+QwWUlYw6Hzu/2klX1p6yP93oNAGPJMjumLoAd/gT/7LICfeVPutMSENO6zmYyN9oW7gFZoHNRaS4DS82aQ+W2A3fBsDzxwBzeHZm8+gwdNGaDENcaac7u9kjdfO27a/hPQqTZMZkz907sUyne/O3Mn9GdUsv3tNXhRl48zjqJp8wBJSV2GJcgCJAG5QOljz+Q7bxgC/VW2n5oeOvtxNovvkIiHEoCer2M2GVHLkDF7Hi3Q2yB8cg==","691f8ca61c6b4dcbb0aeb5f4","691f9710cba5372b382fe2cc","index1","<span style='color:red'>Fail,<span style='color:red'>Fail,<span style='color:green'>Lift,<span style='color:green'>Lift,<span style='color:red'>Fail,<span style='color:red'>Fail,<span style='color:red'>Fail,<span style='color:red'>Fail,<span style='color:green'>Lift,<span style='color:red'>Fail,<span style='color:red'>Fail,<span style='color:green'>Lift","<span style='color:red'>Fail,<span style='color:red'>Fail,<span style='color:green'>Lift,<span style='color:green'>Lift,<span style='color:green'>Lift,<span style='color:green'>Lift,<span style='color:green'>Lift,<span style='color:red'>Fail,<span style='color:green'>Lift,<span style='color:green'>Lift,<span style='color:red'>Fail,<span style='color:green'>Lift","<span style='color:red'>Fail,<span style='color:green'>Lift,<span style='color:green'>Lift,<span style='color:red'>Fail,<span style='color:green'>Lift,<span style='color:green'>Lift","0,0,1,1,0,0,0,0,1,0,0,1","0,0,1,1,1,1,1,0,1,1,0,1","0,1,1,0,1,1",10,20,20,"","","","","{""box1"":""5"",""box2"":""2"",""box3"":""80""}","",6,"round2_outcome",3,6,2,5,2,80,NA,1,0,20,NA,NA,NA,NA,NA,NA,NA,NA,NA,NA,NA,5,2,80,NA,1,0,20,NA,NA,NA,NA,NA,NA,NA,NA,NA,NA,NA,"",NA,NA,NA,NA,NA,NA,NA,NA,NA,2025-11-20 23:05:54
"6129.800000011921","https://psyc-201.github.io/xiang2023/exp/index1.html?PROLIFIC_PID=REDACTED&STUDY_ID=691f8ca61c6b4dcbb0aeb5f4&SESSION_ID=691f9710cba5372b382fe2cc","survey-html-form",41,945058,"0.0-356.0","QGfAw+bPUydOAKkzEx99ZHcnyQLfjkRwaUyObWD/grQ31oZlYGmXSpCGyqfV3rw2VYz/IvcD1kFzdOUEq4EdFMm7hQyEKMWUy+QwWUlYw6Hzu/2klX1p6yP93oNAGPJMjumLoAd/gT/7LICfeVPutMSENO6zmYyN9oW7gFZoHNRaS4DS82aQ+W2A3fBsDzxwBzeHZm8+gwdNGaDENcaac7u9kjdfO27a/hPQqTZMZkz907sUyne/O3Mn9GdUsv3tNXhRl48zjqJp8wBJSV2GJcgCJAG5QOljz+Q7bxgC/VW2n5oeOvtxNovvkIiHEoCer2M2GVHLkDF7Hi3Q2yB8cg==","691f8ca61c6b4dcbb0aeb5f4","691f9710cba5372b382fe2cc","index1","<span style='color:red'>Fail,<span style='color:red'>Fail,<span style='color:green'>Lift,<span style='color:green'>Lift,<span style='color:red'>Fail,<span style='color:red'>Fail,<span style='color:red'>Fail,<span style='color:red'>Fail,<span style='color:green'>Lift,<span style='color:red'>Fail,<span style='color:red'>Fail,<span style='color:green'>Lift","<span style='color:red'>Fail,<span style='color:red'>Fail,<span style='color:green'>Lift,<span style='color:green'>Lift,<span style='color:green'>Lift,<span style='color:green'>Lift,<span style='color:green'>Lift,<span style='color:red'>Fail,<span style='color:green'>Lift,<span style='color:green'>Lift,<span style='color:red'>Fail,<span style='color:green'>Lift","<span style='color:red'>Fail,<span style='color:green'>Lift,<span style='color:green'>Lift,<span style='color:red'>Fail,<span style='color:green'>Lift,<span style='color:green'>Lift","0,0,1,1,0,0,0,0,1,0,0,1","0,0,1,1,1,1,1,0,1,1,0,1","0,1,1,0,1,1",10,20,20,"","","","","{""box1"":""30""}","",6,"round3_ready",4,6,3,NA,NA,NA,NA,NA,NA,NA,NA,NA,NA,NA,NA,NA,NA,30,30,NA,NA,NA,NA,NA,NA,NA,NA,NA,30,30,NA,NA,NA,NA,NA,NA,NA,NA,NA,"",NA,NA,NA,NA,NA,NA,NA,NA,NA,2025-11-20 23:05:54
"11452.09999999404","https://psyc-201.github.io/xiang2023/exp/index1.html?PROLIFIC_PID=REDACTED&STUDY_ID=691f8ca61c6b4dcbb0aeb5f4&SESSION_ID=691f9710cba5372b382fe2cc","survey-html-form",42,956512,"0.0-358.0-0.0","QGfAw+bPUydOAKkzEx99ZHcnyQLfjkRwaUyObWD/grQ31oZlYGmXSpCGyqfV3rw2VYz/IvcD1kFzdOUEq4EdFMm7hQyEKMWUy+QwWUlYw6Hzu/2klX1p6yP93oNAGPJMjumLoAd/gT/7LICfeVPutMSENO6zmYyN9oW7gFZoHNRaS4DS82aQ+W2A3fBsDzxwBzeHZm8+gwdNGaDENcaac7u9kjdfO27a/hPQqTZMZkz907sUyne/O3Mn9GdUsv3tNXhRl48zjqJp8wBJSV2GJcgCJAG5QOljz+Q7bxgC/VW2n5oeOvtxNovvkIiHEoCer2M2GVHLkDF7Hi3Q2yB8cg==","691f8ca61c6b4dcbb0aeb5f4","691f9710cba5372b382fe2cc","index1","<span style='color:red'>Fail,<span style='color:red'>Fail,<span style='color:green'>Lift,<span style='color:green'>Lift,<span style='color:red'>Fail,<span style='color:red'>Fail,<span style='color:red'>Fail,<span style='color:red'>Fail,<span style='color:green'>Lift,<span style='color:red'>Fail,<span style='color:red'>Fail,<span style='color:green'>Lift","<span style='color:red'>Fail,<span style='color:red'>Fail,<span style='color:green'>Lift,<span style='color:green'>Lift,<span style='color:green'>Lift,<span style='color:green'>Lift,<span style='color:green'>Lift,<span style='color:red'>Fail,<span style='color:green'>Lift,<span style='color:green'>Lift,<span style='color:red'>Fail,<span style='color:green'>Lift","<span style='color:red'>Fail,<span style='color:green'>Lift,<span style='color:green'>Lift,<span style='color:red'>Fail,<span style='color:green'>Lift,<span style='color:green'>Lift","0,0,1,1,0,0,0,0,1,0,0,1","0,0,1,1,1,1,1,0,1,1,0,1","0,1,1,0,1,1",10,20,20,"","","","","{""box1"":""5"",""box2"":""1"",""box3"":""999"",""box4"":""999""}","",6,"round3_fail",5,6,3,5,1,NA,NA,0,0,20,NA,NA,NA,NA,NA,NA,NA,NA,NA,NA,NA,NA,NA,NA,NA,NA,NA,NA,NA,NA,5,1,NA,NA,0,0,20,1,1,"",NA,NA,NA,NA,NA,NA,NA,NA,NA,2025-11-20 23:05:54
"35917.09999999404","https://psyc-201.github.io/xiang2023/exp/index1.html?PROLIFIC_PID=REDACTED&STUDY_ID=691f8ca61c6b4dcbb0aeb5f4&SESSION_ID=691f9710cba5372b382fe2cc","survey-text",43,992431,"0.0-361.0","QGfAw+bPUydOAKkzEx99ZHcnyQLfjkRwaUyObWD/grQ31oZlYGmXSpCGyqfV3rw2VYz/IvcD1kFzdOUEq4EdFMm7hQyEKMWUy+QwWUlYw6Hzu/2klX1p6yP93oNAGPJMjumLoAd/gT/7LICfeVPutMSENO6zmYyN9oW7gFZoHNRaS4DS82aQ+W2A3fBsDzxwBzeHZm8+gwdNGaDENcaac7u9kjdfO27a/hPQqTZMZkz907sUyne/O3Mn9GdUsv3tNXhRl48zjqJp8wBJSV2GJcgCJAG5QOljz+Q7bxgC/VW2n5oeOvtxNovvkIiHEoCer2M2GVHLkDF7Hi3Q2yB8cg==","691f8ca61c6b4dcbb0aeb5f4","691f9710cba5372b382fe2cc","index1","<span style='color:red'>Fail,<span style='color:red'>Fail,<span style='color:green'>Lift,<span style='color:green'>Lift,<span style='color:red'>Fail,<span style='color:red'>Fail,<span style='color:red'>Fail,<span style='color:red'>Fail,<span style='color:green'>Lift,<span style='color:red'>Fail,<span style='color:red'>Fail,<span style='color:green'>Lift","<span style='color:red'>Fail,<span style='color:red'>Fail,<span style='color:green'>Lift,<span style='color:green'>Lift,<span style='color:green'>Lift,<span style='color:green'>Lift,<span style='color:green'>Lift,<span style='color:red'>Fail,<span style='color:green'>Lift,<span style='color:green'>Lift,<span style='color:red'>Fail,<span style='color:green'>Lift","<span style='color:red'>Fail,<span style='color:green'>Lift,<span style='color:green'>Lift,<span style='color:red'>Fail,<span style='color:green'>Lift,<span style='color:green'>Lift","0,0,1,1,0,0,0,0,1,0,0,1","0,0,1,1,1,1,1,0,1,1,0,1","0,1,1,0,1,1",10,20,20,"","","","","{""Q0"":""I was tasked with estimating the strength of a couple of contestants. I was also tasked with predicting the odds that they would lift containers valued at different amounts.""}","",NA,"",NA,NA,NA,NA,NA,NA,NA,NA,NA,NA,NA,NA,NA,NA,NA,NA,NA,NA,NA,NA,NA,NA,NA,NA,NA,NA,NA,NA,NA,NA,NA,NA,NA,NA,NA,NA,NA,NA,NA,"",NA,NA,NA,NA,NA,NA,NA,NA,NA,2025-11-20 23:05:54
"13098.799999982119","https://psyc-201.github.io/xiang2023/exp/index1.html?PROLIFIC_PID=REDACTED&STUDY_ID=691f8ca61c6b4dcbb0aeb5f4&SESSION_ID=691f9710cba5372b382fe2cc","survey-text",44,1005531,"0.0-362.0","QGfAw+bPUydOAKkzEx99ZHcnyQLfjkRwaUyObWD/grQ31oZlYGmXSpCGyqfV3rw2VYz/IvcD1kFzdOUEq4EdFMm7hQyEKMWUy+QwWUlYw6Hzu/2klX1p6yP93oNAGPJMjumLoAd/gT/7LICfeVPutMSENO6zmYyN9oW7gFZoHNRaS4DS82aQ+W2A3fBsDzxwBzeHZm8+gwdNGaDENcaac7u9kjdfO27a/hPQqTZMZkz907sUyne/O3Mn9GdUsv3tNXhRl48zjqJp8wBJSV2GJcgCJAG5QOljz+Q7bxgC/VW2n5oeOvtxNovvkIiHEoCer2M2GVHLkDF7Hi3Q2yB8cg==","691f8ca61c6b4dcbb0aeb5f4","691f9710cba5372b382fe2cc","index1","<span style='color:red'>Fail,<span style='color:red'>Fail,<span style='color:green'>Lift,<span style='color:green'>Lift,<span style='color:red'>Fail,<span style='color:red'>Fail,<span style='color:red'>Fail,<span style='color:red'>Fail,<span style='color:green'>Lift,<span style='color:red'>Fail,<span style='color:red'>Fail,<span style='color:green'>Lift","<span style='color:red'>Fail,<span style='color:red'>Fail,<span style='color:green'>Lift,<span style='color:green'>Lift,<span style='color:green'>Lift,<span style='color:green'>Lift,<span style='color:green'>Lift,<span style='color:red'>Fail,<span style='color:green'>Lift,<span style='color:green'>Lift,<span style='color:red'>Fail,<span style='color:green'>Lift","<span style='color:red'>Fail,<span style='color:green'>Lift,<span style='color:green'>Lift,<span style='color:red'>Fail,<span style='color:green'>Lift,<span style='color:green'>Lift","0,0,1,1,0,0,0,0,1,0,0,1","0,0,1,1,1,1,1,0,1,1,0,1","0,1,1,0,1,1",10,20,20,"","","","","{""Q0"":""""}","",NA,"",NA,NA,NA,NA,NA,NA,NA,NA,NA,NA,NA,NA,NA,NA,NA,NA,NA,NA,NA,NA,NA,NA,NA,NA,NA,NA,NA,NA,NA,NA,NA,NA,NA,NA,NA,NA,NA,NA,NA,"[{""event"":""fullscreenenter"",""trial"":1,""time"":5039}]",5,3,NA,50,0,0.5,NA,NA,NA,2025-11-20 23:05:54
"7384.800000011921","https://psyc-201.github.io/xiang2023/exp/index1.html?PROLIFIC_PID=REDACTED&STUDY_ID=691f8ca61c6b4dcbb0aeb5f4&SESSION_ID=691f9710cba5372b382fe2cc","html-button-response",45,1012917,"0.0-363.0","QGfAw+bPUydOAKkzEx99ZHcnyQLfjkRwaUyObWD/grQ31oZlYGmXSpCGyqfV3rw2VYz/IvcD1kFzdOUEq4EdFMm7hQyEKMWUy+QwWUlYw6Hzu/2klX1p6yP93oNAGPJMjumLoAd/gT/7LICfeVPutMSENO6zmYyN9oW7gFZoHNRaS4DS82aQ+W2A3fBsDzxwBzeHZm8+gwdNGaDENcaac7u9kjdfO27a/hPQqTZMZkz907sUyne/O3Mn9GdUsv3tNXhRl48zjqJp8wBJSV2GJcgCJAG5QOljz+Q7bxgC/VW2n5oeOvtxNovvkIiHEoCer2M2GVHLkDF7Hi3Q2yB8cg==","691f8ca61c6b4dcbb0aeb5f4","691f9710cba5372b382fe2cc","index1","<span style='color:red'>Fail,<span style='color:red'>Fail,<span style='color:green'>Lift,<span style='color:green'>Lift,<span style='color:red'>Fail,<span style='color:red'>Fail,<span style='color:red'>Fail,<span style='color:red'>Fail,<span style='color:green'>Lift,<span style='color:red'>Fail,<span style='color:red'>Fail,<span style='color:green'>Lift","<span style='color:red'>Fail,<span style='color:red'>Fail,<span style='color:green'>Lift,<span style='color:green'>Lift,<span style='color:green'>Lift,<span style='color:green'>Lift,<span style='color:green'>Lift,<span style='color:red'>Fail,<span style='color:green'>Lift,<span style='color:green'>Lift,<span style='color:red'>Fail,<span style='color:green'>Lift","<span style='color:red'>Fail,<span style='color:green'>Lift,<span style='color:green'>Lift,<span style='color:red'>Fail,<span style='color:green'>Lift,<span style='color:green'>Lift","0,0,1,1,0,0,0,0,1,0,0,1","0,0,1,1,1,1,1,0,1,1,0,1","0,1,1,0,1,1",10,20,20,"","","<p> We randomly picked <b>Contest 5, Round 3</b> to calculate your bonus. </p><p> The outcome of Contestant I and J on that round is <span style='color:red'>Fail</span>. </p><p> The probability you entered was 50. </p><p><b> You won a bonus of $0.50!</b></p><p> IMPORTANT: Please click 'Next' to complete the game. </p>","","","",NA,"",NA,NA,NA,NA,NA,NA,NA,NA,NA,NA,NA,NA,NA,NA,NA,NA,NA,NA,NA,NA,NA,NA,NA,NA,NA,NA,NA,NA,NA,NA,NA,NA,NA,NA,NA,NA,NA,NA,NA,"",NA,NA,NA,NA,NA,NA,0,2,1,2025-11-20 23:05:54
