"rt","url","trial_type","trial_index","time_elapsed","internal_node_id","encryptedProlificId","studyId","sessionId","expIndex","round1_outcomes","round2_outcomes","round3_outcomes","round1_o","round2_o","round3_o","round1_reward","round2_reward","round3_reward","success","view_history","stimulus","key_press","responses","question_order","j","Stage","stage","contest","round","strength_a","strength_b","effort_a","effort_b","outcome_a","outcome_b","reward","r1_strength_a","r1_strength_b","r1_effort_a","r1_effort_b","r1_outcome_a","r1_outcome_b","r1_reward","probability_a","probability_b","r2_prob_a","r2_prob_b","r2_strength_a","r2_strength_b","r2_effort_a","r2_effort_b","r2_outcome_a","r2_outcome_b","r2_reward","r3_prob_a","r3_prob_b","r3_strength_a","r3_strength_b","r3_effort_a","r3_effort_b","r3_outcome_a","r3_outcome_b","r3_reward","attention_check","count","screen","pick_contest","pick_round","pick_side","trial_probability","trial_outcome","bonus","button_pressed","attention_sum","attention","datapipe_meta.attributes.date_modified"
"11462.300000011921","https://psyc-201.github.io/xiang2023/exp/index1.html?PROLIFIC_PID=REDACTED&STUDY_ID=691f8ca61c6b4dcbb0aeb5f4&SESSION_ID=691fbdd6979be4775b0b1689","external-html",0,11939,"0.0-0.0","c43FLjbrguhv0PUPWa9UlFE2AIytyBuj+yaBnm5Pe4qajggJdZmgbeVw73q6F12yIZVIttkvXHJzMh2VZ/zokAjHdU5G8ekzNk7ZJleBf4IRRXj1bqJMbVxaTQhd6uSgV2ay25+DT1zznlkD9AmU0/z5x8IDAetja8yOgt2WnhaDqfynnwmExpCUGHPdsNGBGLj8qbWaKYe11vP4a7pHthBxe/u9HZ2BITQctzM1jnyL36iN+1qKOrKdrKYfQ9iTKr6IkJs1gXtwwDvFFKNK8fvkeYayoCKzCuaXiMM2/HYx+8r1yI7rf5yZCOS8RcqKtTFjO5/16KUgrBYQpGqPwA==","691f8ca61c6b4dcbb0aeb5f4","691fbdd6979be4775b0b1689","index1","<span style='color:red'>Fail,<span style='color:red'>Fail,<span style='color:green'>Lift,<span style='color:green'>Lift,<span style='color:red'>Fail,<span style='color:red'>Fail,<span style='color:red'>Fail,<span style='color:red'>Fail,<span style='color:red'>Fail,<span style='color:green'>Lift,<span style='color:green'>Lift,<span style='color:red'>Fail","<span style='color:red'>Fail,<span style='color:red'>Fail,<span style='color:green'>Lift,<span style='color:green'>Lift,<span style='color:green'>Lift,<span style='color:green'>Lift,<span style='color:red'>Fail,<span style='color:green'>Lift,<span style='color:green'>Lift,<span style='color:green'>Lift,<span style='color:green'>Lift,<span style='color:red'>Fail","<span style='color:red'>Fail,<span style='color:green'>Lift,<span style='color:green'>Lift,<span style='color:red'>Fail,<span style='color:green'>Lift,<span style='color:green'>Lift","0,0,1,1,0,0,0,0,0,1,1,0","0,0,1,1,1,1,0,1,1,1,1,0","0,1,1,0,1,1",10,20,20,"","","","","","",NA,"",NA,NA,NA,NA,NA,NA,NA,NA,NA,NA,NA,NA,NA,NA,NA,NA,NA,NA,NA,NA,NA,NA,NA,NA,NA,NA,NA,NA,NA,NA,NA,NA,NA,NA,NA,NA,NA,NA,NA,"",NA,NA,NA,NA,NA,NA,NA,NA,NA,2025-11-21 01:35:32
"","https://psyc-201.github.io/xiang2023/exp/index1.html?PROLIFIC_PID=REDACTED&STUDY_ID=691f8ca61c6b4dcbb0aeb5f4&SESSION_ID=691fbdd6979be4775b0b1689","fullscreen",1,20221,"0.0-1.0","c43FLjbrguhv0PUPWa9UlFE2AIytyBuj+yaBnm5Pe4qajggJdZmgbeVw73q6F12yIZVIttkvXHJzMh2VZ/zokAjHdU5G8ekzNk7ZJleBf4IRRXj1bqJMbVxaTQhd6uSgV2ay25+DT1zznlkD9AmU0/z5x8IDAetja8yOgt2WnhaDqfynnwmExpCUGHPdsNGBGLj8qbWaKYe11vP4a7pHthBxe/u9HZ2BITQctzM1jnyL36iN+1qKOrKdrKYfQ9iTKr6IkJs1gXtwwDvFFKNK8fvkeYayoCKzCuaXiMM2/HYx+8r1yI7rf5yZCOS8RcqKtTFjO5/16KUgrBYQpGqPwA==","691f8ca61c6b4dcbb0aeb5f4","691fbdd6979be4775b0b1689","index1","<span style='color:red'>Fail,<span style='color:red'>Fail,<span style='color:green'>Lift,<span style='color:green'>Lift,<span style='color:red'>Fail,<span style='color:red'>Fail,<span style='color:red'>Fail,<span style='color:red'>Fail,<span style='color:red'>Fail,<span style='color:green'>Lift,<span style='color:green'>Lift,<span style='color:red'>Fail","<span style='color:red'>Fail,<span style='color:red'>Fail,<span style='color:green'>Lift,<span style='color:green'>Lift,<span style='color:green'>Lift,<span style='color:green'>Lift,<span style='color:red'>Fail,<span style='color:green'>Lift,<span style='color:green'>Lift,<span style='color:green'>Lift,<span style='color:green'>Lift,<span style='color:red'>Fail","<span style='color:red'>Fail,<span style='color:green'>Lift,<span style='color:green'>Lift,<span style='color:red'>Fail,<span style='color:green'>Lift,<span style='color:green'>Lift","0,0,1,1,0,0,0,0,0,1,1,0","0,0,1,1,1,1,0,1,1,1,1,0","0,1,1,0,1,1",10,20,20,"true","","","","","",NA,"",NA,NA,NA,NA,NA,NA,NA,NA,NA,NA,NA,NA,NA,NA,NA,NA,NA,NA,NA,NA,NA,NA,NA,NA,NA,NA,NA,NA,NA,NA,NA,NA,NA,NA,NA,NA,NA,NA,NA,"",NA,NA,NA,NA,NA,NA,NA,NA,NA,2025-11-21 01:35:32
"228326.10000002384","https://psyc-201.github.io/xiang2023/exp/index1.html?PROLIFIC_PID=REDACTED&STUDY_ID=691f8ca61c6b4dcbb0aeb5f4&SESSION_ID=691fbdd6979be4775b0b1689","instructions",2,248550,"0.0-2.0","c43FLjbrguhv0PUPWa9UlFE2AIytyBuj+yaBnm5Pe4qajggJdZmgbeVw73q6F12yIZVIttkvXHJzMh2VZ/zokAjHdU5G8ekzNk7ZJleBf4IRRXj1bqJMbVxaTQhd6uSgV2ay25+DT1zznlkD9AmU0/z5x8IDAetja8yOgt2WnhaDqfynnwmExpCUGHPdsNGBGLj8qbWaKYe11vP4a7pHthBxe/u9HZ2BITQctzM1jnyL36iN+1qKOrKdrKYfQ9iTKr6IkJs1gXtwwDvFFKNK8fvkeYayoCKzCuaXiMM2/HYx+8r1yI7rf5yZCOS8RcqKtTFjO5/16KUgrBYQpGqPwA==","691f8ca61c6b4dcbb0aeb5f4","691fbdd6979be4775b0b1689","index1","<span style='color:red'>Fail,<span style='color:red'>Fail,<span style='color:green'>Lift,<span style='color:green'>Lift,<span style='color:red'>Fail,<span style='color:red'>Fail,<span style='color:red'>Fail,<span style='color:red'>Fail,<span style='color:red'>Fail,<span style='color:green'>Lift,<span style='color:green'>Lift,<span style='color:red'>Fail","<span style='color:red'>Fail,<span style='color:red'>Fail,<span style='color:green'>Lift,<span style='color:green'>Lift,<span style='color:green'>Lift,<span style='color:green'>Lift,<span style='color:red'>Fail,<span style='color:green'>Lift,<span style='color:green'>Lift,<span style='color:green'>Lift,<span style='color:green'>Lift,<span style='color:red'>Fail","<span style='color:red'>Fail,<span style='color:green'>Lift,<span style='color:green'>Lift,<span style='color:red'>Fail,<span style='color:green'>Lift,<span style='color:green'>Lift","0,0,1,1,0,0,0,0,0,1,1,0","0,0,1,1,1,1,0,1,1,1,1,0","0,1,1,0,1,1",10,20,20,"","[{""page_index"":0,""viewing_time"":34728.60000002384},{""page_index"":1,""viewing_time"":25037.399999976158},{""page_index"":2,""viewing_time"":14752.5},{""page_index"":3,""viewing_time"":70671.40000000596},{""page_index"":4,""viewing_time"":20110.09999999404},{""page_index"":5,""viewing_time"":40446.80000001192},{""page_index"":6,""viewing_time"":16083},{""page_index"":5,""viewing_time"":5647.5},{""page_index"":6,""viewing_time"":846.5}]","","","","",NA,"",NA,NA,NA,NA,NA,NA,NA,NA,NA,NA,NA,NA,NA,NA,NA,NA,NA,NA,NA,NA,NA,NA,NA,NA,NA,NA,NA,NA,NA,NA,NA,NA,NA,NA,NA,NA,NA,NA,NA,"",NA,NA,NA,NA,NA,NA,NA,NA,NA,2025-11-21 01:35:32
"null","https://psyc-201.github.io/xiang2023/exp/index1.html?PROLIFIC_PID=REDACTED&STUDY_ID=691f8ca61c6b4dcbb0aeb5f4&SESSION_ID=691fbdd6979be4775b0b1689","html-keyboard-response",3,249567,"0.0-3.0","c43FLjbrguhv0PUPWa9UlFE2AIytyBuj+yaBnm5Pe4qajggJdZmgbeVw73q6F12yIZVIttkvXHJzMh2VZ/zokAjHdU5G8ekzNk7ZJleBf4IRRXj1bqJMbVxaTQhd6uSgV2ay25+DT1zznlkD9AmU0/z5x8IDAetja8yOgt2WnhaDqfynnwmExpCUGHPdsNGBGLj8qbWaKYe11vP4a7pHthBxe/u9HZ2BITQctzM1jnyL36iN+1qKOrKdrKYfQ9iTKr6IkJs1gXtwwDvFFKNK8fvkeYayoCKzCuaXiMM2/HYx+8r1yI7rf5yZCOS8RcqKtTFjO5/16KUgrBYQpGqPwA==","691f8ca61c6b4dcbb0aeb5f4","691fbdd6979be4775b0b1689","index1","<span style='color:red'>Fail,<span style='color:red'>Fail,<span style='color:green'>Lift,<span style='color:green'>Lift,<span style='color:red'>Fail,<span style='color:red'>Fail,<span style='color:red'>Fail,<span style='color:red'>Fail,<span style='color:red'>Fail,<span style='color:green'>Lift,<span style='color:green'>Lift,<span style='color:red'>Fail","<span style='color:red'>Fail,<span style='color:red'>Fail,<span style='color:green'>Lift,<span style='color:green'>Lift,<span style='color:green'>Lift,<span style='color:green'>Lift,<span style='color:red'>Fail,<span style='color:green'>Lift,<span style='color:green'>Lift,<span style='color:green'>Lift,<span style='color:green'>Lift,<span style='color:red'>Fail","<span style='color:red'>Fail,<span style='color:green'>Lift,<span style='color:green'>Lift,<span style='color:red'>Fail,<span style='color:green'>Lift,<span style='color:green'>Lift","0,0,1,1,0,0,0,0,0,1,1,0","0,0,1,1,1,1,0,1,1,1,1,0","0,1,1,0,1,1",10,20,20,"",""," ","null","","",NA,"",NA,NA,NA,NA,NA,NA,NA,NA,NA,NA,NA,NA,NA,NA,NA,NA,NA,NA,NA,NA,NA,NA,NA,NA,NA,NA,NA,NA,NA,NA,NA,NA,NA,NA,NA,NA,NA,NA,NA,"",NA,NA,NA,NA,NA,NA,NA,NA,NA,2025-11-21 01:35:32
"143399.80000001192","https://psyc-201.github.io/xiang2023/exp/index1.html?PROLIFIC_PID=REDACTED&STUDY_ID=691f8ca61c6b4dcbb0aeb5f4&SESSION_ID=691fbdd6979be4775b0b1689","survey-multi-choice",4,392975,"0.0-4.0","c43FLjbrguhv0PUPWa9UlFE2AIytyBuj+yaBnm5Pe4qajggJdZmgbeVw73q6F12yIZVIttkvXHJzMh2VZ/zokAjHdU5G8ekzNk7ZJleBf4IRRXj1bqJMbVxaTQhd6uSgV2ay25+DT1zznlkD9AmU0/z5x8IDAetja8yOgt2WnhaDqfynnwmExpCUGHPdsNGBGLj8qbWaKYe11vP4a7pHthBxe/u9HZ2BITQctzM1jnyL36iN+1qKOrKdrKYfQ9iTKr6IkJs1gXtwwDvFFKNK8fvkeYayoCKzCuaXiMM2/HYx+8r1yI7rf5yZCOS8RcqKtTFjO5/16KUgrBYQpGqPwA==","691f8ca61c6b4dcbb0aeb5f4","691fbdd6979be4775b0b1689","index1","<span style='color:red'>Fail,<span style='color:red'>Fail,<span style='color:green'>Lift,<span style='color:green'>Lift,<span style='color:red'>Fail,<span style='color:red'>Fail,<span style='color:red'>Fail,<span style='color:red'>Fail,<span style='color:red'>Fail,<span style='color:green'>Lift,<span style='color:green'>Lift,<span style='color:red'>Fail","<span style='color:red'>Fail,<span style='color:red'>Fail,<span style='color:green'>Lift,<span style='color:green'>Lift,<span style='color:green'>Lift,<span style='color:green'>Lift,<span style='color:red'>Fail,<span style='color:green'>Lift,<span style='color:green'>Lift,<span style='color:green'>Lift,<span style='color:green'>Lift,<span style='color:red'>Fail","<span style='color:red'>Fail,<span style='color:green'>Lift,<span style='color:green'>Lift,<span style='color:red'>Fail,<span style='color:green'>Lift,<span style='color:green'>Lift","0,0,1,1,0,0,0,0,0,1,1,0","0,0,1,1,1,1,0,1,1,1,1,0","0,1,1,0,1,1",10,20,20,"","","","","{""Q0"":""It consists of multiple contests, each contest with three rounds."",""Q1"":""When a new contest begins."",""Q2"":""The box weight always stays the same (equivalent to strength of 5)."",""Q3"":""Each will get $20."",""Q4"":""How close my guesses are to the actual outcome.""}","[0,1,2,3,4]",NA,"",NA,NA,NA,NA,NA,NA,NA,NA,NA,NA,NA,NA,NA,NA,NA,NA,NA,NA,NA,NA,NA,NA,NA,NA,NA,NA,NA,NA,NA,NA,NA,NA,NA,NA,NA,NA,NA,NA,NA,"",NA,NA,NA,NA,NA,NA,NA,NA,NA,2025-11-21 01:35:32
"24114","https://psyc-201.github.io/xiang2023/exp/index1.html?PROLIFIC_PID=REDACTED&STUDY_ID=691f8ca61c6b4dcbb0aeb5f4&SESSION_ID=691fbdd6979be4775b0b1689","instructions",5,417106,"0.0-305.0","c43FLjbrguhv0PUPWa9UlFE2AIytyBuj+yaBnm5Pe4qajggJdZmgbeVw73q6F12yIZVIttkvXHJzMh2VZ/zokAjHdU5G8ekzNk7ZJleBf4IRRXj1bqJMbVxaTQhd6uSgV2ay25+DT1zznlkD9AmU0/z5x8IDAetja8yOgt2WnhaDqfynnwmExpCUGHPdsNGBGLj8qbWaKYe11vP4a7pHthBxe/u9HZ2BITQctzM1jnyL36iN+1qKOrKdrKYfQ9iTKr6IkJs1gXtwwDvFFKNK8fvkeYayoCKzCuaXiMM2/HYx+8r1yI7rf5yZCOS8RcqKtTFjO5/16KUgrBYQpGqPwA==","691f8ca61c6b4dcbb0aeb5f4","691fbdd6979be4775b0b1689","index1","<span style='color:red'>Fail,<span style='color:red'>Fail,<span style='color:green'>Lift,<span style='color:green'>Lift,<span style='color:red'>Fail,<span style='color:red'>Fail,<span style='color:red'>Fail,<span style='color:red'>Fail,<span style='color:red'>Fail,<span style='color:green'>Lift,<span style='color:green'>Lift,<span style='color:red'>Fail","<span style='color:red'>Fail,<span style='color:red'>Fail,<span style='color:green'>Lift,<span style='color:green'>Lift,<span style='color:green'>Lift,<span style='color:green'>Lift,<span style='color:red'>Fail,<span style='color:green'>Lift,<span style='color:green'>Lift,<span style='color:green'>Lift,<span style='color:green'>Lift,<span style='color:red'>Fail","<span style='color:red'>Fail,<span style='color:green'>Lift,<span style='color:green'>Lift,<span style='color:red'>Fail,<span style='color:green'>Lift,<span style='color:green'>Lift","0,0,1,1,0,0,0,0,0,1,1,0","0,0,1,1,1,1,0,1,1,1,1,0","0,1,1,0,1,1",10,20,20,"","[{""page_index"":0,""viewing_time"":18996.90000000596},{""page_index"":1,""viewing_time"":5112.799999982119}]","","","","",NA,"",NA,NA,NA,NA,NA,NA,NA,NA,NA,NA,NA,NA,NA,NA,NA,NA,NA,NA,NA,NA,NA,NA,NA,NA,NA,NA,NA,NA,NA,NA,NA,NA,NA,NA,NA,NA,NA,NA,NA,"",NA,NA,NA,NA,NA,NA,NA,NA,NA,2025-11-21 01:35:32
"null","https://psyc-201.github.io/xiang2023/exp/index1.html?PROLIFIC_PID=REDACTED&STUDY_ID=691f8ca61c6b4dcbb0aeb5f4&SESSION_ID=691fbdd6979be4775b0b1689","html-keyboard-response",6,418123,"0.0-306.0","c43FLjbrguhv0PUPWa9UlFE2AIytyBuj+yaBnm5Pe4qajggJdZmgbeVw73q6F12yIZVIttkvXHJzMh2VZ/zokAjHdU5G8ekzNk7ZJleBf4IRRXj1bqJMbVxaTQhd6uSgV2ay25+DT1zznlkD9AmU0/z5x8IDAetja8yOgt2WnhaDqfynnwmExpCUGHPdsNGBGLj8qbWaKYe11vP4a7pHthBxe/u9HZ2BITQctzM1jnyL36iN+1qKOrKdrKYfQ9iTKr6IkJs1gXtwwDvFFKNK8fvkeYayoCKzCuaXiMM2/HYx+8r1yI7rf5yZCOS8RcqKtTFjO5/16KUgrBYQpGqPwA==","691f8ca61c6b4dcbb0aeb5f4","691fbdd6979be4775b0b1689","index1","<span style='color:red'>Fail,<span style='color:red'>Fail,<span style='color:green'>Lift,<span style='color:green'>Lift,<span style='color:red'>Fail,<span style='color:red'>Fail,<span style='color:red'>Fail,<span style='color:red'>Fail,<span style='color:red'>Fail,<span style='color:green'>Lift,<span style='color:green'>Lift,<span style='color:red'>Fail","<span style='color:red'>Fail,<span style='color:red'>Fail,<span style='color:green'>Lift,<span style='color:green'>Lift,<span style='color:green'>Lift,<span style='color:green'>Lift,<span style='color:red'>Fail,<span style='color:green'>Lift,<span style='color:green'>Lift,<span style='color:green'>Lift,<span style='color:green'>Lift,<span style='color:red'>Fail","<span style='color:red'>Fail,<span style='color:green'>Lift,<span style='color:green'>Lift,<span style='color:red'>Fail,<span style='color:green'>Lift,<span style='color:green'>Lift","0,0,1,1,0,0,0,0,0,1,1,0","0,0,1,1,1,1,0,1,1,1,1,0","0,1,1,0,1,1",10,20,20,"",""," ","null","","",1,"",NA,NA,NA,NA,NA,NA,NA,NA,NA,NA,NA,NA,NA,NA,NA,NA,NA,NA,NA,NA,NA,NA,NA,NA,NA,NA,NA,NA,NA,NA,NA,NA,NA,NA,NA,NA,NA,NA,NA,"",NA,NA,NA,NA,NA,NA,NA,NA,NA,2025-11-21 01:35:32
"null","https://psyc-201.github.io/xiang2023/exp/index1.html?PROLIFIC_PID=REDACTED&STUDY_ID=691f8ca61c6b4dcbb0aeb5f4&SESSION_ID=691fbdd6979be4775b0b1689","html-keyboard-response",7,421138,"0.0-307.0","c43FLjbrguhv0PUPWa9UlFE2AIytyBuj+yaBnm5Pe4qajggJdZmgbeVw73q6F12yIZVIttkvXHJzMh2VZ/zokAjHdU5G8ekzNk7ZJleBf4IRRXj1bqJMbVxaTQhd6uSgV2ay25+DT1zznlkD9AmU0/z5x8IDAetja8yOgt2WnhaDqfynnwmExpCUGHPdsNGBGLj8qbWaKYe11vP4a7pHthBxe/u9HZ2BITQctzM1jnyL36iN+1qKOrKdrKYfQ9iTKr6IkJs1gXtwwDvFFKNK8fvkeYayoCKzCuaXiMM2/HYx+8r1yI7rf5yZCOS8RcqKtTFjO5/16KUgrBYQpGqPwA==","691f8ca61c6b4dcbb0aeb5f4","691fbdd6979be4775b0b1689","index1","<span style='color:red'>Fail,<span style='color:red'>Fail,<span style='color:green'>Lift,<span style='color:green'>Lift,<span style='color:red'>Fail,<span style='color:red'>Fail,<span style='color:red'>Fail,<span style='color:red'>Fail,<span style='color:red'>Fail,<span style='color:green'>Lift,<span style='color:green'>Lift,<span style='color:red'>Fail","<span style='color:red'>Fail,<span style='color:red'>Fail,<span style='color:green'>Lift,<span style='color:green'>Lift,<span style='color:green'>Lift,<span style='color:green'>Lift,<span style='color:red'>Fail,<span style='color:green'>Lift,<span style='color:green'>Lift,<span style='color:green'>Lift,<span style='color:green'>Lift,<span style='color:red'>Fail","<span style='color:red'>Fail,<span style='color:green'>Lift,<span style='color:green'>Lift,<span style='color:red'>Fail,<span style='color:green'>Lift,<span style='color:green'>Lift","0,0,1,1,0,0,0,0,0,1,1,0","0,0,1,1,1,1,0,1,1,1,1,0","0,1,1,0,1,1",10,20,20,"","","<p style='font-size:30px'><b> New Contest! </b></p>","null","","",1,"",NA,NA,NA,NA,NA,NA,NA,NA,NA,NA,NA,NA,NA,NA,NA,NA,NA,NA,NA,NA,NA,NA,NA,NA,NA,NA,NA,NA,NA,NA,NA,NA,NA,NA,NA,NA,NA,NA,NA,"",NA,NA,NA,NA,NA,NA,NA,NA,NA,2025-11-21 01:35:32
"50322.09999999404","https://psyc-201.github.io/xiang2023/exp/index1.html?PROLIFIC_PID=REDACTED&STUDY_ID=691f8ca61c6b4dcbb0aeb5f4&SESSION_ID=691fbdd6979be4775b0b1689","survey-html-form",8,471475,"0.0-308.0","c43FLjbrguhv0PUPWa9UlFE2AIytyBuj+yaBnm5Pe4qajggJdZmgbeVw73q6F12yIZVIttkvXHJzMh2VZ/zokAjHdU5G8ekzNk7ZJleBf4IRRXj1bqJMbVxaTQhd6uSgV2ay25+DT1zznlkD9AmU0/z5x8IDAetja8yOgt2WnhaDqfynnwmExpCUGHPdsNGBGLj8qbWaKYe11vP4a7pHthBxe/u9HZ2BITQctzM1jnyL36iN+1qKOrKdrKYfQ9iTKr6IkJs1gXtwwDvFFKNK8fvkeYayoCKzCuaXiMM2/HYx+8r1yI7rf5yZCOS8RcqKtTFjO5/16KUgrBYQpGqPwA==","691f8ca61c6b4dcbb0aeb5f4","691fbdd6979be4775b0b1689","index1","<span style='color:red'>Fail,<span style='color:red'>Fail,<span style='color:green'>Lift,<span style='color:green'>Lift,<span style='color:red'>Fail,<span style='color:red'>Fail,<span style='color:red'>Fail,<span style='color:red'>Fail,<span style='color:red'>Fail,<span style='color:green'>Lift,<span style='color:green'>Lift,<span style='color:red'>Fail","<span style='color:red'>Fail,<span style='color:red'>Fail,<span style='color:green'>Lift,<span style='color:green'>Lift,<span style='color:green'>Lift,<span style='color:green'>Lift,<span style='color:red'>Fail,<span style='color:green'>Lift,<span style='color:green'>Lift,<span style='color:green'>Lift,<span style='color:green'>Lift,<span style='color:red'>Fail","<span style='color:red'>Fail,<span style='color:green'>Lift,<span style='color:green'>Lift,<span style='color:red'>Fail,<span style='color:green'>Lift,<span style='color:green'>Lift","0,0,1,1,0,0,0,0,0,1,1,0","0,0,1,1,1,1,0,1,1,1,1,0","0,1,1,0,1,1",10,20,20,"","","","","{""box1"":""5"",""box2"":""1"",""box4"":""50""}","",1,"round1_outcome",1,1,1,5,1,NA,50,0,1,10,5,1,NA,50,0,1,10,NA,NA,NA,NA,NA,NA,NA,NA,NA,NA,NA,NA,NA,NA,NA,NA,NA,NA,NA,NA,NA,NA,"",NA,NA,NA,NA,NA,NA,NA,NA,NA,2025-11-21 01:35:32
"27854.40000000596","https://psyc-201.github.io/xiang2023/exp/index1.html?PROLIFIC_PID=REDACTED&STUDY_ID=691f8ca61c6b4dcbb0aeb5f4&SESSION_ID=691fbdd6979be4775b0b1689","survey-html-form",9,499339,"0.0-309.0","c43FLjbrguhv0PUPWa9UlFE2AIytyBuj+yaBnm5Pe4qajggJdZmgbeVw73q6F12yIZVIttkvXHJzMh2VZ/zokAjHdU5G8ekzNk7ZJleBf4IRRXj1bqJMbVxaTQhd6uSgV2ay25+DT1zznlkD9AmU0/z5x8IDAetja8yOgt2WnhaDqfynnwmExpCUGHPdsNGBGLj8qbWaKYe11vP4a7pHthBxe/u9HZ2BITQctzM1jnyL36iN+1qKOrKdrKYfQ9iTKr6IkJs1gXtwwDvFFKNK8fvkeYayoCKzCuaXiMM2/HYx+8r1yI7rf5yZCOS8RcqKtTFjO5/16KUgrBYQpGqPwA==","691f8ca61c6b4dcbb0aeb5f4","691fbdd6979be4775b0b1689","index1","<span style='color:red'>Fail,<span style='color:red'>Fail,<span style='color:green'>Lift,<span style='color:green'>Lift,<span style='color:red'>Fail,<span style='color:red'>Fail,<span style='color:red'>Fail,<span style='color:red'>Fail,<span style='color:red'>Fail,<span style='color:green'>Lift,<span style='color:green'>Lift,<span style='color:red'>Fail","<span style='color:red'>Fail,<span style='color:red'>Fail,<span style='color:green'>Lift,<span style='color:green'>Lift,<span style='color:green'>Lift,<span style='color:green'>Lift,<span style='color:red'>Fail,<span style='color:green'>Lift,<span style='color:green'>Lift,<span style='color:green'>Lift,<span style='color:green'>Lift,<span style='color:red'>Fail","<span style='color:red'>Fail,<span style='color:green'>Lift,<span style='color:green'>Lift,<span style='color:red'>Fail,<span style='color:green'>Lift,<span style='color:green'>Lift","0,0,1,1,0,0,0,0,0,1,1,0","0,0,1,1,1,1,0,1,1,1,1,0","0,1,1,0,1,1",10,20,20,"","","","","{""box1"":""50"",""box2"":""100""}","",1,"round2_ready",2,1,2,NA,NA,NA,NA,NA,NA,NA,NA,NA,NA,NA,NA,NA,NA,50,100,50,100,NA,NA,NA,NA,NA,NA,NA,NA,NA,NA,NA,NA,NA,NA,NA,NA,NA,NA,"",NA,NA,NA,NA,NA,NA,NA,NA,NA,2025-11-21 01:35:32
"23286.40000000596","https://psyc-201.github.io/xiang2023/exp/index1.html?PROLIFIC_PID=REDACTED&STUDY_ID=691f8ca61c6b4dcbb0aeb5f4&SESSION_ID=691fbdd6979be4775b0b1689","survey-html-form",10,522635,"0.0-310.0","c43FLjbrguhv0PUPWa9UlFE2AIytyBuj+yaBnm5Pe4qajggJdZmgbeVw73q6F12yIZVIttkvXHJzMh2VZ/zokAjHdU5G8ekzNk7ZJleBf4IRRXj1bqJMbVxaTQhd6uSgV2ay25+DT1zznlkD9AmU0/z5x8IDAetja8yOgt2WnhaDqfynnwmExpCUGHPdsNGBGLj8qbWaKYe11vP4a7pHthBxe/u9HZ2BITQctzM1jnyL36iN+1qKOrKdrKYfQ9iTKr6IkJs1gXtwwDvFFKNK8fvkeYayoCKzCuaXiMM2/HYx+8r1yI7rf5yZCOS8RcqKtTFjO5/16KUgrBYQpGqPwA==","691f8ca61c6b4dcbb0aeb5f4","691fbdd6979be4775b0b1689","index1","<span style='color:red'>Fail,<span style='color:red'>Fail,<span style='color:green'>Lift,<span style='color:green'>Lift,<span style='color:red'>Fail,<span style='color:red'>Fail,<span style='color:red'>Fail,<span style='color:red'>Fail,<span style='color:red'>Fail,<span style='color:green'>Lift,<span style='color:green'>Lift,<span style='color:red'>Fail","<span style='color:red'>Fail,<span style='color:red'>Fail,<span style='color:green'>Lift,<span style='color:green'>Lift,<span style='color:green'>Lift,<span style='color:green'>Lift,<span style='color:red'>Fail,<span style='color:green'>Lift,<span style='color:green'>Lift,<span style='color:green'>Lift,<span style='color:green'>Lift,<span style='color:red'>Fail","<span style='color:red'>Fail,<span style='color:green'>Lift,<span style='color:green'>Lift,<span style='color:red'>Fail,<span style='color:green'>Lift,<span style='color:green'>Lift","0,0,1,1,0,0,0,0,0,1,1,0","0,0,1,1,1,1,0,1,1,1,1,0","0,1,1,0,1,1",10,20,20,"","","","","{""box1"":""5"",""box2"":""5"",""box3"":""100"",""box4"":""50""}","",1,"round2_outcome",3,1,2,5,5,100,50,1,1,20,NA,NA,NA,NA,NA,NA,NA,NA,NA,NA,NA,5,5,100,50,1,1,20,NA,NA,NA,NA,NA,NA,NA,NA,NA,NA,NA,"",NA,NA,NA,NA,NA,NA,NA,NA,NA,2025-11-21 01:35:32
"11870.09999999404","https://psyc-201.github.io/xiang2023/exp/index1.html?PROLIFIC_PID=REDACTED&STUDY_ID=691f8ca61c6b4dcbb0aeb5f4&SESSION_ID=691fbdd6979be4775b0b1689","survey-html-form",11,534515,"0.0-311.0","c43FLjbrguhv0PUPWa9UlFE2AIytyBuj+yaBnm5Pe4qajggJdZmgbeVw73q6F12yIZVIttkvXHJzMh2VZ/zokAjHdU5G8ekzNk7ZJleBf4IRRXj1bqJMbVxaTQhd6uSgV2ay25+DT1zznlkD9AmU0/z5x8IDAetja8yOgt2WnhaDqfynnwmExpCUGHPdsNGBGLj8qbWaKYe11vP4a7pHthBxe/u9HZ2BITQctzM1jnyL36iN+1qKOrKdrKYfQ9iTKr6IkJs1gXtwwDvFFKNK8fvkeYayoCKzCuaXiMM2/HYx+8r1yI7rf5yZCOS8RcqKtTFjO5/16KUgrBYQpGqPwA==","691f8ca61c6b4dcbb0aeb5f4","691fbdd6979be4775b0b1689","index1","<span style='color:red'>Fail,<span style='color:red'>Fail,<span style='color:green'>Lift,<span style='color:green'>Lift,<span style='color:red'>Fail,<span style='color:red'>Fail,<span style='color:red'>Fail,<span style='color:red'>Fail,<span style='color:red'>Fail,<span style='color:green'>Lift,<span style='color:green'>Lift,<span style='color:red'>Fail","<span style='color:red'>Fail,<span style='color:red'>Fail,<span style='color:green'>Lift,<span style='color:green'>Lift,<span style='color:green'>Lift,<span style='color:green'>Lift,<span style='color:red'>Fail,<span style='color:green'>Lift,<span style='color:green'>Lift,<span style='color:green'>Lift,<span style='color:green'>Lift,<span style='color:red'>Fail","<span style='color:red'>Fail,<span style='color:green'>Lift,<span style='color:green'>Lift,<span style='color:red'>Fail,<span style='color:green'>Lift,<span style='color:green'>Lift","0,0,1,1,0,0,0,0,0,1,1,0","0,0,1,1,1,1,0,1,1,1,1,0","0,1,1,0,1,1",10,20,20,"","","","","{""box1"":""100""}","",1,"round3_ready",4,1,3,NA,NA,NA,NA,NA,NA,NA,NA,NA,NA,NA,NA,NA,NA,100,100,NA,NA,NA,NA,NA,NA,NA,NA,NA,100,100,NA,NA,NA,NA,NA,NA,NA,NA,NA,"",NA,NA,NA,NA,NA,NA,NA,NA,NA,2025-11-21 01:35:32
"30975.09999999404","https://psyc-201.github.io/xiang2023/exp/index1.html?PROLIFIC_PID=REDACTED&STUDY_ID=691f8ca61c6b4dcbb0aeb5f4&SESSION_ID=691fbdd6979be4775b0b1689","survey-html-form",12,565496,"0.0-312.0-0.0","c43FLjbrguhv0PUPWa9UlFE2AIytyBuj+yaBnm5Pe4qajggJdZmgbeVw73q6F12yIZVIttkvXHJzMh2VZ/zokAjHdU5G8ekzNk7ZJleBf4IRRXj1bqJMbVxaTQhd6uSgV2ay25+DT1zznlkD9AmU0/z5x8IDAetja8yOgt2WnhaDqfynnwmExpCUGHPdsNGBGLj8qbWaKYe11vP4a7pHthBxe/u9HZ2BITQctzM1jnyL36iN+1qKOrKdrKYfQ9iTKr6IkJs1gXtwwDvFFKNK8fvkeYayoCKzCuaXiMM2/HYx+8r1yI7rf5yZCOS8RcqKtTFjO5/16KUgrBYQpGqPwA==","691f8ca61c6b4dcbb0aeb5f4","691fbdd6979be4775b0b1689","index1","<span style='color:red'>Fail,<span style='color:red'>Fail,<span style='color:green'>Lift,<span style='color:green'>Lift,<span style='color:red'>Fail,<span style='color:red'>Fail,<span style='color:red'>Fail,<span style='color:red'>Fail,<span style='color:red'>Fail,<span style='color:green'>Lift,<span style='color:green'>Lift,<span style='color:red'>Fail","<span style='color:red'>Fail,<span style='color:red'>Fail,<span style='color:green'>Lift,<span style='color:green'>Lift,<span style='color:green'>Lift,<span style='color:green'>Lift,<span style='color:red'>Fail,<span style='color:green'>Lift,<span style='color:green'>Lift,<span style='color:green'>Lift,<span style='color:green'>Lift,<span style='color:red'>Fail","<span style='color:red'>Fail,<span style='color:green'>Lift,<span style='color:green'>Lift,<span style='color:red'>Fail,<span style='color:green'>Lift,<span style='color:green'>Lift","0,0,1,1,0,0,0,0,0,1,1,0","0,0,1,1,1,1,0,1,1,1,1,0","0,1,1,0,1,1",10,20,20,"","","","","{""box1"":""1"",""box2"":""5"",""box3"":""75"",""box4"":""50""}","",2,"round3_lift",5,1,3,1,5,75,50,1,1,20,NA,NA,NA,NA,NA,NA,NA,NA,NA,NA,NA,NA,NA,NA,NA,NA,NA,NA,NA,NA,1,5,75,50,1,1,20,NA,NA,"",NA,NA,NA,NA,NA,NA,NA,NA,NA,2025-11-21 01:35:32
"null","https://psyc-201.github.io/xiang2023/exp/index1.html?PROLIFIC_PID=REDACTED&STUDY_ID=691f8ca61c6b4dcbb0aeb5f4&SESSION_ID=691fbdd6979be4775b0b1689","html-keyboard-response",13,568518,"0.0-316.0","c43FLjbrguhv0PUPWa9UlFE2AIytyBuj+yaBnm5Pe4qajggJdZmgbeVw73q6F12yIZVIttkvXHJzMh2VZ/zokAjHdU5G8ekzNk7ZJleBf4IRRXj1bqJMbVxaTQhd6uSgV2ay25+DT1zznlkD9AmU0/z5x8IDAetja8yOgt2WnhaDqfynnwmExpCUGHPdsNGBGLj8qbWaKYe11vP4a7pHthBxe/u9HZ2BITQctzM1jnyL36iN+1qKOrKdrKYfQ9iTKr6IkJs1gXtwwDvFFKNK8fvkeYayoCKzCuaXiMM2/HYx+8r1yI7rf5yZCOS8RcqKtTFjO5/16KUgrBYQpGqPwA==","691f8ca61c6b4dcbb0aeb5f4","691fbdd6979be4775b0b1689","index1","<span style='color:red'>Fail,<span style='color:red'>Fail,<span style='color:green'>Lift,<span style='color:green'>Lift,<span style='color:red'>Fail,<span style='color:red'>Fail,<span style='color:red'>Fail,<span style='color:red'>Fail,<span style='color:red'>Fail,<span style='color:green'>Lift,<span style='color:green'>Lift,<span style='color:red'>Fail","<span style='color:red'>Fail,<span style='color:red'>Fail,<span style='color:green'>Lift,<span style='color:green'>Lift,<span style='color:green'>Lift,<span style='color:green'>Lift,<span style='color:red'>Fail,<span style='color:green'>Lift,<span style='color:green'>Lift,<span style='color:green'>Lift,<span style='color:green'>Lift,<span style='color:red'>Fail","<span style='color:red'>Fail,<span style='color:green'>Lift,<span style='color:green'>Lift,<span style='color:red'>Fail,<span style='color:green'>Lift,<span style='color:green'>Lift","0,0,1,1,0,0,0,0,0,1,1,0","0,0,1,1,1,1,0,1,1,1,1,0","0,1,1,0,1,1",10,20,20,"","","<p style='font-size:30px'><b> New Contest! </b></p>","null","","",2,"",NA,NA,NA,NA,NA,NA,NA,NA,NA,NA,NA,NA,NA,NA,NA,NA,NA,NA,NA,NA,NA,NA,NA,NA,NA,NA,NA,NA,NA,NA,NA,NA,NA,NA,NA,NA,NA,NA,NA,"",NA,NA,NA,NA,NA,NA,NA,NA,NA,2025-11-21 01:35:32
"15212","https://psyc-201.github.io/xiang2023/exp/index1.html?PROLIFIC_PID=REDACTED&STUDY_ID=691f8ca61c6b4dcbb0aeb5f4&SESSION_ID=691fbdd6979be4775b0b1689","survey-html-form",14,583738,"0.0-317.0","c43FLjbrguhv0PUPWa9UlFE2AIytyBuj+yaBnm5Pe4qajggJdZmgbeVw73q6F12yIZVIttkvXHJzMh2VZ/zokAjHdU5G8ekzNk7ZJleBf4IRRXj1bqJMbVxaTQhd6uSgV2ay25+DT1zznlkD9AmU0/z5x8IDAetja8yOgt2WnhaDqfynnwmExpCUGHPdsNGBGLj8qbWaKYe11vP4a7pHthBxe/u9HZ2BITQctzM1jnyL36iN+1qKOrKdrKYfQ9iTKr6IkJs1gXtwwDvFFKNK8fvkeYayoCKzCuaXiMM2/HYx+8r1yI7rf5yZCOS8RcqKtTFjO5/16KUgrBYQpGqPwA==","691f8ca61c6b4dcbb0aeb5f4","691fbdd6979be4775b0b1689","index1","<span style='color:red'>Fail,<span style='color:red'>Fail,<span style='color:green'>Lift,<span style='color:green'>Lift,<span style='color:red'>Fail,<span style='color:red'>Fail,<span style='color:red'>Fail,<span style='color:red'>Fail,<span style='color:red'>Fail,<span style='color:green'>Lift,<span style='color:green'>Lift,<span style='color:red'>Fail","<span style='color:red'>Fail,<span style='color:red'>Fail,<span style='color:green'>Lift,<span style='color:green'>Lift,<span style='color:green'>Lift,<span style='color:green'>Lift,<span style='color:red'>Fail,<span style='color:green'>Lift,<span style='color:green'>Lift,<span style='color:green'>Lift,<span style='color:green'>Lift,<span style='color:red'>Fail","<span style='color:red'>Fail,<span style='color:green'>Lift,<span style='color:green'>Lift,<span style='color:red'>Fail,<span style='color:green'>Lift,<span style='color:green'>Lift","0,0,1,1,0,0,0,0,0,1,1,0","0,0,1,1,1,1,0,1,1,1,1,0","0,1,1,0,1,1",10,20,20,"","","","","{""box1"":""1"",""box2"":""1""}","",2,"round1_outcome",1,2,1,1,1,NA,NA,0,0,10,1,1,NA,NA,0,0,10,NA,NA,NA,NA,NA,NA,NA,NA,NA,NA,NA,NA,NA,NA,NA,NA,NA,NA,NA,NA,NA,NA,"",NA,NA,NA,NA,NA,NA,NA,NA,NA,2025-11-21 01:35:32
"8415.5","https://psyc-201.github.io/xiang2023/exp/index1.html?PROLIFIC_PID=REDACTED&STUDY_ID=691f8ca61c6b4dcbb0aeb5f4&SESSION_ID=691fbdd6979be4775b0b1689","survey-html-form",15,592158,"0.0-318.0","c43FLjbrguhv0PUPWa9UlFE2AIytyBuj+yaBnm5Pe4qajggJdZmgbeVw73q6F12yIZVIttkvXHJzMh2VZ/zokAjHdU5G8ekzNk7ZJleBf4IRRXj1bqJMbVxaTQhd6uSgV2ay25+DT1zznlkD9AmU0/z5x8IDAetja8yOgt2WnhaDqfynnwmExpCUGHPdsNGBGLj8qbWaKYe11vP4a7pHthBxe/u9HZ2BITQctzM1jnyL36iN+1qKOrKdrKYfQ9iTKr6IkJs1gXtwwDvFFKNK8fvkeYayoCKzCuaXiMM2/HYx+8r1yI7rf5yZCOS8RcqKtTFjO5/16KUgrBYQpGqPwA==","691f8ca61c6b4dcbb0aeb5f4","691fbdd6979be4775b0b1689","index1","<span style='color:red'>Fail,<span style='color:red'>Fail,<span style='color:green'>Lift,<span style='color:green'>Lift,<span style='color:red'>Fail,<span style='color:red'>Fail,<span style='color:red'>Fail,<span style='color:red'>Fail,<span style='color:red'>Fail,<span style='color:green'>Lift,<span style='color:green'>Lift,<span style='color:red'>Fail","<span style='color:red'>Fail,<span style='color:red'>Fail,<span style='color:green'>Lift,<span style='color:green'>Lift,<span style='color:green'>Lift,<span style='color:green'>Lift,<span style='color:red'>Fail,<span style='color:green'>Lift,<span style='color:green'>Lift,<span style='color:green'>Lift,<span style='color:green'>Lift,<span style='color:red'>Fail","<span style='color:red'>Fail,<span style='color:green'>Lift,<span style='color:green'>Lift,<span style='color:red'>Fail,<span style='color:green'>Lift,<span style='color:green'>Lift","0,0,1,1,0,0,0,0,0,1,1,0","0,0,1,1,1,1,0,1,1,1,1,0","0,1,1,0,1,1",10,20,20,"","","","","{""box1"":""50"",""box2"":""50""}","",2,"round2_ready",2,2,2,NA,NA,NA,NA,NA,NA,NA,NA,NA,NA,NA,NA,NA,NA,50,50,50,50,NA,NA,NA,NA,NA,NA,NA,NA,NA,NA,NA,NA,NA,NA,NA,NA,NA,NA,"",NA,NA,NA,NA,NA,NA,NA,NA,NA,2025-11-21 01:35:32
"15170.800000011921","https://psyc-201.github.io/xiang2023/exp/index1.html?PROLIFIC_PID=REDACTED&STUDY_ID=691f8ca61c6b4dcbb0aeb5f4&SESSION_ID=691fbdd6979be4775b0b1689","survey-html-form",16,607333,"0.0-319.0","c43FLjbrguhv0PUPWa9UlFE2AIytyBuj+yaBnm5Pe4qajggJdZmgbeVw73q6F12yIZVIttkvXHJzMh2VZ/zokAjHdU5G8ekzNk7ZJleBf4IRRXj1bqJMbVxaTQhd6uSgV2ay25+DT1zznlkD9AmU0/z5x8IDAetja8yOgt2WnhaDqfynnwmExpCUGHPdsNGBGLj8qbWaKYe11vP4a7pHthBxe/u9HZ2BITQctzM1jnyL36iN+1qKOrKdrKYfQ9iTKr6IkJs1gXtwwDvFFKNK8fvkeYayoCKzCuaXiMM2/HYx+8r1yI7rf5yZCOS8RcqKtTFjO5/16KUgrBYQpGqPwA==","691f8ca61c6b4dcbb0aeb5f4","691fbdd6979be4775b0b1689","index1","<span style='color:red'>Fail,<span style='color:red'>Fail,<span style='color:green'>Lift,<span style='color:green'>Lift,<span style='color:red'>Fail,<span style='color:red'>Fail,<span style='color:red'>Fail,<span style='color:red'>Fail,<span style='color:red'>Fail,<span style='color:green'>Lift,<span style='color:green'>Lift,<span style='color:red'>Fail","<span style='color:red'>Fail,<span style='color:red'>Fail,<span style='color:green'>Lift,<span style='color:green'>Lift,<span style='color:green'>Lift,<span style='color:green'>Lift,<span style='color:red'>Fail,<span style='color:green'>Lift,<span style='color:green'>Lift,<span style='color:green'>Lift,<span style='color:green'>Lift,<span style='color:red'>Fail","<span style='color:red'>Fail,<span style='color:green'>Lift,<span style='color:green'>Lift,<span style='color:red'>Fail,<span style='color:green'>Lift,<span style='color:green'>Lift","0,0,1,1,0,0,0,0,0,1,1,0","0,0,1,1,1,1,0,1,1,1,1,0","0,1,1,0,1,1",10,20,20,"","","","","{""box1"":""1"",""box2"":""5"",""box4"":""100""}","",2,"round2_outcome",3,2,2,1,5,NA,100,0,1,20,NA,NA,NA,NA,NA,NA,NA,NA,NA,NA,NA,1,5,NA,100,0,1,20,NA,NA,NA,NA,NA,NA,NA,NA,NA,NA,NA,"",NA,NA,NA,NA,NA,NA,NA,NA,NA,2025-11-21 01:35:32
"21561.600000023842","https://psyc-201.github.io/xiang2023/exp/index1.html?PROLIFIC_PID=REDACTED&STUDY_ID=691f8ca61c6b4dcbb0aeb5f4&SESSION_ID=691fbdd6979be4775b0b1689","survey-html-form",17,628898,"0.0-320.0","c43FLjbrguhv0PUPWa9UlFE2AIytyBuj+yaBnm5Pe4qajggJdZmgbeVw73q6F12yIZVIttkvXHJzMh2VZ/zokAjHdU5G8ekzNk7ZJleBf4IRRXj1bqJMbVxaTQhd6uSgV2ay25+DT1zznlkD9AmU0/z5x8IDAetja8yOgt2WnhaDqfynnwmExpCUGHPdsNGBGLj8qbWaKYe11vP4a7pHthBxe/u9HZ2BITQctzM1jnyL36iN+1qKOrKdrKYfQ9iTKr6IkJs1gXtwwDvFFKNK8fvkeYayoCKzCuaXiMM2/HYx+8r1yI7rf5yZCOS8RcqKtTFjO5/16KUgrBYQpGqPwA==","691f8ca61c6b4dcbb0aeb5f4","691fbdd6979be4775b0b1689","index1","<span style='color:red'>Fail,<span style='color:red'>Fail,<span style='color:green'>Lift,<span style='color:green'>Lift,<span style='color:red'>Fail,<span style='color:red'>Fail,<span style='color:red'>Fail,<span style='color:red'>Fail,<span style='color:red'>Fail,<span style='color:green'>Lift,<span style='color:green'>Lift,<span style='color:red'>Fail","<span style='color:red'>Fail,<span style='color:red'>Fail,<span style='color:green'>Lift,<span style='color:green'>Lift,<span style='color:green'>Lift,<span style='color:green'>Lift,<span style='color:red'>Fail,<span style='color:green'>Lift,<span style='color:green'>Lift,<span style='color:green'>Lift,<span style='color:green'>Lift,<span style='color:red'>Fail","<span style='color:red'>Fail,<span style='color:green'>Lift,<span style='color:green'>Lift,<span style='color:red'>Fail,<span style='color:green'>Lift,<span style='color:green'>Lift","0,0,1,1,0,0,0,0,0,1,1,0","0,0,1,1,1,1,0,1,1,1,1,0","0,1,1,0,1,1",10,20,20,"","","","","{""box1"":""100""}","",2,"round3_ready",4,2,3,NA,NA,NA,NA,NA,NA,NA,NA,NA,NA,NA,NA,NA,NA,100,100,NA,NA,NA,NA,NA,NA,NA,NA,NA,100,100,NA,NA,NA,NA,NA,NA,NA,NA,NA,"",NA,NA,NA,NA,NA,NA,NA,NA,NA,2025-11-21 01:35:32
"19672.09999999404","https://psyc-201.github.io/xiang2023/exp/index1.html?PROLIFIC_PID=REDACTED&STUDY_ID=691f8ca61c6b4dcbb0aeb5f4&SESSION_ID=691fbdd6979be4775b0b1689","survey-html-form",18,648576,"0.0-322.0-0.0","c43FLjbrguhv0PUPWa9UlFE2AIytyBuj+yaBnm5Pe4qajggJdZmgbeVw73q6F12yIZVIttkvXHJzMh2VZ/zokAjHdU5G8ekzNk7ZJleBf4IRRXj1bqJMbVxaTQhd6uSgV2ay25+DT1zznlkD9AmU0/z5x8IDAetja8yOgt2WnhaDqfynnwmExpCUGHPdsNGBGLj8qbWaKYe11vP4a7pHthBxe/u9HZ2BITQctzM1jnyL36iN+1qKOrKdrKYfQ9iTKr6IkJs1gXtwwDvFFKNK8fvkeYayoCKzCuaXiMM2/HYx+8r1yI7rf5yZCOS8RcqKtTFjO5/16KUgrBYQpGqPwA==","691f8ca61c6b4dcbb0aeb5f4","691fbdd6979be4775b0b1689","index1","<span style='color:red'>Fail,<span style='color:red'>Fail,<span style='color:green'>Lift,<span style='color:green'>Lift,<span style='color:red'>Fail,<span style='color:red'>Fail,<span style='color:red'>Fail,<span style='color:red'>Fail,<span style='color:red'>Fail,<span style='color:green'>Lift,<span style='color:green'>Lift,<span style='color:red'>Fail","<span style='color:red'>Fail,<span style='color:red'>Fail,<span style='color:green'>Lift,<span style='color:green'>Lift,<span style='color:green'>Lift,<span style='color:green'>Lift,<span style='color:red'>Fail,<span style='color:green'>Lift,<span style='color:green'>Lift,<span style='color:green'>Lift,<span style='color:green'>Lift,<span style='color:red'>Fail","<span style='color:red'>Fail,<span style='color:green'>Lift,<span style='color:green'>Lift,<span style='color:red'>Fail,<span style='color:green'>Lift,<span style='color:green'>Lift","0,0,1,1,0,0,0,0,0,1,1,0","0,0,1,1,1,1,0,1,1,1,1,0","0,1,1,0,1,1",10,20,20,"","","","","{""box1"":""1"",""box2"":""5"",""box3"":""999"",""box4"":""999""}","",3,"round3_fail",5,2,3,1,5,NA,NA,0,0,20,NA,NA,NA,NA,NA,NA,NA,NA,NA,NA,NA,NA,NA,NA,NA,NA,NA,NA,NA,NA,1,5,NA,NA,0,0,20,1,1,"",NA,NA,NA,NA,NA,NA,NA,NA,NA,2025-11-21 01:35:32
"null","https://psyc-201.github.io/xiang2023/exp/index1.html?PROLIFIC_PID=REDACTED&STUDY_ID=691f8ca61c6b4dcbb0aeb5f4&SESSION_ID=691fbdd6979be4775b0b1689","html-keyboard-response",19,651600,"0.0-325.0","c43FLjbrguhv0PUPWa9UlFE2AIytyBuj+yaBnm5Pe4qajggJdZmgbeVw73q6F12yIZVIttkvXHJzMh2VZ/zokAjHdU5G8ekzNk7ZJleBf4IRRXj1bqJMbVxaTQhd6uSgV2ay25+DT1zznlkD9AmU0/z5x8IDAetja8yOgt2WnhaDqfynnwmExpCUGHPdsNGBGLj8qbWaKYe11vP4a7pHthBxe/u9HZ2BITQctzM1jnyL36iN+1qKOrKdrKYfQ9iTKr6IkJs1gXtwwDvFFKNK8fvkeYayoCKzCuaXiMM2/HYx+8r1yI7rf5yZCOS8RcqKtTFjO5/16KUgrBYQpGqPwA==","691f8ca61c6b4dcbb0aeb5f4","691fbdd6979be4775b0b1689","index1","<span style='color:red'>Fail,<span style='color:red'>Fail,<span style='color:green'>Lift,<span style='color:green'>Lift,<span style='color:red'>Fail,<span style='color:red'>Fail,<span style='color:red'>Fail,<span style='color:red'>Fail,<span style='color:red'>Fail,<span style='color:green'>Lift,<span style='color:green'>Lift,<span style='color:red'>Fail","<span style='color:red'>Fail,<span style='color:red'>Fail,<span style='color:green'>Lift,<span style='color:green'>Lift,<span style='color:green'>Lift,<span style='color:green'>Lift,<span style='color:red'>Fail,<span style='color:green'>Lift,<span style='color:green'>Lift,<span style='color:green'>Lift,<span style='color:green'>Lift,<span style='color:red'>Fail","<span style='color:red'>Fail,<span style='color:green'>Lift,<span style='color:green'>Lift,<span style='color:red'>Fail,<span style='color:green'>Lift,<span style='color:green'>Lift","0,0,1,1,0,0,0,0,0,1,1,0","0,0,1,1,1,1,0,1,1,1,1,0","0,1,1,0,1,1",10,20,20,"","","<p style='font-size:30px'><b> New Contest! </b></p>","null","","",3,"",NA,NA,NA,NA,NA,NA,NA,NA,NA,NA,NA,NA,NA,NA,NA,NA,NA,NA,NA,NA,NA,NA,NA,NA,NA,NA,NA,NA,NA,NA,NA,NA,NA,NA,NA,NA,NA,NA,NA,"",NA,NA,NA,NA,NA,NA,NA,NA,NA,2025-11-21 01:35:32
"27025.59999999404","https://psyc-201.github.io/xiang2023/exp/index1.html?PROLIFIC_PID=REDACTED&STUDY_ID=691f8ca61c6b4dcbb0aeb5f4&SESSION_ID=691fbdd6979be4775b0b1689","survey-html-form",20,678630,"0.0-326.0","c43FLjbrguhv0PUPWa9UlFE2AIytyBuj+yaBnm5Pe4qajggJdZmgbeVw73q6F12yIZVIttkvXHJzMh2VZ/zokAjHdU5G8ekzNk7ZJleBf4IRRXj1bqJMbVxaTQhd6uSgV2ay25+DT1zznlkD9AmU0/z5x8IDAetja8yOgt2WnhaDqfynnwmExpCUGHPdsNGBGLj8qbWaKYe11vP4a7pHthBxe/u9HZ2BITQctzM1jnyL36iN+1qKOrKdrKYfQ9iTKr6IkJs1gXtwwDvFFKNK8fvkeYayoCKzCuaXiMM2/HYx+8r1yI7rf5yZCOS8RcqKtTFjO5/16KUgrBYQpGqPwA==","691f8ca61c6b4dcbb0aeb5f4","691fbdd6979be4775b0b1689","index1","<span style='color:red'>Fail,<span style='color:red'>Fail,<span style='color:green'>Lift,<span style='color:green'>Lift,<span style='color:red'>Fail,<span style='color:red'>Fail,<span style='color:red'>Fail,<span style='color:red'>Fail,<span style='color:red'>Fail,<span style='color:green'>Lift,<span style='color:green'>Lift,<span style='color:red'>Fail","<span style='color:red'>Fail,<span style='color:red'>Fail,<span style='color:green'>Lift,<span style='color:green'>Lift,<span style='color:green'>Lift,<span style='color:green'>Lift,<span style='color:red'>Fail,<span style='color:green'>Lift,<span style='color:green'>Lift,<span style='color:green'>Lift,<span style='color:green'>Lift,<span style='color:red'>Fail","<span style='color:red'>Fail,<span style='color:green'>Lift,<span style='color:green'>Lift,<span style='color:red'>Fail,<span style='color:green'>Lift,<span style='color:green'>Lift","0,0,1,1,0,0,0,0,0,1,1,0","0,0,1,1,1,1,0,1,1,1,1,0","0,1,1,0,1,1",10,20,20,"","","","","{""box1"":""5"",""box2"":""5"",""box3"":""50"",""box4"":""50""}","",3,"round1_outcome",1,3,1,5,5,50,50,1,1,10,5,5,50,50,1,1,10,NA,NA,NA,NA,NA,NA,NA,NA,NA,NA,NA,NA,NA,NA,NA,NA,NA,NA,NA,NA,NA,NA,"",NA,NA,NA,NA,NA,NA,NA,NA,NA,2025-11-21 01:35:32
"7912.300000011921","https://psyc-201.github.io/xiang2023/exp/index1.html?PROLIFIC_PID=REDACTED&STUDY_ID=691f8ca61c6b4dcbb0aeb5f4&SESSION_ID=691fbdd6979be4775b0b1689","survey-html-form",21,686549,"0.0-327.0","c43FLjbrguhv0PUPWa9UlFE2AIytyBuj+yaBnm5Pe4qajggJdZmgbeVw73q6F12yIZVIttkvXHJzMh2VZ/zokAjHdU5G8ekzNk7ZJleBf4IRRXj1bqJMbVxaTQhd6uSgV2ay25+DT1zznlkD9AmU0/z5x8IDAetja8yOgt2WnhaDqfynnwmExpCUGHPdsNGBGLj8qbWaKYe11vP4a7pHthBxe/u9HZ2BITQctzM1jnyL36iN+1qKOrKdrKYfQ9iTKr6IkJs1gXtwwDvFFKNK8fvkeYayoCKzCuaXiMM2/HYx+8r1yI7rf5yZCOS8RcqKtTFjO5/16KUgrBYQpGqPwA==","691f8ca61c6b4dcbb0aeb5f4","691fbdd6979be4775b0b1689","index1","<span style='color:red'>Fail,<span style='color:red'>Fail,<span style='color:green'>Lift,<span style='color:green'>Lift,<span style='color:red'>Fail,<span style='color:red'>Fail,<span style='color:red'>Fail,<span style='color:red'>Fail,<span style='color:red'>Fail,<span style='color:green'>Lift,<span style='color:green'>Lift,<span style='color:red'>Fail","<span style='color:red'>Fail,<span style='color:red'>Fail,<span style='color:green'>Lift,<span style='color:green'>Lift,<span style='color:green'>Lift,<span style='color:green'>Lift,<span style='color:red'>Fail,<span style='color:green'>Lift,<span style='color:green'>Lift,<span style='color:green'>Lift,<span style='color:green'>Lift,<span style='color:red'>Fail","<span style='color:red'>Fail,<span style='color:green'>Lift,<span style='color:green'>Lift,<span style='color:red'>Fail,<span style='color:green'>Lift,<span style='color:green'>Lift","0,0,1,1,0,0,0,0,0,1,1,0","0,0,1,1,1,1,0,1,1,1,1,0","0,1,1,0,1,1",10,20,20,"","","","","{""box1"":""75"",""box2"":""75""}","",3,"round2_ready",2,3,2,NA,NA,NA,NA,NA,NA,NA,NA,NA,NA,NA,NA,NA,NA,75,75,75,75,NA,NA,NA,NA,NA,NA,NA,NA,NA,NA,NA,NA,NA,NA,NA,NA,NA,NA,"",NA,NA,NA,NA,NA,NA,NA,NA,NA,2025-11-21 01:35:32
"15779.799999982119","https://psyc-201.github.io/xiang2023/exp/index1.html?PROLIFIC_PID=REDACTED&STUDY_ID=691f8ca61c6b4dcbb0aeb5f4&SESSION_ID=691fbdd6979be4775b0b1689","survey-html-form",22,702333,"0.0-328.0","c43FLjbrguhv0PUPWa9UlFE2AIytyBuj+yaBnm5Pe4qajggJdZmgbeVw73q6F12yIZVIttkvXHJzMh2VZ/zokAjHdU5G8ekzNk7ZJleBf4IRRXj1bqJMbVxaTQhd6uSgV2ay25+DT1zznlkD9AmU0/z5x8IDAetja8yOgt2WnhaDqfynnwmExpCUGHPdsNGBGLj8qbWaKYe11vP4a7pHthBxe/u9HZ2BITQctzM1jnyL36iN+1qKOrKdrKYfQ9iTKr6IkJs1gXtwwDvFFKNK8fvkeYayoCKzCuaXiMM2/HYx+8r1yI7rf5yZCOS8RcqKtTFjO5/16KUgrBYQpGqPwA==","691f8ca61c6b4dcbb0aeb5f4","691fbdd6979be4775b0b1689","index1","<span style='color:red'>Fail,<span style='color:red'>Fail,<span style='color:green'>Lift,<span style='color:green'>Lift,<span style='color:red'>Fail,<span style='color:red'>Fail,<span style='color:red'>Fail,<span style='color:red'>Fail,<span style='color:red'>Fail,<span style='color:green'>Lift,<span style='color:green'>Lift,<span style='color:red'>Fail","<span style='color:red'>Fail,<span style='color:red'>Fail,<span style='color:green'>Lift,<span style='color:green'>Lift,<span style='color:green'>Lift,<span style='color:green'>Lift,<span style='color:red'>Fail,<span style='color:green'>Lift,<span style='color:green'>Lift,<span style='color:green'>Lift,<span style='color:green'>Lift,<span style='color:red'>Fail","<span style='color:red'>Fail,<span style='color:green'>Lift,<span style='color:green'>Lift,<span style='color:red'>Fail,<span style='color:green'>Lift,<span style='color:green'>Lift","0,0,1,1,0,0,0,0,0,1,1,0","0,0,1,1,1,1,0,1,1,1,1,0","0,1,1,0,1,1",10,20,20,"","","","","{""box1"":""5"",""box2"":""5"",""box3"":""75"",""box4"":""75""}","",3,"round2_outcome",3,3,2,5,5,75,75,1,1,20,NA,NA,NA,NA,NA,NA,NA,NA,NA,NA,NA,5,5,75,75,1,1,20,NA,NA,NA,NA,NA,NA,NA,NA,NA,NA,NA,"",NA,NA,NA,NA,NA,NA,NA,NA,NA,2025-11-21 01:35:32
"3441.0999999940395","https://psyc-201.github.io/xiang2023/exp/index1.html?PROLIFIC_PID=REDACTED&STUDY_ID=691f8ca61c6b4dcbb0aeb5f4&SESSION_ID=691fbdd6979be4775b0b1689","survey-html-form",23,705780,"0.0-329.0","c43FLjbrguhv0PUPWa9UlFE2AIytyBuj+yaBnm5Pe4qajggJdZmgbeVw73q6F12yIZVIttkvXHJzMh2VZ/zokAjHdU5G8ekzNk7ZJleBf4IRRXj1bqJMbVxaTQhd6uSgV2ay25+DT1zznlkD9AmU0/z5x8IDAetja8yOgt2WnhaDqfynnwmExpCUGHPdsNGBGLj8qbWaKYe11vP4a7pHthBxe/u9HZ2BITQctzM1jnyL36iN+1qKOrKdrKYfQ9iTKr6IkJs1gXtwwDvFFKNK8fvkeYayoCKzCuaXiMM2/HYx+8r1yI7rf5yZCOS8RcqKtTFjO5/16KUgrBYQpGqPwA==","691f8ca61c6b4dcbb0aeb5f4","691fbdd6979be4775b0b1689","index1","<span style='color:red'>Fail,<span style='color:red'>Fail,<span style='color:green'>Lift,<span style='color:green'>Lift,<span style='color:red'>Fail,<span style='color:red'>Fail,<span style='color:red'>Fail,<span style='color:red'>Fail,<span style='color:red'>Fail,<span style='color:green'>Lift,<span style='color:green'>Lift,<span style='color:red'>Fail","<span style='color:red'>Fail,<span style='color:red'>Fail,<span style='color:green'>Lift,<span style='color:green'>Lift,<span style='color:green'>Lift,<span style='color:green'>Lift,<span style='color:red'>Fail,<span style='color:green'>Lift,<span style='color:green'>Lift,<span style='color:green'>Lift,<span style='color:green'>Lift,<span style='color:red'>Fail","<span style='color:red'>Fail,<span style='color:green'>Lift,<span style='color:green'>Lift,<span style='color:red'>Fail,<span style='color:green'>Lift,<span style='color:green'>Lift","0,0,1,1,0,0,0,0,0,1,1,0","0,0,1,1,1,1,0,1,1,1,1,0","0,1,1,0,1,1",10,20,20,"","","","","{""box1"":""100""}","",3,"round3_ready",4,3,3,NA,NA,NA,NA,NA,NA,NA,NA,NA,NA,NA,NA,NA,NA,100,100,NA,NA,NA,NA,NA,NA,NA,NA,NA,100,100,NA,NA,NA,NA,NA,NA,NA,NA,NA,"",NA,NA,NA,NA,NA,NA,NA,NA,NA,2025-11-21 01:35:32
"7512.700000017881","https://psyc-201.github.io/xiang2023/exp/index1.html?PROLIFIC_PID=REDACTED&STUDY_ID=691f8ca61c6b4dcbb0aeb5f4&SESSION_ID=691fbdd6979be4775b0b1689","survey-html-form",24,713299,"0.0-330.0-0.0","c43FLjbrguhv0PUPWa9UlFE2AIytyBuj+yaBnm5Pe4qajggJdZmgbeVw73q6F12yIZVIttkvXHJzMh2VZ/zokAjHdU5G8ekzNk7ZJleBf4IRRXj1bqJMbVxaTQhd6uSgV2ay25+DT1zznlkD9AmU0/z5x8IDAetja8yOgt2WnhaDqfynnwmExpCUGHPdsNGBGLj8qbWaKYe11vP4a7pHthBxe/u9HZ2BITQctzM1jnyL36iN+1qKOrKdrKYfQ9iTKr6IkJs1gXtwwDvFFKNK8fvkeYayoCKzCuaXiMM2/HYx+8r1yI7rf5yZCOS8RcqKtTFjO5/16KUgrBYQpGqPwA==","691f8ca61c6b4dcbb0aeb5f4","691fbdd6979be4775b0b1689","index1","<span style='color:red'>Fail,<span style='color:red'>Fail,<span style='color:green'>Lift,<span style='color:green'>Lift,<span style='color:red'>Fail,<span style='color:red'>Fail,<span style='color:red'>Fail,<span style='color:red'>Fail,<span style='color:red'>Fail,<span style='color:green'>Lift,<span style='color:green'>Lift,<span style='color:red'>Fail","<span style='color:red'>Fail,<span style='color:red'>Fail,<span style='color:green'>Lift,<span style='color:green'>Lift,<span style='color:green'>Lift,<span style='color:green'>Lift,<span style='color:red'>Fail,<span style='color:green'>Lift,<span style='color:green'>Lift,<span style='color:green'>Lift,<span style='color:green'>Lift,<span style='color:red'>Fail","<span style='color:red'>Fail,<span style='color:green'>Lift,<span style='color:green'>Lift,<span style='color:red'>Fail,<span style='color:green'>Lift,<span style='color:green'>Lift","0,0,1,1,0,0,0,0,0,1,1,0","0,0,1,1,1,1,0,1,1,1,1,0","0,1,1,0,1,1",10,20,20,"","","","","{""box1"":""5"",""box2"":""5"",""box3"":""50"",""box4"":""50""}","",4,"round3_lift",5,3,3,5,5,50,50,1,1,20,NA,NA,NA,NA,NA,NA,NA,NA,NA,NA,NA,NA,NA,NA,NA,NA,NA,NA,NA,NA,5,5,50,50,1,1,20,NA,NA,"",NA,NA,NA,NA,NA,NA,NA,NA,NA,2025-11-21 01:35:32
"null","https://psyc-201.github.io/xiang2023/exp/index1.html?PROLIFIC_PID=REDACTED&STUDY_ID=691f8ca61c6b4dcbb0aeb5f4&SESSION_ID=691fbdd6979be4775b0b1689","html-keyboard-response",25,716311,"0.0-334.0","c43FLjbrguhv0PUPWa9UlFE2AIytyBuj+yaBnm5Pe4qajggJdZmgbeVw73q6F12yIZVIttkvXHJzMh2VZ/zokAjHdU5G8ekzNk7ZJleBf4IRRXj1bqJMbVxaTQhd6uSgV2ay25+DT1zznlkD9AmU0/z5x8IDAetja8yOgt2WnhaDqfynnwmExpCUGHPdsNGBGLj8qbWaKYe11vP4a7pHthBxe/u9HZ2BITQctzM1jnyL36iN+1qKOrKdrKYfQ9iTKr6IkJs1gXtwwDvFFKNK8fvkeYayoCKzCuaXiMM2/HYx+8r1yI7rf5yZCOS8RcqKtTFjO5/16KUgrBYQpGqPwA==","691f8ca61c6b4dcbb0aeb5f4","691fbdd6979be4775b0b1689","index1","<span style='color:red'>Fail,<span style='color:red'>Fail,<span style='color:green'>Lift,<span style='color:green'>Lift,<span style='color:red'>Fail,<span style='color:red'>Fail,<span style='color:red'>Fail,<span style='color:red'>Fail,<span style='color:red'>Fail,<span style='color:green'>Lift,<span style='color:green'>Lift,<span style='color:red'>Fail","<span style='color:red'>Fail,<span style='color:red'>Fail,<span style='color:green'>Lift,<span style='color:green'>Lift,<span style='color:green'>Lift,<span style='color:green'>Lift,<span style='color:red'>Fail,<span style='color:green'>Lift,<span style='color:green'>Lift,<span style='color:green'>Lift,<span style='color:green'>Lift,<span style='color:red'>Fail","<span style='color:red'>Fail,<span style='color:green'>Lift,<span style='color:green'>Lift,<span style='color:red'>Fail,<span style='color:green'>Lift,<span style='color:green'>Lift","0,0,1,1,0,0,0,0,0,1,1,0","0,0,1,1,1,1,0,1,1,1,1,0","0,1,1,0,1,1",10,20,20,"","","<p style='font-size:30px'><b> New Contest! </b></p>","null","","",4,"",NA,NA,NA,NA,NA,NA,NA,NA,NA,NA,NA,NA,NA,NA,NA,NA,NA,NA,NA,NA,NA,NA,NA,NA,NA,NA,NA,NA,NA,NA,NA,NA,NA,NA,NA,NA,NA,NA,NA,"",NA,NA,NA,NA,NA,NA,NA,NA,NA,2025-11-21 01:35:32
"15297.59999999404","https://psyc-201.github.io/xiang2023/exp/index1.html?PROLIFIC_PID=REDACTED&STUDY_ID=691f8ca61c6b4dcbb0aeb5f4&SESSION_ID=691fbdd6979be4775b0b1689","survey-html-form",26,731611,"0.0-335.0","c43FLjbrguhv0PUPWa9UlFE2AIytyBuj+yaBnm5Pe4qajggJdZmgbeVw73q6F12yIZVIttkvXHJzMh2VZ/zokAjHdU5G8ekzNk7ZJleBf4IRRXj1bqJMbVxaTQhd6uSgV2ay25+DT1zznlkD9AmU0/z5x8IDAetja8yOgt2WnhaDqfynnwmExpCUGHPdsNGBGLj8qbWaKYe11vP4a7pHthBxe/u9HZ2BITQctzM1jnyL36iN+1qKOrKdrKYfQ9iTKr6IkJs1gXtwwDvFFKNK8fvkeYayoCKzCuaXiMM2/HYx+8r1yI7rf5yZCOS8RcqKtTFjO5/16KUgrBYQpGqPwA==","691f8ca61c6b4dcbb0aeb5f4","691fbdd6979be4775b0b1689","index1","<span style='color:red'>Fail,<span style='color:red'>Fail,<span style='color:green'>Lift,<span style='color:green'>Lift,<span style='color:red'>Fail,<span style='color:red'>Fail,<span style='color:red'>Fail,<span style='color:red'>Fail,<span style='color:red'>Fail,<span style='color:green'>Lift,<span style='color:green'>Lift,<span style='color:red'>Fail","<span style='color:red'>Fail,<span style='color:red'>Fail,<span style='color:green'>Lift,<span style='color:green'>Lift,<span style='color:green'>Lift,<span style='color:green'>Lift,<span style='color:red'>Fail,<span style='color:green'>Lift,<span style='color:green'>Lift,<span style='color:green'>Lift,<span style='color:green'>Lift,<span style='color:red'>Fail","<span style='color:red'>Fail,<span style='color:green'>Lift,<span style='color:green'>Lift,<span style='color:red'>Fail,<span style='color:green'>Lift,<span style='color:green'>Lift","0,0,1,1,0,0,0,0,0,1,1,0","0,0,1,1,1,1,0,1,1,1,1,0","0,1,1,0,1,1",10,20,20,"","","","","{""box1"":""5"",""box2"":""1"",""box3"":""50""}","",4,"round1_outcome",1,4,1,5,1,50,NA,1,0,10,5,1,50,NA,1,0,10,NA,NA,NA,NA,NA,NA,NA,NA,NA,NA,NA,NA,NA,NA,NA,NA,NA,NA,NA,NA,NA,NA,"",NA,NA,NA,NA,NA,NA,NA,NA,NA,2025-11-21 01:35:32
"8311.200000017881","https://psyc-201.github.io/xiang2023/exp/index1.html?PROLIFIC_PID=REDACTED&STUDY_ID=691f8ca61c6b4dcbb0aeb5f4&SESSION_ID=691fbdd6979be4775b0b1689","survey-html-form",27,739929,"0.0-336.0","c43FLjbrguhv0PUPWa9UlFE2AIytyBuj+yaBnm5Pe4qajggJdZmgbeVw73q6F12yIZVIttkvXHJzMh2VZ/zokAjHdU5G8ekzNk7ZJleBf4IRRXj1bqJMbVxaTQhd6uSgV2ay25+DT1zznlkD9AmU0/z5x8IDAetja8yOgt2WnhaDqfynnwmExpCUGHPdsNGBGLj8qbWaKYe11vP4a7pHthBxe/u9HZ2BITQctzM1jnyL36iN+1qKOrKdrKYfQ9iTKr6IkJs1gXtwwDvFFKNK8fvkeYayoCKzCuaXiMM2/HYx+8r1yI7rf5yZCOS8RcqKtTFjO5/16KUgrBYQpGqPwA==","691f8ca61c6b4dcbb0aeb5f4","691fbdd6979be4775b0b1689","index1","<span style='color:red'>Fail,<span style='color:red'>Fail,<span style='color:green'>Lift,<span style='color:green'>Lift,<span style='color:red'>Fail,<span style='color:red'>Fail,<span style='color:red'>Fail,<span style='color:red'>Fail,<span style='color:red'>Fail,<span style='color:green'>Lift,<span style='color:green'>Lift,<span style='color:red'>Fail","<span style='color:red'>Fail,<span style='color:red'>Fail,<span style='color:green'>Lift,<span style='color:green'>Lift,<span style='color:green'>Lift,<span style='color:green'>Lift,<span style='color:red'>Fail,<span style='color:green'>Lift,<span style='color:green'>Lift,<span style='color:green'>Lift,<span style='color:green'>Lift,<span style='color:red'>Fail","<span style='color:red'>Fail,<span style='color:green'>Lift,<span style='color:green'>Lift,<span style='color:red'>Fail,<span style='color:green'>Lift,<span style='color:green'>Lift","0,0,1,1,0,0,0,0,0,1,1,0","0,0,1,1,1,1,0,1,1,1,1,0","0,1,1,0,1,1",10,20,20,"","","","","{""box1"":""75"",""box2"":""25""}","",4,"round2_ready",2,4,2,NA,NA,NA,NA,NA,NA,NA,NA,NA,NA,NA,NA,NA,NA,75,25,75,25,NA,NA,NA,NA,NA,NA,NA,NA,NA,NA,NA,NA,NA,NA,NA,NA,NA,NA,"",NA,NA,NA,NA,NA,NA,NA,NA,NA,2025-11-21 01:35:32
"12338.59999999404","https://psyc-201.github.io/xiang2023/exp/index1.html?PROLIFIC_PID=REDACTED&STUDY_ID=691f8ca61c6b4dcbb0aeb5f4&SESSION_ID=691fbdd6979be4775b0b1689","survey-html-form",28,752275,"0.0-337.0","c43FLjbrguhv0PUPWa9UlFE2AIytyBuj+yaBnm5Pe4qajggJdZmgbeVw73q6F12yIZVIttkvXHJzMh2VZ/zokAjHdU5G8ekzNk7ZJleBf4IRRXj1bqJMbVxaTQhd6uSgV2ay25+DT1zznlkD9AmU0/z5x8IDAetja8yOgt2WnhaDqfynnwmExpCUGHPdsNGBGLj8qbWaKYe11vP4a7pHthBxe/u9HZ2BITQctzM1jnyL36iN+1qKOrKdrKYfQ9iTKr6IkJs1gXtwwDvFFKNK8fvkeYayoCKzCuaXiMM2/HYx+8r1yI7rf5yZCOS8RcqKtTFjO5/16KUgrBYQpGqPwA==","691f8ca61c6b4dcbb0aeb5f4","691fbdd6979be4775b0b1689","index1","<span style='color:red'>Fail,<span style='color:red'>Fail,<span style='color:green'>Lift,<span style='color:green'>Lift,<span style='color:red'>Fail,<span style='color:red'>Fail,<span style='color:red'>Fail,<span style='color:red'>Fail,<span style='color:red'>Fail,<span style='color:green'>Lift,<span style='color:green'>Lift,<span style='color:red'>Fail","<span style='color:red'>Fail,<span style='color:red'>Fail,<span style='color:green'>Lift,<span style='color:green'>Lift,<span style='color:green'>Lift,<span style='color:green'>Lift,<span style='color:red'>Fail,<span style='color:green'>Lift,<span style='color:green'>Lift,<span style='color:green'>Lift,<span style='color:green'>Lift,<span style='color:red'>Fail","<span style='color:red'>Fail,<span style='color:green'>Lift,<span style='color:green'>Lift,<span style='color:red'>Fail,<span style='color:green'>Lift,<span style='color:green'>Lift","0,0,1,1,0,0,0,0,0,1,1,0","0,0,1,1,1,1,0,1,1,1,1,0","0,1,1,0,1,1",10,20,20,"","","","","{""box1"":""5"",""box2"":""1"",""box3"":""75""}","",4,"round2_outcome",3,4,2,5,1,75,NA,1,0,20,NA,NA,NA,NA,NA,NA,NA,NA,NA,NA,NA,5,1,75,NA,1,0,20,NA,NA,NA,NA,NA,NA,NA,NA,NA,NA,NA,"",NA,NA,NA,NA,NA,NA,NA,NA,NA,2025-11-21 01:35:32
"6431.700000017881","https://psyc-201.github.io/xiang2023/exp/index1.html?PROLIFIC_PID=REDACTED&STUDY_ID=691f8ca61c6b4dcbb0aeb5f4&SESSION_ID=691fbdd6979be4775b0b1689","survey-html-form",29,758710,"0.0-338.0","c43FLjbrguhv0PUPWa9UlFE2AIytyBuj+yaBnm5Pe4qajggJdZmgbeVw73q6F12yIZVIttkvXHJzMh2VZ/zokAjHdU5G8ekzNk7ZJleBf4IRRXj1bqJMbVxaTQhd6uSgV2ay25+DT1zznlkD9AmU0/z5x8IDAetja8yOgt2WnhaDqfynnwmExpCUGHPdsNGBGLj8qbWaKYe11vP4a7pHthBxe/u9HZ2BITQctzM1jnyL36iN+1qKOrKdrKYfQ9iTKr6IkJs1gXtwwDvFFKNK8fvkeYayoCKzCuaXiMM2/HYx+8r1yI7rf5yZCOS8RcqKtTFjO5/16KUgrBYQpGqPwA==","691f8ca61c6b4dcbb0aeb5f4","691fbdd6979be4775b0b1689","index1","<span style='color:red'>Fail,<span style='color:red'>Fail,<span style='color:green'>Lift,<span style='color:green'>Lift,<span style='color:red'>Fail,<span style='color:red'>Fail,<span style='color:red'>Fail,<span style='color:red'>Fail,<span style='color:red'>Fail,<span style='color:green'>Lift,<span style='color:green'>Lift,<span style='color:red'>Fail","<span style='color:red'>Fail,<span style='color:red'>Fail,<span style='color:green'>Lift,<span style='color:green'>Lift,<span style='color:green'>Lift,<span style='color:green'>Lift,<span style='color:red'>Fail,<span style='color:green'>Lift,<span style='color:green'>Lift,<span style='color:green'>Lift,<span style='color:green'>Lift,<span style='color:red'>Fail","<span style='color:red'>Fail,<span style='color:green'>Lift,<span style='color:green'>Lift,<span style='color:red'>Fail,<span style='color:green'>Lift,<span style='color:green'>Lift","0,0,1,1,0,0,0,0,0,1,1,0","0,0,1,1,1,1,0,1,1,1,1,0","0,1,1,0,1,1",10,20,20,"","","","","{""box1"":""50""}","",4,"round3_ready",4,4,3,NA,NA,NA,NA,NA,NA,NA,NA,NA,NA,NA,NA,NA,NA,50,50,NA,NA,NA,NA,NA,NA,NA,NA,NA,50,50,NA,NA,NA,NA,NA,NA,NA,NA,NA,"",NA,NA,NA,NA,NA,NA,NA,NA,NA,2025-11-21 01:35:32
"21113","https://psyc-201.github.io/xiang2023/exp/index1.html?PROLIFIC_PID=REDACTED&STUDY_ID=691f8ca61c6b4dcbb0aeb5f4&SESSION_ID=691fbdd6979be4775b0b1689","survey-html-form",30,779827,"0.0-339.0-0.0","c43FLjbrguhv0PUPWa9UlFE2AIytyBuj+yaBnm5Pe4qajggJdZmgbeVw73q6F12yIZVIttkvXHJzMh2VZ/zokAjHdU5G8ekzNk7ZJleBf4IRRXj1bqJMbVxaTQhd6uSgV2ay25+DT1zznlkD9AmU0/z5x8IDAetja8yOgt2WnhaDqfynnwmExpCUGHPdsNGBGLj8qbWaKYe11vP4a7pHthBxe/u9HZ2BITQctzM1jnyL36iN+1qKOrKdrKYfQ9iTKr6IkJs1gXtwwDvFFKNK8fvkeYayoCKzCuaXiMM2/HYx+8r1yI7rf5yZCOS8RcqKtTFjO5/16KUgrBYQpGqPwA==","691f8ca61c6b4dcbb0aeb5f4","691fbdd6979be4775b0b1689","index1","<span style='color:red'>Fail,<span style='color:red'>Fail,<span style='color:green'>Lift,<span style='color:green'>Lift,<span style='color:red'>Fail,<span style='color:red'>Fail,<span style='color:red'>Fail,<span style='color:red'>Fail,<span style='color:red'>Fail,<span style='color:green'>Lift,<span style='color:green'>Lift,<span style='color:red'>Fail","<span style='color:red'>Fail,<span style='color:red'>Fail,<span style='color:green'>Lift,<span style='color:green'>Lift,<span style='color:green'>Lift,<span style='color:green'>Lift,<span style='color:red'>Fail,<span style='color:green'>Lift,<span style='color:green'>Lift,<span style='color:green'>Lift,<span style='color:green'>Lift,<span style='color:red'>Fail","<span style='color:red'>Fail,<span style='color:green'>Lift,<span style='color:green'>Lift,<span style='color:red'>Fail,<span style='color:green'>Lift,<span style='color:green'>Lift","0,0,1,1,0,0,0,0,0,1,1,0","0,0,1,1,1,1,0,1,1,1,1,0","0,1,1,0,1,1",10,20,20,"","","","","{""box1"":""7"",""box2"":""1"",""box3"":""50"",""box4"":""50""}","",5,"round3_lift",5,4,3,7,1,50,50,1,1,20,NA,NA,NA,NA,NA,NA,NA,NA,NA,NA,NA,NA,NA,NA,NA,NA,NA,NA,NA,NA,7,1,50,50,1,1,20,NA,NA,"",NA,NA,NA,NA,NA,NA,NA,NA,NA,2025-11-21 01:35:32
"null","https://psyc-201.github.io/xiang2023/exp/index1.html?PROLIFIC_PID=REDACTED&STUDY_ID=691f8ca61c6b4dcbb0aeb5f4&SESSION_ID=691fbdd6979be4775b0b1689","html-keyboard-response",31,782834,"0.0-343.0","c43FLjbrguhv0PUPWa9UlFE2AIytyBuj+yaBnm5Pe4qajggJdZmgbeVw73q6F12yIZVIttkvXHJzMh2VZ/zokAjHdU5G8ekzNk7ZJleBf4IRRXj1bqJMbVxaTQhd6uSgV2ay25+DT1zznlkD9AmU0/z5x8IDAetja8yOgt2WnhaDqfynnwmExpCUGHPdsNGBGLj8qbWaKYe11vP4a7pHthBxe/u9HZ2BITQctzM1jnyL36iN+1qKOrKdrKYfQ9iTKr6IkJs1gXtwwDvFFKNK8fvkeYayoCKzCuaXiMM2/HYx+8r1yI7rf5yZCOS8RcqKtTFjO5/16KUgrBYQpGqPwA==","691f8ca61c6b4dcbb0aeb5f4","691fbdd6979be4775b0b1689","index1","<span style='color:red'>Fail,<span style='color:red'>Fail,<span style='color:green'>Lift,<span style='color:green'>Lift,<span style='color:red'>Fail,<span style='color:red'>Fail,<span style='color:red'>Fail,<span style='color:red'>Fail,<span style='color:red'>Fail,<span style='color:green'>Lift,<span style='color:green'>Lift,<span style='color:red'>Fail","<span style='color:red'>Fail,<span style='color:red'>Fail,<span style='color:green'>Lift,<span style='color:green'>Lift,<span style='color:green'>Lift,<span style='color:green'>Lift,<span style='color:red'>Fail,<span style='color:green'>Lift,<span style='color:green'>Lift,<span style='color:green'>Lift,<span style='color:green'>Lift,<span style='color:red'>Fail","<span style='color:red'>Fail,<span style='color:green'>Lift,<span style='color:green'>Lift,<span style='color:red'>Fail,<span style='color:green'>Lift,<span style='color:green'>Lift","0,0,1,1,0,0,0,0,0,1,1,0","0,0,1,1,1,1,0,1,1,1,1,0","0,1,1,0,1,1",10,20,20,"","","<p style='font-size:30px'><b> New Contest! </b></p>","null","","",5,"",NA,NA,NA,NA,NA,NA,NA,NA,NA,NA,NA,NA,NA,NA,NA,NA,NA,NA,NA,NA,NA,NA,NA,NA,NA,NA,NA,NA,NA,NA,NA,NA,NA,NA,NA,NA,NA,NA,NA,"",NA,NA,NA,NA,NA,NA,NA,NA,NA,2025-11-21 01:35:32
"12593","https://psyc-201.github.io/xiang2023/exp/index1.html?PROLIFIC_PID=REDACTED&STUDY_ID=691f8ca61c6b4dcbb0aeb5f4&SESSION_ID=691fbdd6979be4775b0b1689","survey-html-form",32,795431,"0.0-344.0","c43FLjbrguhv0PUPWa9UlFE2AIytyBuj+yaBnm5Pe4qajggJdZmgbeVw73q6F12yIZVIttkvXHJzMh2VZ/zokAjHdU5G8ekzNk7ZJleBf4IRRXj1bqJMbVxaTQhd6uSgV2ay25+DT1zznlkD9AmU0/z5x8IDAetja8yOgt2WnhaDqfynnwmExpCUGHPdsNGBGLj8qbWaKYe11vP4a7pHthBxe/u9HZ2BITQctzM1jnyL36iN+1qKOrKdrKYfQ9iTKr6IkJs1gXtwwDvFFKNK8fvkeYayoCKzCuaXiMM2/HYx+8r1yI7rf5yZCOS8RcqKtTFjO5/16KUgrBYQpGqPwA==","691f8ca61c6b4dcbb0aeb5f4","691fbdd6979be4775b0b1689","index1","<span style='color:red'>Fail,<span style='color:red'>Fail,<span style='color:green'>Lift,<span style='color:green'>Lift,<span style='color:red'>Fail,<span style='color:red'>Fail,<span style='color:red'>Fail,<span style='color:red'>Fail,<span style='color:red'>Fail,<span style='color:green'>Lift,<span style='color:green'>Lift,<span style='color:red'>Fail","<span style='color:red'>Fail,<span style='color:red'>Fail,<span style='color:green'>Lift,<span style='color:green'>Lift,<span style='color:green'>Lift,<span style='color:green'>Lift,<span style='color:red'>Fail,<span style='color:green'>Lift,<span style='color:green'>Lift,<span style='color:green'>Lift,<span style='color:green'>Lift,<span style='color:red'>Fail","<span style='color:red'>Fail,<span style='color:green'>Lift,<span style='color:green'>Lift,<span style='color:red'>Fail,<span style='color:green'>Lift,<span style='color:green'>Lift","0,0,1,1,0,0,0,0,0,1,1,0","0,0,1,1,1,1,0,1,1,1,1,0","0,1,1,0,1,1",10,20,20,"","","","","{""box1"":""1"",""box2"":""1""}","",5,"round1_outcome",1,5,1,1,1,NA,NA,0,0,10,1,1,NA,NA,0,0,10,NA,NA,NA,NA,NA,NA,NA,NA,NA,NA,NA,NA,NA,NA,NA,NA,NA,NA,NA,NA,NA,NA,"",NA,NA,NA,NA,NA,NA,NA,NA,NA,2025-11-21 01:35:32
"8431.699999988079","https://psyc-201.github.io/xiang2023/exp/index1.html?PROLIFIC_PID=REDACTED&STUDY_ID=691f8ca61c6b4dcbb0aeb5f4&SESSION_ID=691fbdd6979be4775b0b1689","survey-html-form",33,803871,"0.0-345.0","c43FLjbrguhv0PUPWa9UlFE2AIytyBuj+yaBnm5Pe4qajggJdZmgbeVw73q6F12yIZVIttkvXHJzMh2VZ/zokAjHdU5G8ekzNk7ZJleBf4IRRXj1bqJMbVxaTQhd6uSgV2ay25+DT1zznlkD9AmU0/z5x8IDAetja8yOgt2WnhaDqfynnwmExpCUGHPdsNGBGLj8qbWaKYe11vP4a7pHthBxe/u9HZ2BITQctzM1jnyL36iN+1qKOrKdrKYfQ9iTKr6IkJs1gXtwwDvFFKNK8fvkeYayoCKzCuaXiMM2/HYx+8r1yI7rf5yZCOS8RcqKtTFjO5/16KUgrBYQpGqPwA==","691f8ca61c6b4dcbb0aeb5f4","691fbdd6979be4775b0b1689","index1","<span style='color:red'>Fail,<span style='color:red'>Fail,<span style='color:green'>Lift,<span style='color:green'>Lift,<span style='color:red'>Fail,<span style='color:red'>Fail,<span style='color:red'>Fail,<span style='color:red'>Fail,<span style='color:red'>Fail,<span style='color:green'>Lift,<span style='color:green'>Lift,<span style='color:red'>Fail","<span style='color:red'>Fail,<span style='color:red'>Fail,<span style='color:green'>Lift,<span style='color:green'>Lift,<span style='color:green'>Lift,<span style='color:green'>Lift,<span style='color:red'>Fail,<span style='color:green'>Lift,<span style='color:green'>Lift,<span style='color:green'>Lift,<span style='color:green'>Lift,<span style='color:red'>Fail","<span style='color:red'>Fail,<span style='color:green'>Lift,<span style='color:green'>Lift,<span style='color:red'>Fail,<span style='color:green'>Lift,<span style='color:green'>Lift","0,0,1,1,0,0,0,0,0,1,1,0","0,0,1,1,1,1,0,1,1,1,1,0","0,1,1,0,1,1",10,20,20,"","","","","{""box1"":""50"",""box2"":""50""}","",5,"round2_ready",2,5,2,NA,NA,NA,NA,NA,NA,NA,NA,NA,NA,NA,NA,NA,NA,50,50,50,50,NA,NA,NA,NA,NA,NA,NA,NA,NA,NA,NA,NA,NA,NA,NA,NA,NA,NA,"",NA,NA,NA,NA,NA,NA,NA,NA,NA,2025-11-21 01:35:32
"7122.800000011921","https://psyc-201.github.io/xiang2023/exp/index1.html?PROLIFIC_PID=REDACTED&STUDY_ID=691f8ca61c6b4dcbb0aeb5f4&SESSION_ID=691fbdd6979be4775b0b1689","survey-html-form",34,811000,"0.0-346.0","c43FLjbrguhv0PUPWa9UlFE2AIytyBuj+yaBnm5Pe4qajggJdZmgbeVw73q6F12yIZVIttkvXHJzMh2VZ/zokAjHdU5G8ekzNk7ZJleBf4IRRXj1bqJMbVxaTQhd6uSgV2ay25+DT1zznlkD9AmU0/z5x8IDAetja8yOgt2WnhaDqfynnwmExpCUGHPdsNGBGLj8qbWaKYe11vP4a7pHthBxe/u9HZ2BITQctzM1jnyL36iN+1qKOrKdrKYfQ9iTKr6IkJs1gXtwwDvFFKNK8fvkeYayoCKzCuaXiMM2/HYx+8r1yI7rf5yZCOS8RcqKtTFjO5/16KUgrBYQpGqPwA==","691f8ca61c6b4dcbb0aeb5f4","691fbdd6979be4775b0b1689","index1","<span style='color:red'>Fail,<span style='color:red'>Fail,<span style='color:green'>Lift,<span style='color:green'>Lift,<span style='color:red'>Fail,<span style='color:red'>Fail,<span style='color:red'>Fail,<span style='color:red'>Fail,<span style='color:red'>Fail,<span style='color:green'>Lift,<span style='color:green'>Lift,<span style='color:red'>Fail","<span style='color:red'>Fail,<span style='color:red'>Fail,<span style='color:green'>Lift,<span style='color:green'>Lift,<span style='color:green'>Lift,<span style='color:green'>Lift,<span style='color:red'>Fail,<span style='color:green'>Lift,<span style='color:green'>Lift,<span style='color:green'>Lift,<span style='color:green'>Lift,<span style='color:red'>Fail","<span style='color:red'>Fail,<span style='color:green'>Lift,<span style='color:green'>Lift,<span style='color:red'>Fail,<span style='color:green'>Lift,<span style='color:green'>Lift","0,0,1,1,0,0,0,0,0,1,1,0","0,0,1,1,1,1,0,1,1,1,1,0","0,1,1,0,1,1",10,20,20,"","","","","{""box1"":""1"",""box2"":""1""}","",5,"round2_outcome",3,5,2,1,1,NA,NA,0,0,20,NA,NA,NA,NA,NA,NA,NA,NA,NA,NA,NA,1,1,NA,NA,0,0,20,NA,NA,NA,NA,NA,NA,NA,NA,NA,NA,NA,"",NA,NA,NA,NA,NA,NA,NA,NA,NA,2025-11-21 01:35:32
"6651.899999976158","https://psyc-201.github.io/xiang2023/exp/index1.html?PROLIFIC_PID=REDACTED&STUDY_ID=691f8ca61c6b4dcbb0aeb5f4&SESSION_ID=691fbdd6979be4775b0b1689","survey-html-form",35,817657,"0.0-347.0","c43FLjbrguhv0PUPWa9UlFE2AIytyBuj+yaBnm5Pe4qajggJdZmgbeVw73q6F12yIZVIttkvXHJzMh2VZ/zokAjHdU5G8ekzNk7ZJleBf4IRRXj1bqJMbVxaTQhd6uSgV2ay25+DT1zznlkD9AmU0/z5x8IDAetja8yOgt2WnhaDqfynnwmExpCUGHPdsNGBGLj8qbWaKYe11vP4a7pHthBxe/u9HZ2BITQctzM1jnyL36iN+1qKOrKdrKYfQ9iTKr6IkJs1gXtwwDvFFKNK8fvkeYayoCKzCuaXiMM2/HYx+8r1yI7rf5yZCOS8RcqKtTFjO5/16KUgrBYQpGqPwA==","691f8ca61c6b4dcbb0aeb5f4","691fbdd6979be4775b0b1689","index1","<span style='color:red'>Fail,<span style='color:red'>Fail,<span style='color:green'>Lift,<span style='color:green'>Lift,<span style='color:red'>Fail,<span style='color:red'>Fail,<span style='color:red'>Fail,<span style='color:red'>Fail,<span style='color:red'>Fail,<span style='color:green'>Lift,<span style='color:green'>Lift,<span style='color:red'>Fail","<span style='color:red'>Fail,<span style='color:red'>Fail,<span style='color:green'>Lift,<span style='color:green'>Lift,<span style='color:green'>Lift,<span style='color:green'>Lift,<span style='color:red'>Fail,<span style='color:green'>Lift,<span style='color:green'>Lift,<span style='color:green'>Lift,<span style='color:green'>Lift,<span style='color:red'>Fail","<span style='color:red'>Fail,<span style='color:green'>Lift,<span style='color:green'>Lift,<span style='color:red'>Fail,<span style='color:green'>Lift,<span style='color:green'>Lift","0,0,1,1,0,0,0,0,0,1,1,0","0,0,1,1,1,1,0,1,1,1,1,0","0,1,1,0,1,1",10,20,20,"","","","","{""box1"":""25""}","",5,"round3_ready",4,5,3,NA,NA,NA,NA,NA,NA,NA,NA,NA,NA,NA,NA,NA,NA,25,25,NA,NA,NA,NA,NA,NA,NA,NA,NA,25,25,NA,NA,NA,NA,NA,NA,NA,NA,NA,"",NA,NA,NA,NA,NA,NA,NA,NA,NA,2025-11-21 01:35:32
"7834.199999988079","https://psyc-201.github.io/xiang2023/exp/index1.html?PROLIFIC_PID=REDACTED&STUDY_ID=691f8ca61c6b4dcbb0aeb5f4&SESSION_ID=691fbdd6979be4775b0b1689","survey-html-form",36,825498,"0.0-349.0-0.0","c43FLjbrguhv0PUPWa9UlFE2AIytyBuj+yaBnm5Pe4qajggJdZmgbeVw73q6F12yIZVIttkvXHJzMh2VZ/zokAjHdU5G8ekzNk7ZJleBf4IRRXj1bqJMbVxaTQhd6uSgV2ay25+DT1zznlkD9AmU0/z5x8IDAetja8yOgt2WnhaDqfynnwmExpCUGHPdsNGBGLj8qbWaKYe11vP4a7pHthBxe/u9HZ2BITQctzM1jnyL36iN+1qKOrKdrKYfQ9iTKr6IkJs1gXtwwDvFFKNK8fvkeYayoCKzCuaXiMM2/HYx+8r1yI7rf5yZCOS8RcqKtTFjO5/16KUgrBYQpGqPwA==","691f8ca61c6b4dcbb0aeb5f4","691fbdd6979be4775b0b1689","index1","<span style='color:red'>Fail,<span style='color:red'>Fail,<span style='color:green'>Lift,<span style='color:green'>Lift,<span style='color:red'>Fail,<span style='color:red'>Fail,<span style='color:red'>Fail,<span style='color:red'>Fail,<span style='color:red'>Fail,<span style='color:green'>Lift,<span style='color:green'>Lift,<span style='color:red'>Fail","<span style='color:red'>Fail,<span style='color:red'>Fail,<span style='color:green'>Lift,<span style='color:green'>Lift,<span style='color:green'>Lift,<span style='color:green'>Lift,<span style='color:red'>Fail,<span style='color:green'>Lift,<span style='color:green'>Lift,<span style='color:green'>Lift,<span style='color:green'>Lift,<span style='color:red'>Fail","<span style='color:red'>Fail,<span style='color:green'>Lift,<span style='color:green'>Lift,<span style='color:red'>Fail,<span style='color:green'>Lift,<span style='color:green'>Lift","0,0,1,1,0,0,0,0,0,1,1,0","0,0,1,1,1,1,0,1,1,1,1,0","0,1,1,0,1,1",10,20,20,"","","","","{""box1"":""1"",""box2"":""1"",""box3"":""999"",""box4"":""999""}","",6,"round3_fail",5,5,3,1,1,NA,NA,0,0,20,NA,NA,NA,NA,NA,NA,NA,NA,NA,NA,NA,NA,NA,NA,NA,NA,NA,NA,NA,NA,1,1,NA,NA,0,0,20,1,1,"",NA,NA,NA,NA,NA,NA,NA,NA,NA,2025-11-21 01:35:32
"null","https://psyc-201.github.io/xiang2023/exp/index1.html?PROLIFIC_PID=REDACTED&STUDY_ID=691f8ca61c6b4dcbb0aeb5f4&SESSION_ID=691fbdd6979be4775b0b1689","html-keyboard-response",37,828513,"0.0-352.0","c43FLjbrguhv0PUPWa9UlFE2AIytyBuj+yaBnm5Pe4qajggJdZmgbeVw73q6F12yIZVIttkvXHJzMh2VZ/zokAjHdU5G8ekzNk7ZJleBf4IRRXj1bqJMbVxaTQhd6uSgV2ay25+DT1zznlkD9AmU0/z5x8IDAetja8yOgt2WnhaDqfynnwmExpCUGHPdsNGBGLj8qbWaKYe11vP4a7pHthBxe/u9HZ2BITQctzM1jnyL36iN+1qKOrKdrKYfQ9iTKr6IkJs1gXtwwDvFFKNK8fvkeYayoCKzCuaXiMM2/HYx+8r1yI7rf5yZCOS8RcqKtTFjO5/16KUgrBYQpGqPwA==","691f8ca61c6b4dcbb0aeb5f4","691fbdd6979be4775b0b1689","index1","<span style='color:red'>Fail,<span style='color:red'>Fail,<span style='color:green'>Lift,<span style='color:green'>Lift,<span style='color:red'>Fail,<span style='color:red'>Fail,<span style='color:red'>Fail,<span style='color:red'>Fail,<span style='color:red'>Fail,<span style='color:green'>Lift,<span style='color:green'>Lift,<span style='color:red'>Fail","<span style='color:red'>Fail,<span style='color:red'>Fail,<span style='color:green'>Lift,<span style='color:green'>Lift,<span style='color:green'>Lift,<span style='color:green'>Lift,<span style='color:red'>Fail,<span style='color:green'>Lift,<span style='color:green'>Lift,<span style='color:green'>Lift,<span style='color:green'>Lift,<span style='color:red'>Fail","<span style='color:red'>Fail,<span style='color:green'>Lift,<span style='color:green'>Lift,<span style='color:red'>Fail,<span style='color:green'>Lift,<span style='color:green'>Lift","0,0,1,1,0,0,0,0,0,1,1,0","0,0,1,1,1,1,0,1,1,1,1,0","0,1,1,0,1,1",10,20,20,"","","<p style='font-size:30px'><b> New Contest! </b></p>","null","","",6,"",NA,NA,NA,NA,NA,NA,NA,NA,NA,NA,NA,NA,NA,NA,NA,NA,NA,NA,NA,NA,NA,NA,NA,NA,NA,NA,NA,NA,NA,NA,NA,NA,NA,NA,NA,NA,NA,NA,NA,"",NA,NA,NA,NA,NA,NA,NA,NA,NA,2025-11-21 01:35:32
"5764.5999999940395","https://psyc-201.github.io/xiang2023/exp/index1.html?PROLIFIC_PID=REDACTED&STUDY_ID=691f8ca61c6b4dcbb0aeb5f4&SESSION_ID=691fbdd6979be4775b0b1689","survey-html-form",38,834281,"0.0-353.0","c43FLjbrguhv0PUPWa9UlFE2AIytyBuj+yaBnm5Pe4qajggJdZmgbeVw73q6F12yIZVIttkvXHJzMh2VZ/zokAjHdU5G8ekzNk7ZJleBf4IRRXj1bqJMbVxaTQhd6uSgV2ay25+DT1zznlkD9AmU0/z5x8IDAetja8yOgt2WnhaDqfynnwmExpCUGHPdsNGBGLj8qbWaKYe11vP4a7pHthBxe/u9HZ2BITQctzM1jnyL36iN+1qKOrKdrKYfQ9iTKr6IkJs1gXtwwDvFFKNK8fvkeYayoCKzCuaXiMM2/HYx+8r1yI7rf5yZCOS8RcqKtTFjO5/16KUgrBYQpGqPwA==","691f8ca61c6b4dcbb0aeb5f4","691fbdd6979be4775b0b1689","index1","<span style='color:red'>Fail,<span style='color:red'>Fail,<span style='color:green'>Lift,<span style='color:green'>Lift,<span style='color:red'>Fail,<span style='color:red'>Fail,<span style='color:red'>Fail,<span style='color:red'>Fail,<span style='color:red'>Fail,<span style='color:green'>Lift,<span style='color:green'>Lift,<span style='color:red'>Fail","<span style='color:red'>Fail,<span style='color:red'>Fail,<span style='color:green'>Lift,<span style='color:green'>Lift,<span style='color:green'>Lift,<span style='color:green'>Lift,<span style='color:red'>Fail,<span style='color:green'>Lift,<span style='color:green'>Lift,<span style='color:green'>Lift,<span style='color:green'>Lift,<span style='color:red'>Fail","<span style='color:red'>Fail,<span style='color:green'>Lift,<span style='color:green'>Lift,<span style='color:red'>Fail,<span style='color:green'>Lift,<span style='color:green'>Lift","0,0,1,1,0,0,0,0,0,1,1,0","0,0,1,1,1,1,0,1,1,1,1,0","0,1,1,0,1,1",10,20,20,"","","","","{""box1"":""1"",""box2"":""1""}","",6,"round1_outcome",1,6,1,1,1,NA,NA,0,0,10,1,1,NA,NA,0,0,10,NA,NA,NA,NA,NA,NA,NA,NA,NA,NA,NA,NA,NA,NA,NA,NA,NA,NA,NA,NA,NA,NA,"",NA,NA,NA,NA,NA,NA,NA,NA,NA,2025-11-21 01:35:32
"6785.100000023842","https://psyc-201.github.io/xiang2023/exp/index1.html?PROLIFIC_PID=REDACTED&STUDY_ID=691f8ca61c6b4dcbb0aeb5f4&SESSION_ID=691fbdd6979be4775b0b1689","survey-html-form",39,841072,"0.0-354.0","c43FLjbrguhv0PUPWa9UlFE2AIytyBuj+yaBnm5Pe4qajggJdZmgbeVw73q6F12yIZVIttkvXHJzMh2VZ/zokAjHdU5G8ekzNk7ZJleBf4IRRXj1bqJMbVxaTQhd6uSgV2ay25+DT1zznlkD9AmU0/z5x8IDAetja8yOgt2WnhaDqfynnwmExpCUGHPdsNGBGLj8qbWaKYe11vP4a7pHthBxe/u9HZ2BITQctzM1jnyL36iN+1qKOrKdrKYfQ9iTKr6IkJs1gXtwwDvFFKNK8fvkeYayoCKzCuaXiMM2/HYx+8r1yI7rf5yZCOS8RcqKtTFjO5/16KUgrBYQpGqPwA==","691f8ca61c6b4dcbb0aeb5f4","691fbdd6979be4775b0b1689","index1","<span style='color:red'>Fail,<span style='color:red'>Fail,<span style='color:green'>Lift,<span style='color:green'>Lift,<span style='color:red'>Fail,<span style='color:red'>Fail,<span style='color:red'>Fail,<span style='color:red'>Fail,<span style='color:red'>Fail,<span style='color:green'>Lift,<span style='color:green'>Lift,<span style='color:red'>Fail","<span style='color:red'>Fail,<span style='color:red'>Fail,<span style='color:green'>Lift,<span style='color:green'>Lift,<span style='color:green'>Lift,<span style='color:green'>Lift,<span style='color:red'>Fail,<span style='color:green'>Lift,<span style='color:green'>Lift,<span style='color:green'>Lift,<span style='color:green'>Lift,<span style='color:red'>Fail","<span style='color:red'>Fail,<span style='color:green'>Lift,<span style='color:green'>Lift,<span style='color:red'>Fail,<span style='color:green'>Lift,<span style='color:green'>Lift","0,0,1,1,0,0,0,0,0,1,1,0","0,0,1,1,1,1,0,1,1,1,1,0","0,1,1,0,1,1",10,20,20,"","","","","{""box1"":""50"",""box2"":""50""}","",6,"round2_ready",2,6,2,NA,NA,NA,NA,NA,NA,NA,NA,NA,NA,NA,NA,NA,NA,50,50,50,50,NA,NA,NA,NA,NA,NA,NA,NA,NA,NA,NA,NA,NA,NA,NA,NA,NA,NA,"",NA,NA,NA,NA,NA,NA,NA,NA,NA,2025-11-21 01:35:32
"19072.30000001192","https://psyc-201.github.io/xiang2023/exp/index1.html?PROLIFIC_PID=REDACTED&STUDY_ID=691f8ca61c6b4dcbb0aeb5f4&SESSION_ID=691fbdd6979be4775b0b1689","survey-html-form",40,860160,"0.0-355.0","c43FLjbrguhv0PUPWa9UlFE2AIytyBuj+yaBnm5Pe4qajggJdZmgbeVw73q6F12yIZVIttkvXHJzMh2VZ/zokAjHdU5G8ekzNk7ZJleBf4IRRXj1bqJMbVxaTQhd6uSgV2ay25+DT1zznlkD9AmU0/z5x8IDAetja8yOgt2WnhaDqfynnwmExpCUGHPdsNGBGLj8qbWaKYe11vP4a7pHthBxe/u9HZ2BITQctzM1jnyL36iN+1qKOrKdrKYfQ9iTKr6IkJs1gXtwwDvFFKNK8fvkeYayoCKzCuaXiMM2/HYx+8r1yI7rf5yZCOS8RcqKtTFjO5/16KUgrBYQpGqPwA==","691f8ca61c6b4dcbb0aeb5f4","691fbdd6979be4775b0b1689","index1","<span style='color:red'>Fail,<span style='color:red'>Fail,<span style='color:green'>Lift,<span style='color:green'>Lift,<span style='color:red'>Fail,<span style='color:red'>Fail,<span style='color:red'>Fail,<span style='color:red'>Fail,<span style='color:red'>Fail,<span style='color:green'>Lift,<span style='color:green'>Lift,<span style='color:red'>Fail","<span style='color:red'>Fail,<span style='color:red'>Fail,<span style='color:green'>Lift,<span style='color:green'>Lift,<span style='color:green'>Lift,<span style='color:green'>Lift,<span style='color:red'>Fail,<span style='color:green'>Lift,<span style='color:green'>Lift,<span style='color:green'>Lift,<span style='color:green'>Lift,<span style='color:red'>Fail","<span style='color:red'>Fail,<span style='color:green'>Lift,<span style='color:green'>Lift,<span style='color:red'>Fail,<span style='color:green'>Lift,<span style='color:green'>Lift","0,0,1,1,0,0,0,0,0,1,1,0","0,0,1,1,1,1,0,1,1,1,1,0","0,1,1,0,1,1",10,20,20,"","","","","{""box1"":""5"",""box2"":""5"",""box3"":""59"",""box4"":""50""}","",6,"round2_outcome",3,6,2,5,5,59,50,1,1,20,NA,NA,NA,NA,NA,NA,NA,NA,NA,NA,NA,5,5,59,50,1,1,20,NA,NA,NA,NA,NA,NA,NA,NA,NA,NA,NA,"",NA,NA,NA,NA,NA,NA,NA,NA,NA,2025-11-21 01:35:32
"8197.100000023842","https://psyc-201.github.io/xiang2023/exp/index1.html?PROLIFIC_PID=REDACTED&STUDY_ID=691f8ca61c6b4dcbb0aeb5f4&SESSION_ID=691fbdd6979be4775b0b1689","survey-html-form",41,868363,"0.0-356.0","c43FLjbrguhv0PUPWa9UlFE2AIytyBuj+yaBnm5Pe4qajggJdZmgbeVw73q6F12yIZVIttkvXHJzMh2VZ/zokAjHdU5G8ekzNk7ZJleBf4IRRXj1bqJMbVxaTQhd6uSgV2ay25+DT1zznlkD9AmU0/z5x8IDAetja8yOgt2WnhaDqfynnwmExpCUGHPdsNGBGLj8qbWaKYe11vP4a7pHthBxe/u9HZ2BITQctzM1jnyL36iN+1qKOrKdrKYfQ9iTKr6IkJs1gXtwwDvFFKNK8fvkeYayoCKzCuaXiMM2/HYx+8r1yI7rf5yZCOS8RcqKtTFjO5/16KUgrBYQpGqPwA==","691f8ca61c6b4dcbb0aeb5f4","691fbdd6979be4775b0b1689","index1","<span style='color:red'>Fail,<span style='color:red'>Fail,<span style='color:green'>Lift,<span style='color:green'>Lift,<span style='color:red'>Fail,<span style='color:red'>Fail,<span style='color:red'>Fail,<span style='color:red'>Fail,<span style='color:red'>Fail,<span style='color:green'>Lift,<span style='color:green'>Lift,<span style='color:red'>Fail","<span style='color:red'>Fail,<span style='color:red'>Fail,<span style='color:green'>Lift,<span style='color:green'>Lift,<span style='color:green'>Lift,<span style='color:green'>Lift,<span style='color:red'>Fail,<span style='color:green'>Lift,<span style='color:green'>Lift,<span style='color:green'>Lift,<span style='color:green'>Lift,<span style='color:red'>Fail","<span style='color:red'>Fail,<span style='color:green'>Lift,<span style='color:green'>Lift,<span style='color:red'>Fail,<span style='color:green'>Lift,<span style='color:green'>Lift","0,0,1,1,0,0,0,0,0,1,1,0","0,0,1,1,1,1,0,1,1,1,1,0","0,1,1,0,1,1",10,20,20,"","","","","{""box1"":""100""}","",6,"round3_ready",4,6,3,NA,NA,NA,NA,NA,NA,NA,NA,NA,NA,NA,NA,NA,NA,100,100,NA,NA,NA,NA,NA,NA,NA,NA,NA,100,100,NA,NA,NA,NA,NA,NA,NA,NA,NA,"",NA,NA,NA,NA,NA,NA,NA,NA,NA,2025-11-21 01:35:32
"11112.299999982119","https://psyc-201.github.io/xiang2023/exp/index1.html?PROLIFIC_PID=REDACTED&STUDY_ID=691f8ca61c6b4dcbb0aeb5f4&SESSION_ID=691fbdd6979be4775b0b1689","survey-html-form",42,879478,"0.0-357.0-0.0","c43FLjbrguhv0PUPWa9UlFE2AIytyBuj+yaBnm5Pe4qajggJdZmgbeVw73q6F12yIZVIttkvXHJzMh2VZ/zokAjHdU5G8ekzNk7ZJleBf4IRRXj1bqJMbVxaTQhd6uSgV2ay25+DT1zznlkD9AmU0/z5x8IDAetja8yOgt2WnhaDqfynnwmExpCUGHPdsNGBGLj8qbWaKYe11vP4a7pHthBxe/u9HZ2BITQctzM1jnyL36iN+1qKOrKdrKYfQ9iTKr6IkJs1gXtwwDvFFKNK8fvkeYayoCKzCuaXiMM2/HYx+8r1yI7rf5yZCOS8RcqKtTFjO5/16KUgrBYQpGqPwA==","691f8ca61c6b4dcbb0aeb5f4","691fbdd6979be4775b0b1689","index1","<span style='color:red'>Fail,<span style='color:red'>Fail,<span style='color:green'>Lift,<span style='color:green'>Lift,<span style='color:red'>Fail,<span style='color:red'>Fail,<span style='color:red'>Fail,<span style='color:red'>Fail,<span style='color:red'>Fail,<span style='color:green'>Lift,<span style='color:green'>Lift,<span style='color:red'>Fail","<span style='color:red'>Fail,<span style='color:red'>Fail,<span style='color:green'>Lift,<span style='color:green'>Lift,<span style='color:green'>Lift,<span style='color:green'>Lift,<span style='color:red'>Fail,<span style='color:green'>Lift,<span style='color:green'>Lift,<span style='color:green'>Lift,<span style='color:green'>Lift,<span style='color:red'>Fail","<span style='color:red'>Fail,<span style='color:green'>Lift,<span style='color:green'>Lift,<span style='color:red'>Fail,<span style='color:green'>Lift,<span style='color:green'>Lift","0,0,1,1,0,0,0,0,0,1,1,0","0,0,1,1,1,1,0,1,1,1,1,0","0,1,1,0,1,1",10,20,20,"","","","","{""box1"":""5"",""box2"":""5"",""box3"":""50"",""box4"":""50""}","",6,"round3_lift",5,6,3,5,5,50,50,1,1,20,NA,NA,NA,NA,NA,NA,NA,NA,NA,NA,NA,NA,NA,NA,NA,NA,NA,NA,NA,NA,5,5,50,50,1,1,20,NA,NA,"",NA,NA,NA,NA,NA,NA,NA,NA,NA,2025-11-21 01:35:32
"108938.59999999404","https://psyc-201.github.io/xiang2023/exp/index1.html?PROLIFIC_PID=REDACTED&STUDY_ID=691f8ca61c6b4dcbb0aeb5f4&SESSION_ID=691fbdd6979be4775b0b1689","survey-text",43,988428,"0.0-361.0","c43FLjbrguhv0PUPWa9UlFE2AIytyBuj+yaBnm5Pe4qajggJdZmgbeVw73q6F12yIZVIttkvXHJzMh2VZ/zokAjHdU5G8ekzNk7ZJleBf4IRRXj1bqJMbVxaTQhd6uSgV2ay25+DT1zznlkD9AmU0/z5x8IDAetja8yOgt2WnhaDqfynnwmExpCUGHPdsNGBGLj8qbWaKYe11vP4a7pHthBxe/u9HZ2BITQctzM1jnyL36iN+1qKOrKdrKYfQ9iTKr6IkJs1gXtwwDvFFKNK8fvkeYayoCKzCuaXiMM2/HYx+8r1yI7rf5yZCOS8RcqKtTFjO5/16KUgrBYQpGqPwA==","691f8ca61c6b4dcbb0aeb5f4","691fbdd6979be4775b0b1689","index1","<span style='color:red'>Fail,<span style='color:red'>Fail,<span style='color:green'>Lift,<span style='color:green'>Lift,<span style='color:red'>Fail,<span style='color:red'>Fail,<span style='color:red'>Fail,<span style='color:red'>Fail,<span style='color:red'>Fail,<span style='color:green'>Lift,<span style='color:green'>Lift,<span style='color:red'>Fail","<span style='color:red'>Fail,<span style='color:red'>Fail,<span style='color:green'>Lift,<span style='color:green'>Lift,<span style='color:green'>Lift,<span style='color:green'>Lift,<span style='color:red'>Fail,<span style='color:green'>Lift,<span style='color:green'>Lift,<span style='color:green'>Lift,<span style='color:green'>Lift,<span style='color:red'>Fail","<span style='color:red'>Fail,<span style='color:green'>Lift,<span style='color:green'>Lift,<span style='color:red'>Fail,<span style='color:green'>Lift,<span style='color:green'>Lift","0,0,1,1,0,0,0,0,0,1,1,0","0,0,1,1,1,1,0,1,1,1,1,0","0,1,1,0,1,1",10,20,20,"","","","","{""Q0"":""I rated how weak or strong I thought each contestant was. Then I rated the likelihood of each contestant lifting the box for round 2 and 3. I also rated how much effort I thought each contestant put in to lifting the box.""}","",NA,"",NA,NA,NA,NA,NA,NA,NA,NA,NA,NA,NA,NA,NA,NA,NA,NA,NA,NA,NA,NA,NA,NA,NA,NA,NA,NA,NA,NA,NA,NA,NA,NA,NA,NA,NA,NA,NA,NA,NA,"",NA,NA,NA,NA,NA,NA,NA,NA,NA,2025-11-21 01:35:32
"16880.20000001788","https://psyc-201.github.io/xiang2023/exp/index1.html?PROLIFIC_PID=REDACTED&STUDY_ID=691f8ca61c6b4dcbb0aeb5f4&SESSION_ID=691fbdd6979be4775b0b1689","survey-text",44,1005347,"0.0-362.0","c43FLjbrguhv0PUPWa9UlFE2AIytyBuj+yaBnm5Pe4qajggJdZmgbeVw73q6F12yIZVIttkvXHJzMh2VZ/zokAjHdU5G8ekzNk7ZJleBf4IRRXj1bqJMbVxaTQhd6uSgV2ay25+DT1zznlkD9AmU0/z5x8IDAetja8yOgt2WnhaDqfynnwmExpCUGHPdsNGBGLj8qbWaKYe11vP4a7pHthBxe/u9HZ2BITQctzM1jnyL36iN+1qKOrKdrKYfQ9iTKr6IkJs1gXtwwDvFFKNK8fvkeYayoCKzCuaXiMM2/HYx+8r1yI7rf5yZCOS8RcqKtTFjO5/16KUgrBYQpGqPwA==","691f8ca61c6b4dcbb0aeb5f4","691fbdd6979be4775b0b1689","index1","<span style='color:red'>Fail,<span style='color:red'>Fail,<span style='color:green'>Lift,<span style='color:green'>Lift,<span style='color:red'>Fail,<span style='color:red'>Fail,<span style='color:red'>Fail,<span style='color:red'>Fail,<span style='color:red'>Fail,<span style='color:green'>Lift,<span style='color:green'>Lift,<span style='color:red'>Fail","<span style='color:red'>Fail,<span style='color:red'>Fail,<span style='color:green'>Lift,<span style='color:green'>Lift,<span style='color:green'>Lift,<span style='color:green'>Lift,<span style='color:red'>Fail,<span style='color:green'>Lift,<span style='color:green'>Lift,<span style='color:green'>Lift,<span style='color:green'>Lift,<span style='color:red'>Fail","<span style='color:red'>Fail,<span style='color:green'>Lift,<span style='color:green'>Lift,<span style='color:red'>Fail,<span style='color:green'>Lift,<span style='color:green'>Lift","0,0,1,1,0,0,0,0,0,1,1,0","0,0,1,1,1,1,0,1,1,1,1,0","0,1,1,0,1,1",10,20,20,"","","","","{""Q0"":""This was a fun game!""}","",NA,"",NA,NA,NA,NA,NA,NA,NA,NA,NA,NA,NA,NA,NA,NA,NA,NA,NA,NA,NA,NA,NA,NA,NA,NA,NA,NA,NA,NA,NA,NA,NA,NA,NA,NA,NA,NA,NA,NA,NA,"[{""event"":""fullscreenenter"",""trial"":1,""time"":19353}]",4,3,NA,50,1,0.5,NA,NA,NA,2025-11-21 01:35:32
"6043.200000017881","https://psyc-201.github.io/xiang2023/exp/index1.html?PROLIFIC_PID=REDACTED&STUDY_ID=691f8ca61c6b4dcbb0aeb5f4&SESSION_ID=691fbdd6979be4775b0b1689","html-button-response",45,1011397,"0.0-363.0","c43FLjbrguhv0PUPWa9UlFE2AIytyBuj+yaBnm5Pe4qajggJdZmgbeVw73q6F12yIZVIttkvXHJzMh2VZ/zokAjHdU5G8ekzNk7ZJleBf4IRRXj1bqJMbVxaTQhd6uSgV2ay25+DT1zznlkD9AmU0/z5x8IDAetja8yOgt2WnhaDqfynnwmExpCUGHPdsNGBGLj8qbWaKYe11vP4a7pHthBxe/u9HZ2BITQctzM1jnyL36iN+1qKOrKdrKYfQ9iTKr6IkJs1gXtwwDvFFKNK8fvkeYayoCKzCuaXiMM2/HYx+8r1yI7rf5yZCOS8RcqKtTFjO5/16KUgrBYQpGqPwA==","691f8ca61c6b4dcbb0aeb5f4","691fbdd6979be4775b0b1689","index1","<span style='color:red'>Fail,<span style='color:red'>Fail,<span style='color:green'>Lift,<span style='color:green'>Lift,<span style='color:red'>Fail,<span style='color:red'>Fail,<span style='color:red'>Fail,<span style='color:red'>Fail,<span style='color:red'>Fail,<span style='color:green'>Lift,<span style='color:green'>Lift,<span style='color:red'>Fail","<span style='color:red'>Fail,<span style='color:red'>Fail,<span style='color:green'>Lift,<span style='color:green'>Lift,<span style='color:green'>Lift,<span style='color:green'>Lift,<span style='color:red'>Fail,<span style='color:green'>Lift,<span style='color:green'>Lift,<span style='color:green'>Lift,<span style='color:green'>Lift,<span style='color:red'>Fail","<span style='color:red'>Fail,<span style='color:green'>Lift,<span style='color:green'>Lift,<span style='color:red'>Fail,<span style='color:green'>Lift,<span style='color:green'>Lift","0,0,1,1,0,0,0,0,0,1,1,0","0,0,1,1,1,1,0,1,1,1,1,0","0,1,1,0,1,1",10,20,20,"","","<p> We randomly picked <b>Contest 4, Round 3</b> to calculate your bonus. </p><p> The outcome of Contestant G and H on that round is <span style='color:green'>Lift</span>. </p><p> The probability you entered was 50. </p><p><b> You won a bonus of $0.50!</b></p><p> IMPORTANT: Please click 'Next' to complete the game. </p>","","","",NA,"",NA,NA,NA,NA,NA,NA,NA,NA,NA,NA,NA,NA,NA,NA,NA,NA,NA,NA,NA,NA,NA,NA,NA,NA,NA,NA,NA,NA,NA,NA,NA,NA,NA,NA,NA,NA,NA,NA,NA,"",NA,NA,NA,NA,NA,NA,0,2,1,2025-11-21 01:35:32
