"rt","url","trial_type","trial_index","time_elapsed","internal_node_id","encryptedProlificId","studyId","sessionId","expIndex","round1_outcomes","round2_outcomes","round3_outcomes","round1_o","round2_o","round3_o","round1_reward","round2_reward","round3_reward","success","view_history","stimulus","key_press","responses","question_order","button_pressed","j","Stage","stage","contest","round","strength_a","strength_b","effort_a","effort_b","outcome_a","outcome_b","reward","r1_strength_a","r1_strength_b","r1_effort_a","r1_effort_b","r1_outcome_a","r1_outcome_b","r1_reward","probability_a","probability_b","r2_prob_a","r2_prob_b","r2_strength_a","r2_strength_b","r2_effort_a","r2_effort_b","r2_outcome_a","r2_outcome_b","r2_reward","r3_prob_a","r3_prob_b","attention_check","count","r3_strength_a","r3_strength_b","r3_outcome_a","r3_outcome_b","r3_reward","r3_effort_a","r3_effort_b","screen","pick_contest","pick_round","pick_side","trial_probability","trial_outcome","bonus","attention_sum","attention","datapipe_meta.attributes.date_modified"
"28800.19999998808","https://psyc-201.github.io/xiang2023/exp/index1.html?PROLIFIC_PID=REDACTED&STUDY_ID=691f8ca61c6b4dcbb0aeb5f4&SESSION_ID=691fb6537b922f3d581e7c50","external-html",0,28877,"0.0-0.0","NlAVqOuzZg/b9CmGj0UXK9w2CkCM2vEr7f6X7Ptp6+koeGRtB3YexPUq6pzx9jC2KhGkOgQMIR8wR1CczaCIdHz8Gdt+5oHx+ybWHYGwPr+JRPJar7NQl0HlDWEE/TVpdt65fLB/SFcUohnyZq4tE4QFSdHRF7fFtwyts9qI6BeIioYZE6tp+7FGzKF72Z9SPXJW2XUzqGWkUEUvnDh/ugkrJvoCAPbUtZI8agWhZg4KWzf0fVqclIREtEJT93BJToh8kbsQNPL7dWoJ9rRDWPTzm9yFK+gMRX1EIQjrtK8VgaMhuOrvShyppYuS8JLBLv8xpxPfhfgdfytUVGHHLA==","691f8ca61c6b4dcbb0aeb5f4","691fb6537b922f3d581e7c50","index1","<span style='color:red'>Fail,<span style='color:red'>Fail,<span style='color:green'>Lift,<span style='color:green'>Lift,<span style='color:red'>Fail,<span style='color:red'>Fail,<span style='color:red'>Fail,<span style='color:red'>Fail,<span style='color:green'>Lift,<span style='color:red'>Fail,<span style='color:red'>Fail,<span style='color:green'>Lift","<span style='color:red'>Fail,<span style='color:red'>Fail,<span style='color:green'>Lift,<span style='color:green'>Lift,<span style='color:green'>Lift,<span style='color:green'>Lift,<span style='color:red'>Fail,<span style='color:green'>Lift,<span style='color:green'>Lift,<span style='color:green'>Lift,<span style='color:red'>Fail,<span style='color:green'>Lift","<span style='color:red'>Fail,<span style='color:green'>Lift,<span style='color:green'>Lift,<span style='color:red'>Fail,<span style='color:green'>Lift,<span style='color:green'>Lift","0,0,1,1,0,0,0,0,1,0,0,1","0,0,1,1,1,1,0,1,1,1,0,1","0,1,1,0,1,1",10,20,20,"","","","","","",NA,NA,"",NA,NA,NA,NA,NA,NA,NA,NA,NA,NA,NA,NA,NA,NA,NA,NA,NA,NA,NA,NA,NA,NA,NA,NA,NA,NA,NA,NA,NA,NA,NA,NA,NA,NA,NA,NA,NA,NA,NA,"",NA,NA,NA,NA,NA,NA,NA,NA,2025-11-21 01:03:54
"","https://psyc-201.github.io/xiang2023/exp/index1.html?PROLIFIC_PID=REDACTED&STUDY_ID=691f8ca61c6b4dcbb0aeb5f4&SESSION_ID=691fb6537b922f3d581e7c50","fullscreen",1,37490,"0.0-1.0","NlAVqOuzZg/b9CmGj0UXK9w2CkCM2vEr7f6X7Ptp6+koeGRtB3YexPUq6pzx9jC2KhGkOgQMIR8wR1CczaCIdHz8Gdt+5oHx+ybWHYGwPr+JRPJar7NQl0HlDWEE/TVpdt65fLB/SFcUohnyZq4tE4QFSdHRF7fFtwyts9qI6BeIioYZE6tp+7FGzKF72Z9SPXJW2XUzqGWkUEUvnDh/ugkrJvoCAPbUtZI8agWhZg4KWzf0fVqclIREtEJT93BJToh8kbsQNPL7dWoJ9rRDWPTzm9yFK+gMRX1EIQjrtK8VgaMhuOrvShyppYuS8JLBLv8xpxPfhfgdfytUVGHHLA==","691f8ca61c6b4dcbb0aeb5f4","691fb6537b922f3d581e7c50","index1","<span style='color:red'>Fail,<span style='color:red'>Fail,<span style='color:green'>Lift,<span style='color:green'>Lift,<span style='color:red'>Fail,<span style='color:red'>Fail,<span style='color:red'>Fail,<span style='color:red'>Fail,<span style='color:green'>Lift,<span style='color:red'>Fail,<span style='color:red'>Fail,<span style='color:green'>Lift","<span style='color:red'>Fail,<span style='color:red'>Fail,<span style='color:green'>Lift,<span style='color:green'>Lift,<span style='color:green'>Lift,<span style='color:green'>Lift,<span style='color:red'>Fail,<span style='color:green'>Lift,<span style='color:green'>Lift,<span style='color:green'>Lift,<span style='color:red'>Fail,<span style='color:green'>Lift","<span style='color:red'>Fail,<span style='color:green'>Lift,<span style='color:green'>Lift,<span style='color:red'>Fail,<span style='color:green'>Lift,<span style='color:green'>Lift","0,0,1,1,0,0,0,0,1,0,0,1","0,0,1,1,1,1,0,1,1,1,0,1","0,1,1,0,1,1",10,20,20,"true","","","","","",NA,NA,"",NA,NA,NA,NA,NA,NA,NA,NA,NA,NA,NA,NA,NA,NA,NA,NA,NA,NA,NA,NA,NA,NA,NA,NA,NA,NA,NA,NA,NA,NA,NA,NA,NA,NA,NA,NA,NA,NA,NA,"",NA,NA,NA,NA,NA,NA,NA,NA,2025-11-21 01:03:54
"136313.69999998808","https://psyc-201.github.io/xiang2023/exp/index1.html?PROLIFIC_PID=REDACTED&STUDY_ID=691f8ca61c6b4dcbb0aeb5f4&SESSION_ID=691fb6537b922f3d581e7c50","instructions",2,173805,"0.0-2.0","NlAVqOuzZg/b9CmGj0UXK9w2CkCM2vEr7f6X7Ptp6+koeGRtB3YexPUq6pzx9jC2KhGkOgQMIR8wR1CczaCIdHz8Gdt+5oHx+ybWHYGwPr+JRPJar7NQl0HlDWEE/TVpdt65fLB/SFcUohnyZq4tE4QFSdHRF7fFtwyts9qI6BeIioYZE6tp+7FGzKF72Z9SPXJW2XUzqGWkUEUvnDh/ugkrJvoCAPbUtZI8agWhZg4KWzf0fVqclIREtEJT93BJToh8kbsQNPL7dWoJ9rRDWPTzm9yFK+gMRX1EIQjrtK8VgaMhuOrvShyppYuS8JLBLv8xpxPfhfgdfytUVGHHLA==","691f8ca61c6b4dcbb0aeb5f4","691fb6537b922f3d581e7c50","index1","<span style='color:red'>Fail,<span style='color:red'>Fail,<span style='color:green'>Lift,<span style='color:green'>Lift,<span style='color:red'>Fail,<span style='color:red'>Fail,<span style='color:red'>Fail,<span style='color:red'>Fail,<span style='color:green'>Lift,<span style='color:red'>Fail,<span style='color:red'>Fail,<span style='color:green'>Lift","<span style='color:red'>Fail,<span style='color:red'>Fail,<span style='color:green'>Lift,<span style='color:green'>Lift,<span style='color:green'>Lift,<span style='color:green'>Lift,<span style='color:red'>Fail,<span style='color:green'>Lift,<span style='color:green'>Lift,<span style='color:green'>Lift,<span style='color:red'>Fail,<span style='color:green'>Lift","<span style='color:red'>Fail,<span style='color:green'>Lift,<span style='color:green'>Lift,<span style='color:red'>Fail,<span style='color:green'>Lift,<span style='color:green'>Lift","0,0,1,1,0,0,0,0,1,0,0,1","0,0,1,1,1,1,0,1,1,1,0,1","0,1,1,0,1,1",10,20,20,"","[{""page_index"":0,""viewing_time"":19790.69999998808},{""page_index"":1,""viewing_time"":21633.40000000596},{""page_index"":2,""viewing_time"":10587.199999988079},{""page_index"":3,""viewing_time"":33156},{""page_index"":4,""viewing_time"":8483},{""page_index"":5,""viewing_time"":28432},{""page_index"":6,""viewing_time"":14230.90000000596}]","","","","",NA,NA,"",NA,NA,NA,NA,NA,NA,NA,NA,NA,NA,NA,NA,NA,NA,NA,NA,NA,NA,NA,NA,NA,NA,NA,NA,NA,NA,NA,NA,NA,NA,NA,NA,NA,NA,NA,NA,NA,NA,NA,"",NA,NA,NA,NA,NA,NA,NA,NA,2025-11-21 01:03:54
"null","https://psyc-201.github.io/xiang2023/exp/index1.html?PROLIFIC_PID=REDACTED&STUDY_ID=691f8ca61c6b4dcbb0aeb5f4&SESSION_ID=691fb6537b922f3d581e7c50","html-keyboard-response",3,174822,"0.0-3.0","NlAVqOuzZg/b9CmGj0UXK9w2CkCM2vEr7f6X7Ptp6+koeGRtB3YexPUq6pzx9jC2KhGkOgQMIR8wR1CczaCIdHz8Gdt+5oHx+ybWHYGwPr+JRPJar7NQl0HlDWEE/TVpdt65fLB/SFcUohnyZq4tE4QFSdHRF7fFtwyts9qI6BeIioYZE6tp+7FGzKF72Z9SPXJW2XUzqGWkUEUvnDh/ugkrJvoCAPbUtZI8agWhZg4KWzf0fVqclIREtEJT93BJToh8kbsQNPL7dWoJ9rRDWPTzm9yFK+gMRX1EIQjrtK8VgaMhuOrvShyppYuS8JLBLv8xpxPfhfgdfytUVGHHLA==","691f8ca61c6b4dcbb0aeb5f4","691fb6537b922f3d581e7c50","index1","<span style='color:red'>Fail,<span style='color:red'>Fail,<span style='color:green'>Lift,<span style='color:green'>Lift,<span style='color:red'>Fail,<span style='color:red'>Fail,<span style='color:red'>Fail,<span style='color:red'>Fail,<span style='color:green'>Lift,<span style='color:red'>Fail,<span style='color:red'>Fail,<span style='color:green'>Lift","<span style='color:red'>Fail,<span style='color:red'>Fail,<span style='color:green'>Lift,<span style='color:green'>Lift,<span style='color:green'>Lift,<span style='color:green'>Lift,<span style='color:red'>Fail,<span style='color:green'>Lift,<span style='color:green'>Lift,<span style='color:green'>Lift,<span style='color:red'>Fail,<span style='color:green'>Lift","<span style='color:red'>Fail,<span style='color:green'>Lift,<span style='color:green'>Lift,<span style='color:red'>Fail,<span style='color:green'>Lift,<span style='color:green'>Lift","0,0,1,1,0,0,0,0,1,0,0,1","0,0,1,1,1,1,0,1,1,1,0,1","0,1,1,0,1,1",10,20,20,"",""," ","null","","",NA,NA,"",NA,NA,NA,NA,NA,NA,NA,NA,NA,NA,NA,NA,NA,NA,NA,NA,NA,NA,NA,NA,NA,NA,NA,NA,NA,NA,NA,NA,NA,NA,NA,NA,NA,NA,NA,NA,NA,NA,NA,"",NA,NA,NA,NA,NA,NA,NA,NA,2025-11-21 01:03:54
"32707.69999998808","https://psyc-201.github.io/xiang2023/exp/index1.html?PROLIFIC_PID=REDACTED&STUDY_ID=691f8ca61c6b4dcbb0aeb5f4&SESSION_ID=691fb6537b922f3d581e7c50","survey-multi-choice",4,207534,"0.0-4.0","NlAVqOuzZg/b9CmGj0UXK9w2CkCM2vEr7f6X7Ptp6+koeGRtB3YexPUq6pzx9jC2KhGkOgQMIR8wR1CczaCIdHz8Gdt+5oHx+ybWHYGwPr+JRPJar7NQl0HlDWEE/TVpdt65fLB/SFcUohnyZq4tE4QFSdHRF7fFtwyts9qI6BeIioYZE6tp+7FGzKF72Z9SPXJW2XUzqGWkUEUvnDh/ugkrJvoCAPbUtZI8agWhZg4KWzf0fVqclIREtEJT93BJToh8kbsQNPL7dWoJ9rRDWPTzm9yFK+gMRX1EIQjrtK8VgaMhuOrvShyppYuS8JLBLv8xpxPfhfgdfytUVGHHLA==","691f8ca61c6b4dcbb0aeb5f4","691fb6537b922f3d581e7c50","index1","<span style='color:red'>Fail,<span style='color:red'>Fail,<span style='color:green'>Lift,<span style='color:green'>Lift,<span style='color:red'>Fail,<span style='color:red'>Fail,<span style='color:red'>Fail,<span style='color:red'>Fail,<span style='color:green'>Lift,<span style='color:red'>Fail,<span style='color:red'>Fail,<span style='color:green'>Lift","<span style='color:red'>Fail,<span style='color:red'>Fail,<span style='color:green'>Lift,<span style='color:green'>Lift,<span style='color:green'>Lift,<span style='color:green'>Lift,<span style='color:red'>Fail,<span style='color:green'>Lift,<span style='color:green'>Lift,<span style='color:green'>Lift,<span style='color:red'>Fail,<span style='color:green'>Lift","<span style='color:red'>Fail,<span style='color:green'>Lift,<span style='color:green'>Lift,<span style='color:red'>Fail,<span style='color:green'>Lift,<span style='color:green'>Lift","0,0,1,1,0,0,0,0,1,0,0,1","0,0,1,1,1,1,0,1,1,1,0,1","0,1,1,0,1,1",10,20,20,"","","","","{""Q0"":""It consists of multiple contests, each contest with three rounds."",""Q1"":""When a new round starts."",""Q2"":""The box weight always stays the same (equivalent to strength of 5)."",""Q3"":""Each will get $20."",""Q4"":""How close my guesses are to the actual outcome.""}","[0,1,2,3,4]",NA,NA,"",NA,NA,NA,NA,NA,NA,NA,NA,NA,NA,NA,NA,NA,NA,NA,NA,NA,NA,NA,NA,NA,NA,NA,NA,NA,NA,NA,NA,NA,NA,NA,NA,NA,NA,NA,NA,NA,NA,NA,"",NA,NA,NA,NA,NA,NA,NA,NA,2025-11-21 01:03:54
"3099.899999976158","https://psyc-201.github.io/xiang2023/exp/index1.html?PROLIFIC_PID=REDACTED&STUDY_ID=691f8ca61c6b4dcbb0aeb5f4&SESSION_ID=691fb6537b922f3d581e7c50","html-button-response",5,210637,"0.0-5.0-1.0","NlAVqOuzZg/b9CmGj0UXK9w2CkCM2vEr7f6X7Ptp6+koeGRtB3YexPUq6pzx9jC2KhGkOgQMIR8wR1CczaCIdHz8Gdt+5oHx+ybWHYGwPr+JRPJar7NQl0HlDWEE/TVpdt65fLB/SFcUohnyZq4tE4QFSdHRF7fFtwyts9qI6BeIioYZE6tp+7FGzKF72Z9SPXJW2XUzqGWkUEUvnDh/ugkrJvoCAPbUtZI8agWhZg4KWzf0fVqclIREtEJT93BJToh8kbsQNPL7dWoJ9rRDWPTzm9yFK+gMRX1EIQjrtK8VgaMhuOrvShyppYuS8JLBLv8xpxPfhfgdfytUVGHHLA==","691f8ca61c6b4dcbb0aeb5f4","691fb6537b922f3d581e7c50","index1","<span style='color:red'>Fail,<span style='color:red'>Fail,<span style='color:green'>Lift,<span style='color:green'>Lift,<span style='color:red'>Fail,<span style='color:red'>Fail,<span style='color:red'>Fail,<span style='color:red'>Fail,<span style='color:green'>Lift,<span style='color:red'>Fail,<span style='color:red'>Fail,<span style='color:green'>Lift","<span style='color:red'>Fail,<span style='color:red'>Fail,<span style='color:green'>Lift,<span style='color:green'>Lift,<span style='color:green'>Lift,<span style='color:green'>Lift,<span style='color:red'>Fail,<span style='color:green'>Lift,<span style='color:green'>Lift,<span style='color:green'>Lift,<span style='color:red'>Fail,<span style='color:green'>Lift","<span style='color:red'>Fail,<span style='color:green'>Lift,<span style='color:green'>Lift,<span style='color:red'>Fail,<span style='color:green'>Lift,<span style='color:green'>Lift","0,0,1,1,0,0,0,0,1,0,0,1","0,0,1,1,1,1,0,1,1,1,0,1","0,1,1,0,1,1",10,20,20,"","","<p> Oops! You did not pass the comprehension check. <b>Please note that you have only 1 attempt(s) left.</b> </p>","","","",1,NA,"",NA,NA,NA,NA,NA,NA,NA,NA,NA,NA,NA,NA,NA,NA,NA,NA,NA,NA,NA,NA,NA,NA,NA,NA,NA,NA,NA,NA,NA,NA,NA,NA,NA,NA,NA,NA,NA,NA,NA,"",NA,NA,NA,NA,NA,NA,NA,NA,2025-11-21 01:03:54
"69028.40000000596","https://psyc-201.github.io/xiang2023/exp/index1.html?PROLIFIC_PID=REDACTED&STUDY_ID=691f8ca61c6b4dcbb0aeb5f4&SESSION_ID=691fb6537b922f3d581e7c50","instructions",6,279666,"0.0-6.0-0.0","NlAVqOuzZg/b9CmGj0UXK9w2CkCM2vEr7f6X7Ptp6+koeGRtB3YexPUq6pzx9jC2KhGkOgQMIR8wR1CczaCIdHz8Gdt+5oHx+ybWHYGwPr+JRPJar7NQl0HlDWEE/TVpdt65fLB/SFcUohnyZq4tE4QFSdHRF7fFtwyts9qI6BeIioYZE6tp+7FGzKF72Z9SPXJW2XUzqGWkUEUvnDh/ugkrJvoCAPbUtZI8agWhZg4KWzf0fVqclIREtEJT93BJToh8kbsQNPL7dWoJ9rRDWPTzm9yFK+gMRX1EIQjrtK8VgaMhuOrvShyppYuS8JLBLv8xpxPfhfgdfytUVGHHLA==","691f8ca61c6b4dcbb0aeb5f4","691fb6537b922f3d581e7c50","index1","<span style='color:red'>Fail,<span style='color:red'>Fail,<span style='color:green'>Lift,<span style='color:green'>Lift,<span style='color:red'>Fail,<span style='color:red'>Fail,<span style='color:red'>Fail,<span style='color:red'>Fail,<span style='color:green'>Lift,<span style='color:red'>Fail,<span style='color:red'>Fail,<span style='color:green'>Lift","<span style='color:red'>Fail,<span style='color:red'>Fail,<span style='color:green'>Lift,<span style='color:green'>Lift,<span style='color:green'>Lift,<span style='color:green'>Lift,<span style='color:red'>Fail,<span style='color:green'>Lift,<span style='color:green'>Lift,<span style='color:green'>Lift,<span style='color:red'>Fail,<span style='color:green'>Lift","<span style='color:red'>Fail,<span style='color:green'>Lift,<span style='color:green'>Lift,<span style='color:red'>Fail,<span style='color:green'>Lift,<span style='color:green'>Lift","0,0,1,1,0,0,0,0,1,0,0,1","0,0,1,1,1,1,0,1,1,1,0,1","0,1,1,0,1,1",10,20,20,"","[{""page_index"":0,""viewing_time"":12676.90000000596},{""page_index"":1,""viewing_time"":6615.5},{""page_index"":2,""viewing_time"":14888.699999988079},{""page_index"":3,""viewing_time"":8760.40000000596},{""page_index"":4,""viewing_time"":8530},{""page_index"":5,""viewing_time"":15962.700000017881},{""page_index"":6,""viewing_time"":1593.8999999761581}]","","","","",NA,NA,"",NA,NA,NA,NA,NA,NA,NA,NA,NA,NA,NA,NA,NA,NA,NA,NA,NA,NA,NA,NA,NA,NA,NA,NA,NA,NA,NA,NA,NA,NA,NA,NA,NA,NA,NA,NA,NA,NA,NA,"",NA,NA,NA,NA,NA,NA,NA,NA,2025-11-21 01:03:54
"null","https://psyc-201.github.io/xiang2023/exp/index1.html?PROLIFIC_PID=REDACTED&STUDY_ID=691f8ca61c6b4dcbb0aeb5f4&SESSION_ID=691fb6537b922f3d581e7c50","html-keyboard-response",7,280668,"0.0-6.0-1.0","NlAVqOuzZg/b9CmGj0UXK9w2CkCM2vEr7f6X7Ptp6+koeGRtB3YexPUq6pzx9jC2KhGkOgQMIR8wR1CczaCIdHz8Gdt+5oHx+ybWHYGwPr+JRPJar7NQl0HlDWEE/TVpdt65fLB/SFcUohnyZq4tE4QFSdHRF7fFtwyts9qI6BeIioYZE6tp+7FGzKF72Z9SPXJW2XUzqGWkUEUvnDh/ugkrJvoCAPbUtZI8agWhZg4KWzf0fVqclIREtEJT93BJToh8kbsQNPL7dWoJ9rRDWPTzm9yFK+gMRX1EIQjrtK8VgaMhuOrvShyppYuS8JLBLv8xpxPfhfgdfytUVGHHLA==","691f8ca61c6b4dcbb0aeb5f4","691fb6537b922f3d581e7c50","index1","<span style='color:red'>Fail,<span style='color:red'>Fail,<span style='color:green'>Lift,<span style='color:green'>Lift,<span style='color:red'>Fail,<span style='color:red'>Fail,<span style='color:red'>Fail,<span style='color:red'>Fail,<span style='color:green'>Lift,<span style='color:red'>Fail,<span style='color:red'>Fail,<span style='color:green'>Lift","<span style='color:red'>Fail,<span style='color:red'>Fail,<span style='color:green'>Lift,<span style='color:green'>Lift,<span style='color:green'>Lift,<span style='color:green'>Lift,<span style='color:red'>Fail,<span style='color:green'>Lift,<span style='color:green'>Lift,<span style='color:green'>Lift,<span style='color:red'>Fail,<span style='color:green'>Lift","<span style='color:red'>Fail,<span style='color:green'>Lift,<span style='color:green'>Lift,<span style='color:red'>Fail,<span style='color:green'>Lift,<span style='color:green'>Lift","0,0,1,1,0,0,0,0,1,0,0,1","0,0,1,1,1,1,0,1,1,1,0,1","0,1,1,0,1,1",10,20,20,"",""," ","null","","",NA,NA,"",NA,NA,NA,NA,NA,NA,NA,NA,NA,NA,NA,NA,NA,NA,NA,NA,NA,NA,NA,NA,NA,NA,NA,NA,NA,NA,NA,NA,NA,NA,NA,NA,NA,NA,NA,NA,NA,NA,NA,"",NA,NA,NA,NA,NA,NA,NA,NA,2025-11-21 01:03:54
"33129.59999999404","https://psyc-201.github.io/xiang2023/exp/index1.html?PROLIFIC_PID=REDACTED&STUDY_ID=691f8ca61c6b4dcbb0aeb5f4&SESSION_ID=691fb6537b922f3d581e7c50","survey-multi-choice",8,313800,"0.0-7.0-0.0","NlAVqOuzZg/b9CmGj0UXK9w2CkCM2vEr7f6X7Ptp6+koeGRtB3YexPUq6pzx9jC2KhGkOgQMIR8wR1CczaCIdHz8Gdt+5oHx+ybWHYGwPr+JRPJar7NQl0HlDWEE/TVpdt65fLB/SFcUohnyZq4tE4QFSdHRF7fFtwyts9qI6BeIioYZE6tp+7FGzKF72Z9SPXJW2XUzqGWkUEUvnDh/ugkrJvoCAPbUtZI8agWhZg4KWzf0fVqclIREtEJT93BJToh8kbsQNPL7dWoJ9rRDWPTzm9yFK+gMRX1EIQjrtK8VgaMhuOrvShyppYuS8JLBLv8xpxPfhfgdfytUVGHHLA==","691f8ca61c6b4dcbb0aeb5f4","691fb6537b922f3d581e7c50","index1","<span style='color:red'>Fail,<span style='color:red'>Fail,<span style='color:green'>Lift,<span style='color:green'>Lift,<span style='color:red'>Fail,<span style='color:red'>Fail,<span style='color:red'>Fail,<span style='color:red'>Fail,<span style='color:green'>Lift,<span style='color:red'>Fail,<span style='color:red'>Fail,<span style='color:green'>Lift","<span style='color:red'>Fail,<span style='color:red'>Fail,<span style='color:green'>Lift,<span style='color:green'>Lift,<span style='color:green'>Lift,<span style='color:green'>Lift,<span style='color:red'>Fail,<span style='color:green'>Lift,<span style='color:green'>Lift,<span style='color:green'>Lift,<span style='color:red'>Fail,<span style='color:green'>Lift","<span style='color:red'>Fail,<span style='color:green'>Lift,<span style='color:green'>Lift,<span style='color:red'>Fail,<span style='color:green'>Lift,<span style='color:green'>Lift","0,0,1,1,0,0,0,0,1,0,0,1","0,0,1,1,1,1,0,1,1,1,0,1","0,1,1,0,1,1",10,20,20,"","","","","{""Q0"":""It consists of multiple contests, each contest with three rounds."",""Q1"":""When a new contest begins."",""Q2"":""The box weight always stays the same (equivalent to strength of 5)."",""Q3"":""Each will get $20."",""Q4"":""How close my guesses are to the actual outcome.""}","[0,1,2,3,4]",NA,NA,"",NA,NA,NA,NA,NA,NA,NA,NA,NA,NA,NA,NA,NA,NA,NA,NA,NA,NA,NA,NA,NA,NA,NA,NA,NA,NA,NA,NA,NA,NA,NA,NA,NA,NA,NA,NA,NA,NA,NA,"",NA,NA,NA,NA,NA,NA,NA,NA,2025-11-21 01:03:54
"139359.69999998808","https://psyc-201.github.io/xiang2023/exp/index1.html?PROLIFIC_PID=REDACTED&STUDY_ID=691f8ca61c6b4dcbb0aeb5f4&SESSION_ID=691fb6537b922f3d581e7c50","instructions",9,453165,"0.0-305.0","NlAVqOuzZg/b9CmGj0UXK9w2CkCM2vEr7f6X7Ptp6+koeGRtB3YexPUq6pzx9jC2KhGkOgQMIR8wR1CczaCIdHz8Gdt+5oHx+ybWHYGwPr+JRPJar7NQl0HlDWEE/TVpdt65fLB/SFcUohnyZq4tE4QFSdHRF7fFtwyts9qI6BeIioYZE6tp+7FGzKF72Z9SPXJW2XUzqGWkUEUvnDh/ugkrJvoCAPbUtZI8agWhZg4KWzf0fVqclIREtEJT93BJToh8kbsQNPL7dWoJ9rRDWPTzm9yFK+gMRX1EIQjrtK8VgaMhuOrvShyppYuS8JLBLv8xpxPfhfgdfytUVGHHLA==","691f8ca61c6b4dcbb0aeb5f4","691fb6537b922f3d581e7c50","index1","<span style='color:red'>Fail,<span style='color:red'>Fail,<span style='color:green'>Lift,<span style='color:green'>Lift,<span style='color:red'>Fail,<span style='color:red'>Fail,<span style='color:red'>Fail,<span style='color:red'>Fail,<span style='color:green'>Lift,<span style='color:red'>Fail,<span style='color:red'>Fail,<span style='color:green'>Lift","<span style='color:red'>Fail,<span style='color:red'>Fail,<span style='color:green'>Lift,<span style='color:green'>Lift,<span style='color:green'>Lift,<span style='color:green'>Lift,<span style='color:red'>Fail,<span style='color:green'>Lift,<span style='color:green'>Lift,<span style='color:green'>Lift,<span style='color:red'>Fail,<span style='color:green'>Lift","<span style='color:red'>Fail,<span style='color:green'>Lift,<span style='color:green'>Lift,<span style='color:red'>Fail,<span style='color:green'>Lift,<span style='color:green'>Lift","0,0,1,1,0,0,0,0,1,0,0,1","0,0,1,1,1,1,0,1,1,1,0,1","0,1,1,0,1,1",10,20,20,"","[{""page_index"":0,""viewing_time"":11310.09999999404},{""page_index"":1,""viewing_time"":128049.40000000596}]","","","","",NA,NA,"",NA,NA,NA,NA,NA,NA,NA,NA,NA,NA,NA,NA,NA,NA,NA,NA,NA,NA,NA,NA,NA,NA,NA,NA,NA,NA,NA,NA,NA,NA,NA,NA,NA,NA,NA,NA,NA,NA,NA,"",NA,NA,NA,NA,NA,NA,NA,NA,2025-11-21 01:03:54
"null","https://psyc-201.github.io/xiang2023/exp/index1.html?PROLIFIC_PID=REDACTED&STUDY_ID=691f8ca61c6b4dcbb0aeb5f4&SESSION_ID=691fb6537b922f3d581e7c50","html-keyboard-response",10,454166,"0.0-306.0","NlAVqOuzZg/b9CmGj0UXK9w2CkCM2vEr7f6X7Ptp6+koeGRtB3YexPUq6pzx9jC2KhGkOgQMIR8wR1CczaCIdHz8Gdt+5oHx+ybWHYGwPr+JRPJar7NQl0HlDWEE/TVpdt65fLB/SFcUohnyZq4tE4QFSdHRF7fFtwyts9qI6BeIioYZE6tp+7FGzKF72Z9SPXJW2XUzqGWkUEUvnDh/ugkrJvoCAPbUtZI8agWhZg4KWzf0fVqclIREtEJT93BJToh8kbsQNPL7dWoJ9rRDWPTzm9yFK+gMRX1EIQjrtK8VgaMhuOrvShyppYuS8JLBLv8xpxPfhfgdfytUVGHHLA==","691f8ca61c6b4dcbb0aeb5f4","691fb6537b922f3d581e7c50","index1","<span style='color:red'>Fail,<span style='color:red'>Fail,<span style='color:green'>Lift,<span style='color:green'>Lift,<span style='color:red'>Fail,<span style='color:red'>Fail,<span style='color:red'>Fail,<span style='color:red'>Fail,<span style='color:green'>Lift,<span style='color:red'>Fail,<span style='color:red'>Fail,<span style='color:green'>Lift","<span style='color:red'>Fail,<span style='color:red'>Fail,<span style='color:green'>Lift,<span style='color:green'>Lift,<span style='color:green'>Lift,<span style='color:green'>Lift,<span style='color:red'>Fail,<span style='color:green'>Lift,<span style='color:green'>Lift,<span style='color:green'>Lift,<span style='color:red'>Fail,<span style='color:green'>Lift","<span style='color:red'>Fail,<span style='color:green'>Lift,<span style='color:green'>Lift,<span style='color:red'>Fail,<span style='color:green'>Lift,<span style='color:green'>Lift","0,0,1,1,0,0,0,0,1,0,0,1","0,0,1,1,1,1,0,1,1,1,0,1","0,1,1,0,1,1",10,20,20,"",""," ","null","","",NA,1,"",NA,NA,NA,NA,NA,NA,NA,NA,NA,NA,NA,NA,NA,NA,NA,NA,NA,NA,NA,NA,NA,NA,NA,NA,NA,NA,NA,NA,NA,NA,NA,NA,NA,NA,NA,NA,NA,NA,NA,"",NA,NA,NA,NA,NA,NA,NA,NA,2025-11-21 01:03:54
"null","https://psyc-201.github.io/xiang2023/exp/index1.html?PROLIFIC_PID=REDACTED&STUDY_ID=691f8ca61c6b4dcbb0aeb5f4&SESSION_ID=691fb6537b922f3d581e7c50","html-keyboard-response",11,457174,"0.0-307.0","NlAVqOuzZg/b9CmGj0UXK9w2CkCM2vEr7f6X7Ptp6+koeGRtB3YexPUq6pzx9jC2KhGkOgQMIR8wR1CczaCIdHz8Gdt+5oHx+ybWHYGwPr+JRPJar7NQl0HlDWEE/TVpdt65fLB/SFcUohnyZq4tE4QFSdHRF7fFtwyts9qI6BeIioYZE6tp+7FGzKF72Z9SPXJW2XUzqGWkUEUvnDh/ugkrJvoCAPbUtZI8agWhZg4KWzf0fVqclIREtEJT93BJToh8kbsQNPL7dWoJ9rRDWPTzm9yFK+gMRX1EIQjrtK8VgaMhuOrvShyppYuS8JLBLv8xpxPfhfgdfytUVGHHLA==","691f8ca61c6b4dcbb0aeb5f4","691fb6537b922f3d581e7c50","index1","<span style='color:red'>Fail,<span style='color:red'>Fail,<span style='color:green'>Lift,<span style='color:green'>Lift,<span style='color:red'>Fail,<span style='color:red'>Fail,<span style='color:red'>Fail,<span style='color:red'>Fail,<span style='color:green'>Lift,<span style='color:red'>Fail,<span style='color:red'>Fail,<span style='color:green'>Lift","<span style='color:red'>Fail,<span style='color:red'>Fail,<span style='color:green'>Lift,<span style='color:green'>Lift,<span style='color:green'>Lift,<span style='color:green'>Lift,<span style='color:red'>Fail,<span style='color:green'>Lift,<span style='color:green'>Lift,<span style='color:green'>Lift,<span style='color:red'>Fail,<span style='color:green'>Lift","<span style='color:red'>Fail,<span style='color:green'>Lift,<span style='color:green'>Lift,<span style='color:red'>Fail,<span style='color:green'>Lift,<span style='color:green'>Lift","0,0,1,1,0,0,0,0,1,0,0,1","0,0,1,1,1,1,0,1,1,1,0,1","0,1,1,0,1,1",10,20,20,"","","<p style='font-size:30px'><b> New Contest! </b></p>","null","","",NA,1,"",NA,NA,NA,NA,NA,NA,NA,NA,NA,NA,NA,NA,NA,NA,NA,NA,NA,NA,NA,NA,NA,NA,NA,NA,NA,NA,NA,NA,NA,NA,NA,NA,NA,NA,NA,NA,NA,NA,NA,"",NA,NA,NA,NA,NA,NA,NA,NA,2025-11-21 01:03:54
"18690.79999998212","https://psyc-201.github.io/xiang2023/exp/index1.html?PROLIFIC_PID=REDACTED&STUDY_ID=691f8ca61c6b4dcbb0aeb5f4&SESSION_ID=691fb6537b922f3d581e7c50","survey-html-form",12,475869,"0.0-308.0","NlAVqOuzZg/b9CmGj0UXK9w2CkCM2vEr7f6X7Ptp6+koeGRtB3YexPUq6pzx9jC2KhGkOgQMIR8wR1CczaCIdHz8Gdt+5oHx+ybWHYGwPr+JRPJar7NQl0HlDWEE/TVpdt65fLB/SFcUohnyZq4tE4QFSdHRF7fFtwyts9qI6BeIioYZE6tp+7FGzKF72Z9SPXJW2XUzqGWkUEUvnDh/ugkrJvoCAPbUtZI8agWhZg4KWzf0fVqclIREtEJT93BJToh8kbsQNPL7dWoJ9rRDWPTzm9yFK+gMRX1EIQjrtK8VgaMhuOrvShyppYuS8JLBLv8xpxPfhfgdfytUVGHHLA==","691f8ca61c6b4dcbb0aeb5f4","691fb6537b922f3d581e7c50","index1","<span style='color:red'>Fail,<span style='color:red'>Fail,<span style='color:green'>Lift,<span style='color:green'>Lift,<span style='color:red'>Fail,<span style='color:red'>Fail,<span style='color:red'>Fail,<span style='color:red'>Fail,<span style='color:green'>Lift,<span style='color:red'>Fail,<span style='color:red'>Fail,<span style='color:green'>Lift","<span style='color:red'>Fail,<span style='color:red'>Fail,<span style='color:green'>Lift,<span style='color:green'>Lift,<span style='color:green'>Lift,<span style='color:green'>Lift,<span style='color:red'>Fail,<span style='color:green'>Lift,<span style='color:green'>Lift,<span style='color:green'>Lift,<span style='color:red'>Fail,<span style='color:green'>Lift","<span style='color:red'>Fail,<span style='color:green'>Lift,<span style='color:green'>Lift,<span style='color:red'>Fail,<span style='color:green'>Lift,<span style='color:green'>Lift","0,0,1,1,0,0,0,0,1,0,0,1","0,0,1,1,1,1,0,1,1,1,0,1","0,1,1,0,1,1",10,20,20,"","","","","{""box1"":""5"",""box2"":""5""}","",NA,1,"round1_outcome",1,1,1,5,5,NA,NA,0,0,10,5,5,NA,NA,0,0,10,NA,NA,NA,NA,NA,NA,NA,NA,NA,NA,NA,NA,NA,NA,NA,NA,NA,NA,NA,NA,NA,NA,"",NA,NA,NA,NA,NA,NA,NA,NA,2025-11-21 01:03:54
"16769.29999998212","https://psyc-201.github.io/xiang2023/exp/index1.html?PROLIFIC_PID=REDACTED&STUDY_ID=691f8ca61c6b4dcbb0aeb5f4&SESSION_ID=691fb6537b922f3d581e7c50","survey-html-form",13,492642,"0.0-309.0","NlAVqOuzZg/b9CmGj0UXK9w2CkCM2vEr7f6X7Ptp6+koeGRtB3YexPUq6pzx9jC2KhGkOgQMIR8wR1CczaCIdHz8Gdt+5oHx+ybWHYGwPr+JRPJar7NQl0HlDWEE/TVpdt65fLB/SFcUohnyZq4tE4QFSdHRF7fFtwyts9qI6BeIioYZE6tp+7FGzKF72Z9SPXJW2XUzqGWkUEUvnDh/ugkrJvoCAPbUtZI8agWhZg4KWzf0fVqclIREtEJT93BJToh8kbsQNPL7dWoJ9rRDWPTzm9yFK+gMRX1EIQjrtK8VgaMhuOrvShyppYuS8JLBLv8xpxPfhfgdfytUVGHHLA==","691f8ca61c6b4dcbb0aeb5f4","691fb6537b922f3d581e7c50","index1","<span style='color:red'>Fail,<span style='color:red'>Fail,<span style='color:green'>Lift,<span style='color:green'>Lift,<span style='color:red'>Fail,<span style='color:red'>Fail,<span style='color:red'>Fail,<span style='color:red'>Fail,<span style='color:green'>Lift,<span style='color:red'>Fail,<span style='color:red'>Fail,<span style='color:green'>Lift","<span style='color:red'>Fail,<span style='color:red'>Fail,<span style='color:green'>Lift,<span style='color:green'>Lift,<span style='color:green'>Lift,<span style='color:green'>Lift,<span style='color:red'>Fail,<span style='color:green'>Lift,<span style='color:green'>Lift,<span style='color:green'>Lift,<span style='color:red'>Fail,<span style='color:green'>Lift","<span style='color:red'>Fail,<span style='color:green'>Lift,<span style='color:green'>Lift,<span style='color:red'>Fail,<span style='color:green'>Lift,<span style='color:green'>Lift","0,0,1,1,0,0,0,0,1,0,0,1","0,0,1,1,1,1,0,1,1,1,0,1","0,1,1,0,1,1",10,20,20,"","","","","{""box1"":""80"",""box2"":""80""}","",NA,1,"round2_ready",2,1,2,NA,NA,NA,NA,NA,NA,NA,NA,NA,NA,NA,NA,NA,NA,80,80,80,80,NA,NA,NA,NA,NA,NA,NA,NA,NA,NA,NA,NA,NA,NA,NA,NA,NA,NA,"",NA,NA,NA,NA,NA,NA,NA,NA,2025-11-21 01:03:54
"39011.70000001788","https://psyc-201.github.io/xiang2023/exp/index1.html?PROLIFIC_PID=REDACTED&STUDY_ID=691f8ca61c6b4dcbb0aeb5f4&SESSION_ID=691fb6537b922f3d581e7c50","survey-html-form",14,531657,"0.0-310.0","NlAVqOuzZg/b9CmGj0UXK9w2CkCM2vEr7f6X7Ptp6+koeGRtB3YexPUq6pzx9jC2KhGkOgQMIR8wR1CczaCIdHz8Gdt+5oHx+ybWHYGwPr+JRPJar7NQl0HlDWEE/TVpdt65fLB/SFcUohnyZq4tE4QFSdHRF7fFtwyts9qI6BeIioYZE6tp+7FGzKF72Z9SPXJW2XUzqGWkUEUvnDh/ugkrJvoCAPbUtZI8agWhZg4KWzf0fVqclIREtEJT93BJToh8kbsQNPL7dWoJ9rRDWPTzm9yFK+gMRX1EIQjrtK8VgaMhuOrvShyppYuS8JLBLv8xpxPfhfgdfytUVGHHLA==","691f8ca61c6b4dcbb0aeb5f4","691fb6537b922f3d581e7c50","index1","<span style='color:red'>Fail,<span style='color:red'>Fail,<span style='color:green'>Lift,<span style='color:green'>Lift,<span style='color:red'>Fail,<span style='color:red'>Fail,<span style='color:red'>Fail,<span style='color:red'>Fail,<span style='color:green'>Lift,<span style='color:red'>Fail,<span style='color:red'>Fail,<span style='color:green'>Lift","<span style='color:red'>Fail,<span style='color:red'>Fail,<span style='color:green'>Lift,<span style='color:green'>Lift,<span style='color:green'>Lift,<span style='color:green'>Lift,<span style='color:red'>Fail,<span style='color:green'>Lift,<span style='color:green'>Lift,<span style='color:green'>Lift,<span style='color:red'>Fail,<span style='color:green'>Lift","<span style='color:red'>Fail,<span style='color:green'>Lift,<span style='color:green'>Lift,<span style='color:red'>Fail,<span style='color:green'>Lift,<span style='color:green'>Lift","0,0,1,1,0,0,0,0,1,0,0,1","0,0,1,1,1,1,0,1,1,1,0,1","0,1,1,0,1,1",10,20,20,"","","","","{""box1"":""3"",""box2"":""5"",""box4"":""82""}","",NA,1,"round2_outcome",3,1,2,3,5,NA,82,0,1,20,NA,NA,NA,NA,NA,NA,NA,NA,NA,NA,NA,3,5,NA,82,0,1,20,NA,NA,NA,NA,NA,NA,NA,NA,NA,NA,NA,"",NA,NA,NA,NA,NA,NA,NA,NA,2025-11-21 01:03:54
"8703.699999988079","https://psyc-201.github.io/xiang2023/exp/index1.html?PROLIFIC_PID=REDACTED&STUDY_ID=691f8ca61c6b4dcbb0aeb5f4&SESSION_ID=691fb6537b922f3d581e7c50","survey-html-form",15,540365,"0.0-311.0","NlAVqOuzZg/b9CmGj0UXK9w2CkCM2vEr7f6X7Ptp6+koeGRtB3YexPUq6pzx9jC2KhGkOgQMIR8wR1CczaCIdHz8Gdt+5oHx+ybWHYGwPr+JRPJar7NQl0HlDWEE/TVpdt65fLB/SFcUohnyZq4tE4QFSdHRF7fFtwyts9qI6BeIioYZE6tp+7FGzKF72Z9SPXJW2XUzqGWkUEUvnDh/ugkrJvoCAPbUtZI8agWhZg4KWzf0fVqclIREtEJT93BJToh8kbsQNPL7dWoJ9rRDWPTzm9yFK+gMRX1EIQjrtK8VgaMhuOrvShyppYuS8JLBLv8xpxPfhfgdfytUVGHHLA==","691f8ca61c6b4dcbb0aeb5f4","691fb6537b922f3d581e7c50","index1","<span style='color:red'>Fail,<span style='color:red'>Fail,<span style='color:green'>Lift,<span style='color:green'>Lift,<span style='color:red'>Fail,<span style='color:red'>Fail,<span style='color:red'>Fail,<span style='color:red'>Fail,<span style='color:green'>Lift,<span style='color:red'>Fail,<span style='color:red'>Fail,<span style='color:green'>Lift","<span style='color:red'>Fail,<span style='color:red'>Fail,<span style='color:green'>Lift,<span style='color:green'>Lift,<span style='color:green'>Lift,<span style='color:green'>Lift,<span style='color:red'>Fail,<span style='color:green'>Lift,<span style='color:green'>Lift,<span style='color:green'>Lift,<span style='color:red'>Fail,<span style='color:green'>Lift","<span style='color:red'>Fail,<span style='color:green'>Lift,<span style='color:green'>Lift,<span style='color:red'>Fail,<span style='color:green'>Lift,<span style='color:green'>Lift","0,0,1,1,0,0,0,0,1,0,0,1","0,0,1,1,1,1,0,1,1,1,0,1","0,1,1,0,1,1",10,20,20,"","","","","{""box1"":""100""}","",NA,1,"round3_ready",4,1,3,NA,NA,NA,NA,NA,NA,NA,NA,NA,NA,NA,NA,NA,NA,100,100,NA,NA,NA,NA,NA,NA,NA,NA,NA,100,100,NA,NA,NA,NA,NA,NA,NA,NA,NA,"",NA,NA,NA,NA,NA,NA,NA,NA,2025-11-21 01:03:54
"24342.69999998808","https://psyc-201.github.io/xiang2023/exp/index1.html?PROLIFIC_PID=REDACTED&STUDY_ID=691f8ca61c6b4dcbb0aeb5f4&SESSION_ID=691fb6537b922f3d581e7c50","survey-html-form",16,564712,"0.0-313.0-0.0","NlAVqOuzZg/b9CmGj0UXK9w2CkCM2vEr7f6X7Ptp6+koeGRtB3YexPUq6pzx9jC2KhGkOgQMIR8wR1CczaCIdHz8Gdt+5oHx+ybWHYGwPr+JRPJar7NQl0HlDWEE/TVpdt65fLB/SFcUohnyZq4tE4QFSdHRF7fFtwyts9qI6BeIioYZE6tp+7FGzKF72Z9SPXJW2XUzqGWkUEUvnDh/ugkrJvoCAPbUtZI8agWhZg4KWzf0fVqclIREtEJT93BJToh8kbsQNPL7dWoJ9rRDWPTzm9yFK+gMRX1EIQjrtK8VgaMhuOrvShyppYuS8JLBLv8xpxPfhfgdfytUVGHHLA==","691f8ca61c6b4dcbb0aeb5f4","691fb6537b922f3d581e7c50","index1","<span style='color:red'>Fail,<span style='color:red'>Fail,<span style='color:green'>Lift,<span style='color:green'>Lift,<span style='color:red'>Fail,<span style='color:red'>Fail,<span style='color:red'>Fail,<span style='color:red'>Fail,<span style='color:green'>Lift,<span style='color:red'>Fail,<span style='color:red'>Fail,<span style='color:green'>Lift","<span style='color:red'>Fail,<span style='color:red'>Fail,<span style='color:green'>Lift,<span style='color:green'>Lift,<span style='color:green'>Lift,<span style='color:green'>Lift,<span style='color:red'>Fail,<span style='color:green'>Lift,<span style='color:green'>Lift,<span style='color:green'>Lift,<span style='color:red'>Fail,<span style='color:green'>Lift","<span style='color:red'>Fail,<span style='color:green'>Lift,<span style='color:green'>Lift,<span style='color:red'>Fail,<span style='color:green'>Lift,<span style='color:green'>Lift","0,0,1,1,0,0,0,0,1,0,0,1","0,0,1,1,1,1,0,1,1,1,0,1","0,1,1,0,1,1",10,20,20,"","","","","{""box1"":""3"",""box2"":""5"",""box3"":""999"",""box4"":""999""}","",NA,2,"round3_fail",5,1,3,3,5,NA,NA,0,0,20,NA,NA,NA,NA,NA,NA,NA,NA,NA,NA,NA,NA,NA,NA,NA,NA,NA,NA,NA,NA,1,1,3,5,0,0,20,NA,NA,"",NA,NA,NA,NA,NA,NA,NA,NA,2025-11-21 01:03:54
"null","https://psyc-201.github.io/xiang2023/exp/index1.html?PROLIFIC_PID=REDACTED&STUDY_ID=691f8ca61c6b4dcbb0aeb5f4&SESSION_ID=691fb6537b922f3d581e7c50","html-keyboard-response",17,567719,"0.0-316.0","NlAVqOuzZg/b9CmGj0UXK9w2CkCM2vEr7f6X7Ptp6+koeGRtB3YexPUq6pzx9jC2KhGkOgQMIR8wR1CczaCIdHz8Gdt+5oHx+ybWHYGwPr+JRPJar7NQl0HlDWEE/TVpdt65fLB/SFcUohnyZq4tE4QFSdHRF7fFtwyts9qI6BeIioYZE6tp+7FGzKF72Z9SPXJW2XUzqGWkUEUvnDh/ugkrJvoCAPbUtZI8agWhZg4KWzf0fVqclIREtEJT93BJToh8kbsQNPL7dWoJ9rRDWPTzm9yFK+gMRX1EIQjrtK8VgaMhuOrvShyppYuS8JLBLv8xpxPfhfgdfytUVGHHLA==","691f8ca61c6b4dcbb0aeb5f4","691fb6537b922f3d581e7c50","index1","<span style='color:red'>Fail,<span style='color:red'>Fail,<span style='color:green'>Lift,<span style='color:green'>Lift,<span style='color:red'>Fail,<span style='color:red'>Fail,<span style='color:red'>Fail,<span style='color:red'>Fail,<span style='color:green'>Lift,<span style='color:red'>Fail,<span style='color:red'>Fail,<span style='color:green'>Lift","<span style='color:red'>Fail,<span style='color:red'>Fail,<span style='color:green'>Lift,<span style='color:green'>Lift,<span style='color:green'>Lift,<span style='color:green'>Lift,<span style='color:red'>Fail,<span style='color:green'>Lift,<span style='color:green'>Lift,<span style='color:green'>Lift,<span style='color:red'>Fail,<span style='color:green'>Lift","<span style='color:red'>Fail,<span style='color:green'>Lift,<span style='color:green'>Lift,<span style='color:red'>Fail,<span style='color:green'>Lift,<span style='color:green'>Lift","0,0,1,1,0,0,0,0,1,0,0,1","0,0,1,1,1,1,0,1,1,1,0,1","0,1,1,0,1,1",10,20,20,"","","<p style='font-size:30px'><b> New Contest! </b></p>","null","","",NA,2,"",NA,NA,NA,NA,NA,NA,NA,NA,NA,NA,NA,NA,NA,NA,NA,NA,NA,NA,NA,NA,NA,NA,NA,NA,NA,NA,NA,NA,NA,NA,NA,NA,NA,NA,NA,NA,NA,NA,NA,"",NA,NA,NA,NA,NA,NA,NA,NA,2025-11-21 01:03:54
"17176","https://psyc-201.github.io/xiang2023/exp/index1.html?PROLIFIC_PID=REDACTED&STUDY_ID=691f8ca61c6b4dcbb0aeb5f4&SESSION_ID=691fb6537b922f3d581e7c50","survey-html-form",18,584899,"0.0-317.0","NlAVqOuzZg/b9CmGj0UXK9w2CkCM2vEr7f6X7Ptp6+koeGRtB3YexPUq6pzx9jC2KhGkOgQMIR8wR1CczaCIdHz8Gdt+5oHx+ybWHYGwPr+JRPJar7NQl0HlDWEE/TVpdt65fLB/SFcUohnyZq4tE4QFSdHRF7fFtwyts9qI6BeIioYZE6tp+7FGzKF72Z9SPXJW2XUzqGWkUEUvnDh/ugkrJvoCAPbUtZI8agWhZg4KWzf0fVqclIREtEJT93BJToh8kbsQNPL7dWoJ9rRDWPTzm9yFK+gMRX1EIQjrtK8VgaMhuOrvShyppYuS8JLBLv8xpxPfhfgdfytUVGHHLA==","691f8ca61c6b4dcbb0aeb5f4","691fb6537b922f3d581e7c50","index1","<span style='color:red'>Fail,<span style='color:red'>Fail,<span style='color:green'>Lift,<span style='color:green'>Lift,<span style='color:red'>Fail,<span style='color:red'>Fail,<span style='color:red'>Fail,<span style='color:red'>Fail,<span style='color:green'>Lift,<span style='color:red'>Fail,<span style='color:red'>Fail,<span style='color:green'>Lift","<span style='color:red'>Fail,<span style='color:red'>Fail,<span style='color:green'>Lift,<span style='color:green'>Lift,<span style='color:green'>Lift,<span style='color:green'>Lift,<span style='color:red'>Fail,<span style='color:green'>Lift,<span style='color:green'>Lift,<span style='color:green'>Lift,<span style='color:red'>Fail,<span style='color:green'>Lift","<span style='color:red'>Fail,<span style='color:green'>Lift,<span style='color:green'>Lift,<span style='color:red'>Fail,<span style='color:green'>Lift,<span style='color:green'>Lift","0,0,1,1,0,0,0,0,1,0,0,1","0,0,1,1,1,1,0,1,1,1,0,1","0,1,1,0,1,1",10,20,20,"","","","","{""box1"":""5"",""box2"":""5""}","",NA,2,"round1_outcome",1,2,1,5,5,NA,NA,0,0,10,5,5,NA,NA,0,0,10,NA,NA,NA,NA,NA,NA,NA,NA,NA,NA,NA,NA,NA,NA,NA,NA,NA,NA,NA,NA,NA,NA,"",NA,NA,NA,NA,NA,NA,NA,NA,2025-11-21 01:03:54
"15469.5","https://psyc-201.github.io/xiang2023/exp/index1.html?PROLIFIC_PID=REDACTED&STUDY_ID=691f8ca61c6b4dcbb0aeb5f4&SESSION_ID=691fb6537b922f3d581e7c50","survey-html-form",19,600371,"0.0-318.0","NlAVqOuzZg/b9CmGj0UXK9w2CkCM2vEr7f6X7Ptp6+koeGRtB3YexPUq6pzx9jC2KhGkOgQMIR8wR1CczaCIdHz8Gdt+5oHx+ybWHYGwPr+JRPJar7NQl0HlDWEE/TVpdt65fLB/SFcUohnyZq4tE4QFSdHRF7fFtwyts9qI6BeIioYZE6tp+7FGzKF72Z9SPXJW2XUzqGWkUEUvnDh/ugkrJvoCAPbUtZI8agWhZg4KWzf0fVqclIREtEJT93BJToh8kbsQNPL7dWoJ9rRDWPTzm9yFK+gMRX1EIQjrtK8VgaMhuOrvShyppYuS8JLBLv8xpxPfhfgdfytUVGHHLA==","691f8ca61c6b4dcbb0aeb5f4","691fb6537b922f3d581e7c50","index1","<span style='color:red'>Fail,<span style='color:red'>Fail,<span style='color:green'>Lift,<span style='color:green'>Lift,<span style='color:red'>Fail,<span style='color:red'>Fail,<span style='color:red'>Fail,<span style='color:red'>Fail,<span style='color:green'>Lift,<span style='color:red'>Fail,<span style='color:red'>Fail,<span style='color:green'>Lift","<span style='color:red'>Fail,<span style='color:red'>Fail,<span style='color:green'>Lift,<span style='color:green'>Lift,<span style='color:green'>Lift,<span style='color:green'>Lift,<span style='color:red'>Fail,<span style='color:green'>Lift,<span style='color:green'>Lift,<span style='color:green'>Lift,<span style='color:red'>Fail,<span style='color:green'>Lift","<span style='color:red'>Fail,<span style='color:green'>Lift,<span style='color:green'>Lift,<span style='color:red'>Fail,<span style='color:green'>Lift,<span style='color:green'>Lift","0,0,1,1,0,0,0,0,1,0,0,1","0,0,1,1,1,1,0,1,1,1,0,1","0,1,1,0,1,1",10,20,20,"","","","","{""box1"":""40"",""box2"":""40""}","",NA,2,"round2_ready",2,2,2,NA,NA,NA,NA,NA,NA,NA,NA,NA,NA,NA,NA,NA,NA,40,40,40,40,NA,NA,NA,NA,NA,NA,NA,NA,NA,NA,NA,NA,NA,NA,NA,NA,NA,NA,"",NA,NA,NA,NA,NA,NA,NA,NA,2025-11-21 01:03:54
"8175.5","https://psyc-201.github.io/xiang2023/exp/index1.html?PROLIFIC_PID=REDACTED&STUDY_ID=691f8ca61c6b4dcbb0aeb5f4&SESSION_ID=691fb6537b922f3d581e7c50","survey-html-form",20,608550,"0.0-319.0","NlAVqOuzZg/b9CmGj0UXK9w2CkCM2vEr7f6X7Ptp6+koeGRtB3YexPUq6pzx9jC2KhGkOgQMIR8wR1CczaCIdHz8Gdt+5oHx+ybWHYGwPr+JRPJar7NQl0HlDWEE/TVpdt65fLB/SFcUohnyZq4tE4QFSdHRF7fFtwyts9qI6BeIioYZE6tp+7FGzKF72Z9SPXJW2XUzqGWkUEUvnDh/ugkrJvoCAPbUtZI8agWhZg4KWzf0fVqclIREtEJT93BJToh8kbsQNPL7dWoJ9rRDWPTzm9yFK+gMRX1EIQjrtK8VgaMhuOrvShyppYuS8JLBLv8xpxPfhfgdfytUVGHHLA==","691f8ca61c6b4dcbb0aeb5f4","691fb6537b922f3d581e7c50","index1","<span style='color:red'>Fail,<span style='color:red'>Fail,<span style='color:green'>Lift,<span style='color:green'>Lift,<span style='color:red'>Fail,<span style='color:red'>Fail,<span style='color:red'>Fail,<span style='color:red'>Fail,<span style='color:green'>Lift,<span style='color:red'>Fail,<span style='color:red'>Fail,<span style='color:green'>Lift","<span style='color:red'>Fail,<span style='color:red'>Fail,<span style='color:green'>Lift,<span style='color:green'>Lift,<span style='color:green'>Lift,<span style='color:green'>Lift,<span style='color:red'>Fail,<span style='color:green'>Lift,<span style='color:green'>Lift,<span style='color:green'>Lift,<span style='color:red'>Fail,<span style='color:green'>Lift","<span style='color:red'>Fail,<span style='color:green'>Lift,<span style='color:green'>Lift,<span style='color:red'>Fail,<span style='color:green'>Lift,<span style='color:green'>Lift","0,0,1,1,0,0,0,0,1,0,0,1","0,0,1,1,1,1,0,1,1,1,0,1","0,1,1,0,1,1",10,20,20,"","","","","{""box1"":""2"",""box2"":""2""}","",NA,2,"round2_outcome",3,2,2,2,2,NA,NA,0,0,20,NA,NA,NA,NA,NA,NA,NA,NA,NA,NA,NA,2,2,NA,NA,0,0,20,NA,NA,NA,NA,NA,NA,NA,NA,NA,NA,NA,"",NA,NA,NA,NA,NA,NA,NA,NA,2025-11-21 01:03:54
"7253.5999999940395","https://psyc-201.github.io/xiang2023/exp/index1.html?PROLIFIC_PID=REDACTED&STUDY_ID=691f8ca61c6b4dcbb0aeb5f4&SESSION_ID=691fb6537b922f3d581e7c50","survey-html-form",21,615806,"0.0-320.0","NlAVqOuzZg/b9CmGj0UXK9w2CkCM2vEr7f6X7Ptp6+koeGRtB3YexPUq6pzx9jC2KhGkOgQMIR8wR1CczaCIdHz8Gdt+5oHx+ybWHYGwPr+JRPJar7NQl0HlDWEE/TVpdt65fLB/SFcUohnyZq4tE4QFSdHRF7fFtwyts9qI6BeIioYZE6tp+7FGzKF72Z9SPXJW2XUzqGWkUEUvnDh/ugkrJvoCAPbUtZI8agWhZg4KWzf0fVqclIREtEJT93BJToh8kbsQNPL7dWoJ9rRDWPTzm9yFK+gMRX1EIQjrtK8VgaMhuOrvShyppYuS8JLBLv8xpxPfhfgdfytUVGHHLA==","691f8ca61c6b4dcbb0aeb5f4","691fb6537b922f3d581e7c50","index1","<span style='color:red'>Fail,<span style='color:red'>Fail,<span style='color:green'>Lift,<span style='color:green'>Lift,<span style='color:red'>Fail,<span style='color:red'>Fail,<span style='color:red'>Fail,<span style='color:red'>Fail,<span style='color:green'>Lift,<span style='color:red'>Fail,<span style='color:red'>Fail,<span style='color:green'>Lift","<span style='color:red'>Fail,<span style='color:red'>Fail,<span style='color:green'>Lift,<span style='color:green'>Lift,<span style='color:green'>Lift,<span style='color:green'>Lift,<span style='color:red'>Fail,<span style='color:green'>Lift,<span style='color:green'>Lift,<span style='color:green'>Lift,<span style='color:red'>Fail,<span style='color:green'>Lift","<span style='color:red'>Fail,<span style='color:green'>Lift,<span style='color:green'>Lift,<span style='color:red'>Fail,<span style='color:green'>Lift,<span style='color:green'>Lift","0,0,1,1,0,0,0,0,1,0,0,1","0,0,1,1,1,1,0,1,1,1,0,1","0,1,1,0,1,1",10,20,20,"","","","","{""box1"":""55""}","",NA,2,"round3_ready",4,2,3,NA,NA,NA,NA,NA,NA,NA,NA,NA,NA,NA,NA,NA,NA,55,55,NA,NA,NA,NA,NA,NA,NA,NA,NA,55,55,NA,NA,NA,NA,NA,NA,NA,NA,NA,"",NA,NA,NA,NA,NA,NA,NA,NA,2025-11-21 01:03:54
"16692.30000001192","https://psyc-201.github.io/xiang2023/exp/index1.html?PROLIFIC_PID=REDACTED&STUDY_ID=691f8ca61c6b4dcbb0aeb5f4&SESSION_ID=691fb6537b922f3d581e7c50","survey-html-form",22,632501,"0.0-322.0-0.0","NlAVqOuzZg/b9CmGj0UXK9w2CkCM2vEr7f6X7Ptp6+koeGRtB3YexPUq6pzx9jC2KhGkOgQMIR8wR1CczaCIdHz8Gdt+5oHx+ybWHYGwPr+JRPJar7NQl0HlDWEE/TVpdt65fLB/SFcUohnyZq4tE4QFSdHRF7fFtwyts9qI6BeIioYZE6tp+7FGzKF72Z9SPXJW2XUzqGWkUEUvnDh/ugkrJvoCAPbUtZI8agWhZg4KWzf0fVqclIREtEJT93BJToh8kbsQNPL7dWoJ9rRDWPTzm9yFK+gMRX1EIQjrtK8VgaMhuOrvShyppYuS8JLBLv8xpxPfhfgdfytUVGHHLA==","691f8ca61c6b4dcbb0aeb5f4","691fb6537b922f3d581e7c50","index1","<span style='color:red'>Fail,<span style='color:red'>Fail,<span style='color:green'>Lift,<span style='color:green'>Lift,<span style='color:red'>Fail,<span style='color:red'>Fail,<span style='color:red'>Fail,<span style='color:red'>Fail,<span style='color:green'>Lift,<span style='color:red'>Fail,<span style='color:red'>Fail,<span style='color:green'>Lift","<span style='color:red'>Fail,<span style='color:red'>Fail,<span style='color:green'>Lift,<span style='color:green'>Lift,<span style='color:green'>Lift,<span style='color:green'>Lift,<span style='color:red'>Fail,<span style='color:green'>Lift,<span style='color:green'>Lift,<span style='color:green'>Lift,<span style='color:red'>Fail,<span style='color:green'>Lift","<span style='color:red'>Fail,<span style='color:green'>Lift,<span style='color:green'>Lift,<span style='color:red'>Fail,<span style='color:green'>Lift,<span style='color:green'>Lift","0,0,1,1,0,0,0,0,1,0,0,1","0,0,1,1,1,1,0,1,1,1,0,1","0,1,1,0,1,1",10,20,20,"","","","","{""box1"":""2"",""box2"":""2"",""box3"":""999"",""box4"":""999""}","",NA,3,"round3_fail",5,2,3,2,2,NA,NA,0,0,20,NA,NA,NA,NA,NA,NA,NA,NA,NA,NA,NA,NA,NA,NA,NA,NA,NA,NA,NA,NA,1,1,2,2,0,0,20,NA,NA,"",NA,NA,NA,NA,NA,NA,NA,NA,2025-11-21 01:03:54
"null","https://psyc-201.github.io/xiang2023/exp/index1.html?PROLIFIC_PID=REDACTED&STUDY_ID=691f8ca61c6b4dcbb0aeb5f4&SESSION_ID=691fb6537b922f3d581e7c50","html-keyboard-response",23,635510,"0.0-325.0","NlAVqOuzZg/b9CmGj0UXK9w2CkCM2vEr7f6X7Ptp6+koeGRtB3YexPUq6pzx9jC2KhGkOgQMIR8wR1CczaCIdHz8Gdt+5oHx+ybWHYGwPr+JRPJar7NQl0HlDWEE/TVpdt65fLB/SFcUohnyZq4tE4QFSdHRF7fFtwyts9qI6BeIioYZE6tp+7FGzKF72Z9SPXJW2XUzqGWkUEUvnDh/ugkrJvoCAPbUtZI8agWhZg4KWzf0fVqclIREtEJT93BJToh8kbsQNPL7dWoJ9rRDWPTzm9yFK+gMRX1EIQjrtK8VgaMhuOrvShyppYuS8JLBLv8xpxPfhfgdfytUVGHHLA==","691f8ca61c6b4dcbb0aeb5f4","691fb6537b922f3d581e7c50","index1","<span style='color:red'>Fail,<span style='color:red'>Fail,<span style='color:green'>Lift,<span style='color:green'>Lift,<span style='color:red'>Fail,<span style='color:red'>Fail,<span style='color:red'>Fail,<span style='color:red'>Fail,<span style='color:green'>Lift,<span style='color:red'>Fail,<span style='color:red'>Fail,<span style='color:green'>Lift","<span style='color:red'>Fail,<span style='color:red'>Fail,<span style='color:green'>Lift,<span style='color:green'>Lift,<span style='color:green'>Lift,<span style='color:green'>Lift,<span style='color:red'>Fail,<span style='color:green'>Lift,<span style='color:green'>Lift,<span style='color:green'>Lift,<span style='color:red'>Fail,<span style='color:green'>Lift","<span style='color:red'>Fail,<span style='color:green'>Lift,<span style='color:green'>Lift,<span style='color:red'>Fail,<span style='color:green'>Lift,<span style='color:green'>Lift","0,0,1,1,0,0,0,0,1,0,0,1","0,0,1,1,1,1,0,1,1,1,0,1","0,1,1,0,1,1",10,20,20,"","","<p style='font-size:30px'><b> New Contest! </b></p>","null","","",NA,3,"",NA,NA,NA,NA,NA,NA,NA,NA,NA,NA,NA,NA,NA,NA,NA,NA,NA,NA,NA,NA,NA,NA,NA,NA,NA,NA,NA,NA,NA,NA,NA,NA,NA,NA,NA,NA,NA,NA,NA,"",NA,NA,NA,NA,NA,NA,NA,NA,2025-11-21 01:03:54
"47658.5","https://psyc-201.github.io/xiang2023/exp/index1.html?PROLIFIC_PID=REDACTED&STUDY_ID=691f8ca61c6b4dcbb0aeb5f4&SESSION_ID=691fb6537b922f3d581e7c50","survey-html-form",24,683172,"0.0-326.0","NlAVqOuzZg/b9CmGj0UXK9w2CkCM2vEr7f6X7Ptp6+koeGRtB3YexPUq6pzx9jC2KhGkOgQMIR8wR1CczaCIdHz8Gdt+5oHx+ybWHYGwPr+JRPJar7NQl0HlDWEE/TVpdt65fLB/SFcUohnyZq4tE4QFSdHRF7fFtwyts9qI6BeIioYZE6tp+7FGzKF72Z9SPXJW2XUzqGWkUEUvnDh/ugkrJvoCAPbUtZI8agWhZg4KWzf0fVqclIREtEJT93BJToh8kbsQNPL7dWoJ9rRDWPTzm9yFK+gMRX1EIQjrtK8VgaMhuOrvShyppYuS8JLBLv8xpxPfhfgdfytUVGHHLA==","691f8ca61c6b4dcbb0aeb5f4","691fb6537b922f3d581e7c50","index1","<span style='color:red'>Fail,<span style='color:red'>Fail,<span style='color:green'>Lift,<span style='color:green'>Lift,<span style='color:red'>Fail,<span style='color:red'>Fail,<span style='color:red'>Fail,<span style='color:red'>Fail,<span style='color:green'>Lift,<span style='color:red'>Fail,<span style='color:red'>Fail,<span style='color:green'>Lift","<span style='color:red'>Fail,<span style='color:red'>Fail,<span style='color:green'>Lift,<span style='color:green'>Lift,<span style='color:green'>Lift,<span style='color:green'>Lift,<span style='color:red'>Fail,<span style='color:green'>Lift,<span style='color:green'>Lift,<span style='color:green'>Lift,<span style='color:red'>Fail,<span style='color:green'>Lift","<span style='color:red'>Fail,<span style='color:green'>Lift,<span style='color:green'>Lift,<span style='color:red'>Fail,<span style='color:green'>Lift,<span style='color:green'>Lift","0,0,1,1,0,0,0,0,1,0,0,1","0,0,1,1,1,1,0,1,1,1,0,1","0,1,1,0,1,1",10,20,20,"","","","","{""box1"":""7"",""box2"":""5"",""box3"":""85"",""box4"":""99""}","",NA,3,"round1_outcome",1,3,1,7,5,85,99,1,1,10,7,5,85,99,1,1,10,NA,NA,NA,NA,NA,NA,NA,NA,NA,NA,NA,NA,NA,NA,NA,NA,NA,NA,NA,NA,NA,NA,"",NA,NA,NA,NA,NA,NA,NA,NA,2025-11-21 01:03:54
"16432.600000023842","https://psyc-201.github.io/xiang2023/exp/index1.html?PROLIFIC_PID=REDACTED&STUDY_ID=691f8ca61c6b4dcbb0aeb5f4&SESSION_ID=691fb6537b922f3d581e7c50","survey-html-form",25,699608,"0.0-327.0","NlAVqOuzZg/b9CmGj0UXK9w2CkCM2vEr7f6X7Ptp6+koeGRtB3YexPUq6pzx9jC2KhGkOgQMIR8wR1CczaCIdHz8Gdt+5oHx+ybWHYGwPr+JRPJar7NQl0HlDWEE/TVpdt65fLB/SFcUohnyZq4tE4QFSdHRF7fFtwyts9qI6BeIioYZE6tp+7FGzKF72Z9SPXJW2XUzqGWkUEUvnDh/ugkrJvoCAPbUtZI8agWhZg4KWzf0fVqclIREtEJT93BJToh8kbsQNPL7dWoJ9rRDWPTzm9yFK+gMRX1EIQjrtK8VgaMhuOrvShyppYuS8JLBLv8xpxPfhfgdfytUVGHHLA==","691f8ca61c6b4dcbb0aeb5f4","691fb6537b922f3d581e7c50","index1","<span style='color:red'>Fail,<span style='color:red'>Fail,<span style='color:green'>Lift,<span style='color:green'>Lift,<span style='color:red'>Fail,<span style='color:red'>Fail,<span style='color:red'>Fail,<span style='color:red'>Fail,<span style='color:green'>Lift,<span style='color:red'>Fail,<span style='color:red'>Fail,<span style='color:green'>Lift","<span style='color:red'>Fail,<span style='color:red'>Fail,<span style='color:green'>Lift,<span style='color:green'>Lift,<span style='color:green'>Lift,<span style='color:green'>Lift,<span style='color:red'>Fail,<span style='color:green'>Lift,<span style='color:green'>Lift,<span style='color:green'>Lift,<span style='color:red'>Fail,<span style='color:green'>Lift","<span style='color:red'>Fail,<span style='color:green'>Lift,<span style='color:green'>Lift,<span style='color:red'>Fail,<span style='color:green'>Lift,<span style='color:green'>Lift","0,0,1,1,0,0,0,0,1,0,0,1","0,0,1,1,1,1,0,1,1,1,0,1","0,1,1,0,1,1",10,20,20,"","","","","{""box1"":""80"",""box2"":""45""}","",NA,3,"round2_ready",2,3,2,NA,NA,NA,NA,NA,NA,NA,NA,NA,NA,NA,NA,NA,NA,80,45,80,45,NA,NA,NA,NA,NA,NA,NA,NA,NA,NA,NA,NA,NA,NA,NA,NA,NA,NA,"",NA,NA,NA,NA,NA,NA,NA,NA,2025-11-21 01:03:54
"24129.30000001192","https://psyc-201.github.io/xiang2023/exp/index1.html?PROLIFIC_PID=REDACTED&STUDY_ID=691f8ca61c6b4dcbb0aeb5f4&SESSION_ID=691fb6537b922f3d581e7c50","survey-html-form",26,723740,"0.0-328.0","NlAVqOuzZg/b9CmGj0UXK9w2CkCM2vEr7f6X7Ptp6+koeGRtB3YexPUq6pzx9jC2KhGkOgQMIR8wR1CczaCIdHz8Gdt+5oHx+ybWHYGwPr+JRPJar7NQl0HlDWEE/TVpdt65fLB/SFcUohnyZq4tE4QFSdHRF7fFtwyts9qI6BeIioYZE6tp+7FGzKF72Z9SPXJW2XUzqGWkUEUvnDh/ugkrJvoCAPbUtZI8agWhZg4KWzf0fVqclIREtEJT93BJToh8kbsQNPL7dWoJ9rRDWPTzm9yFK+gMRX1EIQjrtK8VgaMhuOrvShyppYuS8JLBLv8xpxPfhfgdfytUVGHHLA==","691f8ca61c6b4dcbb0aeb5f4","691fb6537b922f3d581e7c50","index1","<span style='color:red'>Fail,<span style='color:red'>Fail,<span style='color:green'>Lift,<span style='color:green'>Lift,<span style='color:red'>Fail,<span style='color:red'>Fail,<span style='color:red'>Fail,<span style='color:red'>Fail,<span style='color:green'>Lift,<span style='color:red'>Fail,<span style='color:red'>Fail,<span style='color:green'>Lift","<span style='color:red'>Fail,<span style='color:red'>Fail,<span style='color:green'>Lift,<span style='color:green'>Lift,<span style='color:green'>Lift,<span style='color:green'>Lift,<span style='color:red'>Fail,<span style='color:green'>Lift,<span style='color:green'>Lift,<span style='color:green'>Lift,<span style='color:red'>Fail,<span style='color:green'>Lift","<span style='color:red'>Fail,<span style='color:green'>Lift,<span style='color:green'>Lift,<span style='color:red'>Fail,<span style='color:green'>Lift,<span style='color:green'>Lift","0,0,1,1,0,0,0,0,1,0,0,1","0,0,1,1,1,1,0,1,1,1,0,1","0,1,1,0,1,1",10,20,20,"","","","","{""box1"":""8"",""box2"":""7"",""box3"":""75"",""box4"":""85""}","",NA,3,"round2_outcome",3,3,2,8,7,75,85,1,1,20,NA,NA,NA,NA,NA,NA,NA,NA,NA,NA,NA,8,7,75,85,1,1,20,NA,NA,NA,NA,NA,NA,NA,NA,NA,NA,NA,"",NA,NA,NA,NA,NA,NA,NA,NA,2025-11-21 01:03:54
"5464","https://psyc-201.github.io/xiang2023/exp/index1.html?PROLIFIC_PID=REDACTED&STUDY_ID=691f8ca61c6b4dcbb0aeb5f4&SESSION_ID=691fb6537b922f3d581e7c50","survey-html-form",27,729207,"0.0-329.0","NlAVqOuzZg/b9CmGj0UXK9w2CkCM2vEr7f6X7Ptp6+koeGRtB3YexPUq6pzx9jC2KhGkOgQMIR8wR1CczaCIdHz8Gdt+5oHx+ybWHYGwPr+JRPJar7NQl0HlDWEE/TVpdt65fLB/SFcUohnyZq4tE4QFSdHRF7fFtwyts9qI6BeIioYZE6tp+7FGzKF72Z9SPXJW2XUzqGWkUEUvnDh/ugkrJvoCAPbUtZI8agWhZg4KWzf0fVqclIREtEJT93BJToh8kbsQNPL7dWoJ9rRDWPTzm9yFK+gMRX1EIQjrtK8VgaMhuOrvShyppYuS8JLBLv8xpxPfhfgdfytUVGHHLA==","691f8ca61c6b4dcbb0aeb5f4","691fb6537b922f3d581e7c50","index1","<span style='color:red'>Fail,<span style='color:red'>Fail,<span style='color:green'>Lift,<span style='color:green'>Lift,<span style='color:red'>Fail,<span style='color:red'>Fail,<span style='color:red'>Fail,<span style='color:red'>Fail,<span style='color:green'>Lift,<span style='color:red'>Fail,<span style='color:red'>Fail,<span style='color:green'>Lift","<span style='color:red'>Fail,<span style='color:red'>Fail,<span style='color:green'>Lift,<span style='color:green'>Lift,<span style='color:green'>Lift,<span style='color:green'>Lift,<span style='color:red'>Fail,<span style='color:green'>Lift,<span style='color:green'>Lift,<span style='color:green'>Lift,<span style='color:red'>Fail,<span style='color:green'>Lift","<span style='color:red'>Fail,<span style='color:green'>Lift,<span style='color:green'>Lift,<span style='color:red'>Fail,<span style='color:green'>Lift,<span style='color:green'>Lift","0,0,1,1,0,0,0,0,1,0,0,1","0,0,1,1,1,1,0,1,1,1,0,1","0,1,1,0,1,1",10,20,20,"","","","","{""box1"":""100""}","",NA,3,"round3_ready",4,3,3,NA,NA,NA,NA,NA,NA,NA,NA,NA,NA,NA,NA,NA,NA,100,100,NA,NA,NA,NA,NA,NA,NA,NA,NA,100,100,NA,NA,NA,NA,NA,NA,NA,NA,NA,"",NA,NA,NA,NA,NA,NA,NA,NA,2025-11-21 01:03:54
"21122.5","https://psyc-201.github.io/xiang2023/exp/index1.html?PROLIFIC_PID=REDACTED&STUDY_ID=691f8ca61c6b4dcbb0aeb5f4&SESSION_ID=691fb6537b922f3d581e7c50","survey-html-form",28,750334,"0.0-330.0-0.0","NlAVqOuzZg/b9CmGj0UXK9w2CkCM2vEr7f6X7Ptp6+koeGRtB3YexPUq6pzx9jC2KhGkOgQMIR8wR1CczaCIdHz8Gdt+5oHx+ybWHYGwPr+JRPJar7NQl0HlDWEE/TVpdt65fLB/SFcUohnyZq4tE4QFSdHRF7fFtwyts9qI6BeIioYZE6tp+7FGzKF72Z9SPXJW2XUzqGWkUEUvnDh/ugkrJvoCAPbUtZI8agWhZg4KWzf0fVqclIREtEJT93BJToh8kbsQNPL7dWoJ9rRDWPTzm9yFK+gMRX1EIQjrtK8VgaMhuOrvShyppYuS8JLBLv8xpxPfhfgdfytUVGHHLA==","691f8ca61c6b4dcbb0aeb5f4","691fb6537b922f3d581e7c50","index1","<span style='color:red'>Fail,<span style='color:red'>Fail,<span style='color:green'>Lift,<span style='color:green'>Lift,<span style='color:red'>Fail,<span style='color:red'>Fail,<span style='color:red'>Fail,<span style='color:red'>Fail,<span style='color:green'>Lift,<span style='color:red'>Fail,<span style='color:red'>Fail,<span style='color:green'>Lift","<span style='color:red'>Fail,<span style='color:red'>Fail,<span style='color:green'>Lift,<span style='color:green'>Lift,<span style='color:green'>Lift,<span style='color:green'>Lift,<span style='color:red'>Fail,<span style='color:green'>Lift,<span style='color:green'>Lift,<span style='color:green'>Lift,<span style='color:red'>Fail,<span style='color:green'>Lift","<span style='color:red'>Fail,<span style='color:green'>Lift,<span style='color:green'>Lift,<span style='color:red'>Fail,<span style='color:green'>Lift,<span style='color:green'>Lift","0,0,1,1,0,0,0,0,1,0,0,1","0,0,1,1,1,1,0,1,1,1,0,1","0,1,1,0,1,1",10,20,20,"","","","","{""box1"":""7"",""box2"":""7"",""box3"":""75"",""box4"":""85""}","",NA,4,"round3_lift",5,3,3,7,7,75,85,1,1,20,NA,NA,NA,NA,NA,NA,NA,NA,NA,NA,NA,NA,NA,NA,NA,NA,NA,NA,NA,NA,NA,NA,7,7,1,1,20,75,85,"",NA,NA,NA,NA,NA,NA,NA,NA,2025-11-21 01:03:54
"null","https://psyc-201.github.io/xiang2023/exp/index1.html?PROLIFIC_PID=REDACTED&STUDY_ID=691f8ca61c6b4dcbb0aeb5f4&SESSION_ID=691fb6537b922f3d581e7c50","html-keyboard-response",29,753351,"0.0-334.0","NlAVqOuzZg/b9CmGj0UXK9w2CkCM2vEr7f6X7Ptp6+koeGRtB3YexPUq6pzx9jC2KhGkOgQMIR8wR1CczaCIdHz8Gdt+5oHx+ybWHYGwPr+JRPJar7NQl0HlDWEE/TVpdt65fLB/SFcUohnyZq4tE4QFSdHRF7fFtwyts9qI6BeIioYZE6tp+7FGzKF72Z9SPXJW2XUzqGWkUEUvnDh/ugkrJvoCAPbUtZI8agWhZg4KWzf0fVqclIREtEJT93BJToh8kbsQNPL7dWoJ9rRDWPTzm9yFK+gMRX1EIQjrtK8VgaMhuOrvShyppYuS8JLBLv8xpxPfhfgdfytUVGHHLA==","691f8ca61c6b4dcbb0aeb5f4","691fb6537b922f3d581e7c50","index1","<span style='color:red'>Fail,<span style='color:red'>Fail,<span style='color:green'>Lift,<span style='color:green'>Lift,<span style='color:red'>Fail,<span style='color:red'>Fail,<span style='color:red'>Fail,<span style='color:red'>Fail,<span style='color:green'>Lift,<span style='color:red'>Fail,<span style='color:red'>Fail,<span style='color:green'>Lift","<span style='color:red'>Fail,<span style='color:red'>Fail,<span style='color:green'>Lift,<span style='color:green'>Lift,<span style='color:green'>Lift,<span style='color:green'>Lift,<span style='color:red'>Fail,<span style='color:green'>Lift,<span style='color:green'>Lift,<span style='color:green'>Lift,<span style='color:red'>Fail,<span style='color:green'>Lift","<span style='color:red'>Fail,<span style='color:green'>Lift,<span style='color:green'>Lift,<span style='color:red'>Fail,<span style='color:green'>Lift,<span style='color:green'>Lift","0,0,1,1,0,0,0,0,1,0,0,1","0,0,1,1,1,1,0,1,1,1,0,1","0,1,1,0,1,1",10,20,20,"","","<p style='font-size:30px'><b> New Contest! </b></p>","null","","",NA,4,"",NA,NA,NA,NA,NA,NA,NA,NA,NA,NA,NA,NA,NA,NA,NA,NA,NA,NA,NA,NA,NA,NA,NA,NA,NA,NA,NA,NA,NA,NA,NA,NA,NA,NA,NA,NA,NA,NA,NA,"",NA,NA,NA,NA,NA,NA,NA,NA,2025-11-21 01:03:54
"22069.19999998808","https://psyc-201.github.io/xiang2023/exp/index1.html?PROLIFIC_PID=REDACTED&STUDY_ID=691f8ca61c6b4dcbb0aeb5f4&SESSION_ID=691fb6537b922f3d581e7c50","survey-html-form",30,775423,"0.0-335.0","NlAVqOuzZg/b9CmGj0UXK9w2CkCM2vEr7f6X7Ptp6+koeGRtB3YexPUq6pzx9jC2KhGkOgQMIR8wR1CczaCIdHz8Gdt+5oHx+ybWHYGwPr+JRPJar7NQl0HlDWEE/TVpdt65fLB/SFcUohnyZq4tE4QFSdHRF7fFtwyts9qI6BeIioYZE6tp+7FGzKF72Z9SPXJW2XUzqGWkUEUvnDh/ugkrJvoCAPbUtZI8agWhZg4KWzf0fVqclIREtEJT93BJToh8kbsQNPL7dWoJ9rRDWPTzm9yFK+gMRX1EIQjrtK8VgaMhuOrvShyppYuS8JLBLv8xpxPfhfgdfytUVGHHLA==","691f8ca61c6b4dcbb0aeb5f4","691fb6537b922f3d581e7c50","index1","<span style='color:red'>Fail,<span style='color:red'>Fail,<span style='color:green'>Lift,<span style='color:green'>Lift,<span style='color:red'>Fail,<span style='color:red'>Fail,<span style='color:red'>Fail,<span style='color:red'>Fail,<span style='color:green'>Lift,<span style='color:red'>Fail,<span style='color:red'>Fail,<span style='color:green'>Lift","<span style='color:red'>Fail,<span style='color:red'>Fail,<span style='color:green'>Lift,<span style='color:green'>Lift,<span style='color:green'>Lift,<span style='color:green'>Lift,<span style='color:red'>Fail,<span style='color:green'>Lift,<span style='color:green'>Lift,<span style='color:green'>Lift,<span style='color:red'>Fail,<span style='color:green'>Lift","<span style='color:red'>Fail,<span style='color:green'>Lift,<span style='color:green'>Lift,<span style='color:red'>Fail,<span style='color:green'>Lift,<span style='color:green'>Lift","0,0,1,1,0,0,0,0,1,0,0,1","0,0,1,1,1,1,0,1,1,1,0,1","0,1,1,0,1,1",10,20,20,"","","","","{""box1"":""4"",""box2"":""6"",""box4"":""89""}","",NA,4,"round1_outcome",1,4,1,4,6,NA,89,0,1,10,4,6,NA,89,0,1,10,NA,NA,NA,NA,NA,NA,NA,NA,NA,NA,NA,NA,NA,NA,NA,NA,NA,NA,NA,NA,NA,NA,"",NA,NA,NA,NA,NA,NA,NA,NA,2025-11-21 01:03:54
"13259.299999982119","https://psyc-201.github.io/xiang2023/exp/index1.html?PROLIFIC_PID=REDACTED&STUDY_ID=691f8ca61c6b4dcbb0aeb5f4&SESSION_ID=691fb6537b922f3d581e7c50","survey-html-form",31,788685,"0.0-336.0","NlAVqOuzZg/b9CmGj0UXK9w2CkCM2vEr7f6X7Ptp6+koeGRtB3YexPUq6pzx9jC2KhGkOgQMIR8wR1CczaCIdHz8Gdt+5oHx+ybWHYGwPr+JRPJar7NQl0HlDWEE/TVpdt65fLB/SFcUohnyZq4tE4QFSdHRF7fFtwyts9qI6BeIioYZE6tp+7FGzKF72Z9SPXJW2XUzqGWkUEUvnDh/ugkrJvoCAPbUtZI8agWhZg4KWzf0fVqclIREtEJT93BJToh8kbsQNPL7dWoJ9rRDWPTzm9yFK+gMRX1EIQjrtK8VgaMhuOrvShyppYuS8JLBLv8xpxPfhfgdfytUVGHHLA==","691f8ca61c6b4dcbb0aeb5f4","691fb6537b922f3d581e7c50","index1","<span style='color:red'>Fail,<span style='color:red'>Fail,<span style='color:green'>Lift,<span style='color:green'>Lift,<span style='color:red'>Fail,<span style='color:red'>Fail,<span style='color:red'>Fail,<span style='color:red'>Fail,<span style='color:green'>Lift,<span style='color:red'>Fail,<span style='color:red'>Fail,<span style='color:green'>Lift","<span style='color:red'>Fail,<span style='color:red'>Fail,<span style='color:green'>Lift,<span style='color:green'>Lift,<span style='color:green'>Lift,<span style='color:green'>Lift,<span style='color:red'>Fail,<span style='color:green'>Lift,<span style='color:green'>Lift,<span style='color:green'>Lift,<span style='color:red'>Fail,<span style='color:green'>Lift","<span style='color:red'>Fail,<span style='color:green'>Lift,<span style='color:green'>Lift,<span style='color:red'>Fail,<span style='color:green'>Lift,<span style='color:green'>Lift","0,0,1,1,0,0,0,0,1,0,0,1","0,0,1,1,1,1,0,1,1,1,0,1","0,1,1,0,1,1",10,20,20,"","","","","{""box1"":""48"",""box2"":""75""}","",NA,4,"round2_ready",2,4,2,NA,NA,NA,NA,NA,NA,NA,NA,NA,NA,NA,NA,NA,NA,48,75,48,75,NA,NA,NA,NA,NA,NA,NA,NA,NA,NA,NA,NA,NA,NA,NA,NA,NA,NA,"",NA,NA,NA,NA,NA,NA,NA,NA,2025-11-21 01:03:54
"28954.29999998212","https://psyc-201.github.io/xiang2023/exp/index1.html?PROLIFIC_PID=REDACTED&STUDY_ID=691f8ca61c6b4dcbb0aeb5f4&SESSION_ID=691fb6537b922f3d581e7c50","survey-html-form",32,817642,"0.0-337.0","NlAVqOuzZg/b9CmGj0UXK9w2CkCM2vEr7f6X7Ptp6+koeGRtB3YexPUq6pzx9jC2KhGkOgQMIR8wR1CczaCIdHz8Gdt+5oHx+ybWHYGwPr+JRPJar7NQl0HlDWEE/TVpdt65fLB/SFcUohnyZq4tE4QFSdHRF7fFtwyts9qI6BeIioYZE6tp+7FGzKF72Z9SPXJW2XUzqGWkUEUvnDh/ugkrJvoCAPbUtZI8agWhZg4KWzf0fVqclIREtEJT93BJToh8kbsQNPL7dWoJ9rRDWPTzm9yFK+gMRX1EIQjrtK8VgaMhuOrvShyppYuS8JLBLv8xpxPfhfgdfytUVGHHLA==","691f8ca61c6b4dcbb0aeb5f4","691fb6537b922f3d581e7c50","index1","<span style='color:red'>Fail,<span style='color:red'>Fail,<span style='color:green'>Lift,<span style='color:green'>Lift,<span style='color:red'>Fail,<span style='color:red'>Fail,<span style='color:red'>Fail,<span style='color:red'>Fail,<span style='color:green'>Lift,<span style='color:red'>Fail,<span style='color:red'>Fail,<span style='color:green'>Lift","<span style='color:red'>Fail,<span style='color:red'>Fail,<span style='color:green'>Lift,<span style='color:green'>Lift,<span style='color:green'>Lift,<span style='color:green'>Lift,<span style='color:red'>Fail,<span style='color:green'>Lift,<span style='color:green'>Lift,<span style='color:green'>Lift,<span style='color:red'>Fail,<span style='color:green'>Lift","<span style='color:red'>Fail,<span style='color:green'>Lift,<span style='color:green'>Lift,<span style='color:red'>Fail,<span style='color:green'>Lift,<span style='color:green'>Lift","0,0,1,1,0,0,0,0,1,0,0,1","0,0,1,1,1,1,0,1,1,1,0,1","0,1,1,0,1,1",10,20,20,"","","","","{""box1"":""3"",""box2"":""8"",""box4"":""85""}","",NA,4,"round2_outcome",3,4,2,3,8,NA,85,0,1,20,NA,NA,NA,NA,NA,NA,NA,NA,NA,NA,NA,3,8,NA,85,0,1,20,NA,NA,NA,NA,NA,NA,NA,NA,NA,NA,NA,"",NA,NA,NA,NA,NA,NA,NA,NA,2025-11-21 01:03:54
"6667.899999976158","https://psyc-201.github.io/xiang2023/exp/index1.html?PROLIFIC_PID=REDACTED&STUDY_ID=691f8ca61c6b4dcbb0aeb5f4&SESSION_ID=691fb6537b922f3d581e7c50","survey-html-form",33,824313,"0.0-338.0","NlAVqOuzZg/b9CmGj0UXK9w2CkCM2vEr7f6X7Ptp6+koeGRtB3YexPUq6pzx9jC2KhGkOgQMIR8wR1CczaCIdHz8Gdt+5oHx+ybWHYGwPr+JRPJar7NQl0HlDWEE/TVpdt65fLB/SFcUohnyZq4tE4QFSdHRF7fFtwyts9qI6BeIioYZE6tp+7FGzKF72Z9SPXJW2XUzqGWkUEUvnDh/ugkrJvoCAPbUtZI8agWhZg4KWzf0fVqclIREtEJT93BJToh8kbsQNPL7dWoJ9rRDWPTzm9yFK+gMRX1EIQjrtK8VgaMhuOrvShyppYuS8JLBLv8xpxPfhfgdfytUVGHHLA==","691f8ca61c6b4dcbb0aeb5f4","691fb6537b922f3d581e7c50","index1","<span style='color:red'>Fail,<span style='color:red'>Fail,<span style='color:green'>Lift,<span style='color:green'>Lift,<span style='color:red'>Fail,<span style='color:red'>Fail,<span style='color:red'>Fail,<span style='color:red'>Fail,<span style='color:green'>Lift,<span style='color:red'>Fail,<span style='color:red'>Fail,<span style='color:green'>Lift","<span style='color:red'>Fail,<span style='color:red'>Fail,<span style='color:green'>Lift,<span style='color:green'>Lift,<span style='color:green'>Lift,<span style='color:green'>Lift,<span style='color:red'>Fail,<span style='color:green'>Lift,<span style='color:green'>Lift,<span style='color:green'>Lift,<span style='color:red'>Fail,<span style='color:green'>Lift","<span style='color:red'>Fail,<span style='color:green'>Lift,<span style='color:green'>Lift,<span style='color:red'>Fail,<span style='color:green'>Lift,<span style='color:green'>Lift","0,0,1,1,0,0,0,0,1,0,0,1","0,0,1,1,1,1,0,1,1,1,0,1","0,1,1,0,1,1",10,20,20,"","","","","{""box1"":""87""}","",NA,4,"round3_ready",4,4,3,NA,NA,NA,NA,NA,NA,NA,NA,NA,NA,NA,NA,NA,NA,87,87,NA,NA,NA,NA,NA,NA,NA,NA,NA,87,87,NA,NA,NA,NA,NA,NA,NA,NA,NA,"",NA,NA,NA,NA,NA,NA,NA,NA,2025-11-21 01:03:54
"18740.30000001192","https://psyc-201.github.io/xiang2023/exp/index1.html?PROLIFIC_PID=REDACTED&STUDY_ID=691f8ca61c6b4dcbb0aeb5f4&SESSION_ID=691fb6537b922f3d581e7c50","survey-html-form",34,843057,"0.0-339.0-0.0","NlAVqOuzZg/b9CmGj0UXK9w2CkCM2vEr7f6X7Ptp6+koeGRtB3YexPUq6pzx9jC2KhGkOgQMIR8wR1CczaCIdHz8Gdt+5oHx+ybWHYGwPr+JRPJar7NQl0HlDWEE/TVpdt65fLB/SFcUohnyZq4tE4QFSdHRF7fFtwyts9qI6BeIioYZE6tp+7FGzKF72Z9SPXJW2XUzqGWkUEUvnDh/ugkrJvoCAPbUtZI8agWhZg4KWzf0fVqclIREtEJT93BJToh8kbsQNPL7dWoJ9rRDWPTzm9yFK+gMRX1EIQjrtK8VgaMhuOrvShyppYuS8JLBLv8xpxPfhfgdfytUVGHHLA==","691f8ca61c6b4dcbb0aeb5f4","691fb6537b922f3d581e7c50","index1","<span style='color:red'>Fail,<span style='color:red'>Fail,<span style='color:green'>Lift,<span style='color:green'>Lift,<span style='color:red'>Fail,<span style='color:red'>Fail,<span style='color:red'>Fail,<span style='color:red'>Fail,<span style='color:green'>Lift,<span style='color:red'>Fail,<span style='color:red'>Fail,<span style='color:green'>Lift","<span style='color:red'>Fail,<span style='color:red'>Fail,<span style='color:green'>Lift,<span style='color:green'>Lift,<span style='color:green'>Lift,<span style='color:green'>Lift,<span style='color:red'>Fail,<span style='color:green'>Lift,<span style='color:green'>Lift,<span style='color:green'>Lift,<span style='color:red'>Fail,<span style='color:green'>Lift","<span style='color:red'>Fail,<span style='color:green'>Lift,<span style='color:green'>Lift,<span style='color:red'>Fail,<span style='color:green'>Lift,<span style='color:green'>Lift","0,0,1,1,0,0,0,0,1,0,0,1","0,0,1,1,1,1,0,1,1,1,0,1","0,1,1,0,1,1",10,20,20,"","","","","{""box1"":""3"",""box2"":""7"",""box3"":""87"",""box4"":""84""}","",NA,5,"round3_lift",5,4,3,3,7,87,84,1,1,20,NA,NA,NA,NA,NA,NA,NA,NA,NA,NA,NA,NA,NA,NA,NA,NA,NA,NA,NA,NA,NA,NA,3,7,1,1,20,87,84,"",NA,NA,NA,NA,NA,NA,NA,NA,2025-11-21 01:03:54
"null","https://psyc-201.github.io/xiang2023/exp/index1.html?PROLIFIC_PID=REDACTED&STUDY_ID=691f8ca61c6b4dcbb0aeb5f4&SESSION_ID=691fb6537b922f3d581e7c50","html-keyboard-response",35,846071,"0.0-343.0","NlAVqOuzZg/b9CmGj0UXK9w2CkCM2vEr7f6X7Ptp6+koeGRtB3YexPUq6pzx9jC2KhGkOgQMIR8wR1CczaCIdHz8Gdt+5oHx+ybWHYGwPr+JRPJar7NQl0HlDWEE/TVpdt65fLB/SFcUohnyZq4tE4QFSdHRF7fFtwyts9qI6BeIioYZE6tp+7FGzKF72Z9SPXJW2XUzqGWkUEUvnDh/ugkrJvoCAPbUtZI8agWhZg4KWzf0fVqclIREtEJT93BJToh8kbsQNPL7dWoJ9rRDWPTzm9yFK+gMRX1EIQjrtK8VgaMhuOrvShyppYuS8JLBLv8xpxPfhfgdfytUVGHHLA==","691f8ca61c6b4dcbb0aeb5f4","691fb6537b922f3d581e7c50","index1","<span style='color:red'>Fail,<span style='color:red'>Fail,<span style='color:green'>Lift,<span style='color:green'>Lift,<span style='color:red'>Fail,<span style='color:red'>Fail,<span style='color:red'>Fail,<span style='color:red'>Fail,<span style='color:green'>Lift,<span style='color:red'>Fail,<span style='color:red'>Fail,<span style='color:green'>Lift","<span style='color:red'>Fail,<span style='color:red'>Fail,<span style='color:green'>Lift,<span style='color:green'>Lift,<span style='color:green'>Lift,<span style='color:green'>Lift,<span style='color:red'>Fail,<span style='color:green'>Lift,<span style='color:green'>Lift,<span style='color:green'>Lift,<span style='color:red'>Fail,<span style='color:green'>Lift","<span style='color:red'>Fail,<span style='color:green'>Lift,<span style='color:green'>Lift,<span style='color:red'>Fail,<span style='color:green'>Lift,<span style='color:green'>Lift","0,0,1,1,0,0,0,0,1,0,0,1","0,0,1,1,1,1,0,1,1,1,0,1","0,1,1,0,1,1",10,20,20,"","","<p style='font-size:30px'><b> New Contest! </b></p>","null","","",NA,5,"",NA,NA,NA,NA,NA,NA,NA,NA,NA,NA,NA,NA,NA,NA,NA,NA,NA,NA,NA,NA,NA,NA,NA,NA,NA,NA,NA,NA,NA,NA,NA,NA,NA,NA,NA,NA,NA,NA,NA,"",NA,NA,NA,NA,NA,NA,NA,NA,2025-11-21 01:03:54
"20102.79999998212","https://psyc-201.github.io/xiang2023/exp/index1.html?PROLIFIC_PID=REDACTED&STUDY_ID=691f8ca61c6b4dcbb0aeb5f4&SESSION_ID=691fb6537b922f3d581e7c50","survey-html-form",36,866176,"0.0-344.0","NlAVqOuzZg/b9CmGj0UXK9w2CkCM2vEr7f6X7Ptp6+koeGRtB3YexPUq6pzx9jC2KhGkOgQMIR8wR1CczaCIdHz8Gdt+5oHx+ybWHYGwPr+JRPJar7NQl0HlDWEE/TVpdt65fLB/SFcUohnyZq4tE4QFSdHRF7fFtwyts9qI6BeIioYZE6tp+7FGzKF72Z9SPXJW2XUzqGWkUEUvnDh/ugkrJvoCAPbUtZI8agWhZg4KWzf0fVqclIREtEJT93BJToh8kbsQNPL7dWoJ9rRDWPTzm9yFK+gMRX1EIQjrtK8VgaMhuOrvShyppYuS8JLBLv8xpxPfhfgdfytUVGHHLA==","691f8ca61c6b4dcbb0aeb5f4","691fb6537b922f3d581e7c50","index1","<span style='color:red'>Fail,<span style='color:red'>Fail,<span style='color:green'>Lift,<span style='color:green'>Lift,<span style='color:red'>Fail,<span style='color:red'>Fail,<span style='color:red'>Fail,<span style='color:red'>Fail,<span style='color:green'>Lift,<span style='color:red'>Fail,<span style='color:red'>Fail,<span style='color:green'>Lift","<span style='color:red'>Fail,<span style='color:red'>Fail,<span style='color:green'>Lift,<span style='color:green'>Lift,<span style='color:green'>Lift,<span style='color:green'>Lift,<span style='color:red'>Fail,<span style='color:green'>Lift,<span style='color:green'>Lift,<span style='color:green'>Lift,<span style='color:red'>Fail,<span style='color:green'>Lift","<span style='color:red'>Fail,<span style='color:green'>Lift,<span style='color:green'>Lift,<span style='color:red'>Fail,<span style='color:green'>Lift,<span style='color:green'>Lift","0,0,1,1,0,0,0,0,1,0,0,1","0,0,1,1,1,1,0,1,1,1,0,1","0,1,1,0,1,1",10,20,20,"","","","","{""box1"":""3"",""box2"":""4""}","",NA,5,"round1_outcome",1,5,1,3,4,NA,NA,0,0,10,3,4,NA,NA,0,0,10,NA,NA,NA,NA,NA,NA,NA,NA,NA,NA,NA,NA,NA,NA,NA,NA,NA,NA,NA,NA,NA,NA,"",NA,NA,NA,NA,NA,NA,NA,NA,2025-11-21 01:03:54
"8378.09999999404","https://psyc-201.github.io/xiang2023/exp/index1.html?PROLIFIC_PID=REDACTED&STUDY_ID=691f8ca61c6b4dcbb0aeb5f4&SESSION_ID=691fb6537b922f3d581e7c50","survey-html-form",37,874557,"0.0-345.0","NlAVqOuzZg/b9CmGj0UXK9w2CkCM2vEr7f6X7Ptp6+koeGRtB3YexPUq6pzx9jC2KhGkOgQMIR8wR1CczaCIdHz8Gdt+5oHx+ybWHYGwPr+JRPJar7NQl0HlDWEE/TVpdt65fLB/SFcUohnyZq4tE4QFSdHRF7fFtwyts9qI6BeIioYZE6tp+7FGzKF72Z9SPXJW2XUzqGWkUEUvnDh/ugkrJvoCAPbUtZI8agWhZg4KWzf0fVqclIREtEJT93BJToh8kbsQNPL7dWoJ9rRDWPTzm9yFK+gMRX1EIQjrtK8VgaMhuOrvShyppYuS8JLBLv8xpxPfhfgdfytUVGHHLA==","691f8ca61c6b4dcbb0aeb5f4","691fb6537b922f3d581e7c50","index1","<span style='color:red'>Fail,<span style='color:red'>Fail,<span style='color:green'>Lift,<span style='color:green'>Lift,<span style='color:red'>Fail,<span style='color:red'>Fail,<span style='color:red'>Fail,<span style='color:red'>Fail,<span style='color:green'>Lift,<span style='color:red'>Fail,<span style='color:red'>Fail,<span style='color:green'>Lift","<span style='color:red'>Fail,<span style='color:red'>Fail,<span style='color:green'>Lift,<span style='color:green'>Lift,<span style='color:green'>Lift,<span style='color:green'>Lift,<span style='color:red'>Fail,<span style='color:green'>Lift,<span style='color:green'>Lift,<span style='color:green'>Lift,<span style='color:red'>Fail,<span style='color:green'>Lift","<span style='color:red'>Fail,<span style='color:green'>Lift,<span style='color:green'>Lift,<span style='color:red'>Fail,<span style='color:green'>Lift,<span style='color:green'>Lift","0,0,1,1,0,0,0,0,1,0,0,1","0,0,1,1,1,1,0,1,1,1,0,1","0,1,1,0,1,1",10,20,20,"","","","","{""box1"":""45"",""box2"":""50""}","",NA,5,"round2_ready",2,5,2,NA,NA,NA,NA,NA,NA,NA,NA,NA,NA,NA,NA,NA,NA,45,50,45,50,NA,NA,NA,NA,NA,NA,NA,NA,NA,NA,NA,NA,NA,NA,NA,NA,NA,NA,"",NA,NA,NA,NA,NA,NA,NA,NA,2025-11-21 01:03:54
"15859.899999976158","https://psyc-201.github.io/xiang2023/exp/index1.html?PROLIFIC_PID=REDACTED&STUDY_ID=691f8ca61c6b4dcbb0aeb5f4&SESSION_ID=691fb6537b922f3d581e7c50","survey-html-form",38,890420,"0.0-346.0","NlAVqOuzZg/b9CmGj0UXK9w2CkCM2vEr7f6X7Ptp6+koeGRtB3YexPUq6pzx9jC2KhGkOgQMIR8wR1CczaCIdHz8Gdt+5oHx+ybWHYGwPr+JRPJar7NQl0HlDWEE/TVpdt65fLB/SFcUohnyZq4tE4QFSdHRF7fFtwyts9qI6BeIioYZE6tp+7FGzKF72Z9SPXJW2XUzqGWkUEUvnDh/ugkrJvoCAPbUtZI8agWhZg4KWzf0fVqclIREtEJT93BJToh8kbsQNPL7dWoJ9rRDWPTzm9yFK+gMRX1EIQjrtK8VgaMhuOrvShyppYuS8JLBLv8xpxPfhfgdfytUVGHHLA==","691f8ca61c6b4dcbb0aeb5f4","691fb6537b922f3d581e7c50","index1","<span style='color:red'>Fail,<span style='color:red'>Fail,<span style='color:green'>Lift,<span style='color:green'>Lift,<span style='color:red'>Fail,<span style='color:red'>Fail,<span style='color:red'>Fail,<span style='color:red'>Fail,<span style='color:green'>Lift,<span style='color:red'>Fail,<span style='color:red'>Fail,<span style='color:green'>Lift","<span style='color:red'>Fail,<span style='color:red'>Fail,<span style='color:green'>Lift,<span style='color:green'>Lift,<span style='color:green'>Lift,<span style='color:green'>Lift,<span style='color:red'>Fail,<span style='color:green'>Lift,<span style='color:green'>Lift,<span style='color:green'>Lift,<span style='color:red'>Fail,<span style='color:green'>Lift","<span style='color:red'>Fail,<span style='color:green'>Lift,<span style='color:green'>Lift,<span style='color:red'>Fail,<span style='color:green'>Lift,<span style='color:green'>Lift","0,0,1,1,0,0,0,0,1,0,0,1","0,0,1,1,1,1,0,1,1,1,0,1","0,1,1,0,1,1",10,20,20,"","","","","{""box1"":""5"",""box2"":""5"",""box3"":""90"",""box4"":""90""}","",NA,5,"round2_outcome",3,5,2,5,5,90,90,1,1,20,NA,NA,NA,NA,NA,NA,NA,NA,NA,NA,NA,5,5,90,90,1,1,20,NA,NA,NA,NA,NA,NA,NA,NA,NA,NA,NA,"",NA,NA,NA,NA,NA,NA,NA,NA,2025-11-21 01:03:54
"5586.5","https://psyc-201.github.io/xiang2023/exp/index1.html?PROLIFIC_PID=REDACTED&STUDY_ID=691f8ca61c6b4dcbb0aeb5f4&SESSION_ID=691fb6537b922f3d581e7c50","survey-html-form",39,896010,"0.0-347.0","NlAVqOuzZg/b9CmGj0UXK9w2CkCM2vEr7f6X7Ptp6+koeGRtB3YexPUq6pzx9jC2KhGkOgQMIR8wR1CczaCIdHz8Gdt+5oHx+ybWHYGwPr+JRPJar7NQl0HlDWEE/TVpdt65fLB/SFcUohnyZq4tE4QFSdHRF7fFtwyts9qI6BeIioYZE6tp+7FGzKF72Z9SPXJW2XUzqGWkUEUvnDh/ugkrJvoCAPbUtZI8agWhZg4KWzf0fVqclIREtEJT93BJToh8kbsQNPL7dWoJ9rRDWPTzm9yFK+gMRX1EIQjrtK8VgaMhuOrvShyppYuS8JLBLv8xpxPfhfgdfytUVGHHLA==","691f8ca61c6b4dcbb0aeb5f4","691fb6537b922f3d581e7c50","index1","<span style='color:red'>Fail,<span style='color:red'>Fail,<span style='color:green'>Lift,<span style='color:green'>Lift,<span style='color:red'>Fail,<span style='color:red'>Fail,<span style='color:red'>Fail,<span style='color:red'>Fail,<span style='color:green'>Lift,<span style='color:red'>Fail,<span style='color:red'>Fail,<span style='color:green'>Lift","<span style='color:red'>Fail,<span style='color:red'>Fail,<span style='color:green'>Lift,<span style='color:green'>Lift,<span style='color:green'>Lift,<span style='color:green'>Lift,<span style='color:red'>Fail,<span style='color:green'>Lift,<span style='color:green'>Lift,<span style='color:green'>Lift,<span style='color:red'>Fail,<span style='color:green'>Lift","<span style='color:red'>Fail,<span style='color:green'>Lift,<span style='color:green'>Lift,<span style='color:red'>Fail,<span style='color:green'>Lift,<span style='color:green'>Lift","0,0,1,1,0,0,0,0,1,0,0,1","0,0,1,1,1,1,0,1,1,1,0,1","0,1,1,0,1,1",10,20,20,"","","","","{""box1"":""98""}","",NA,5,"round3_ready",4,5,3,NA,NA,NA,NA,NA,NA,NA,NA,NA,NA,NA,NA,NA,NA,98,98,NA,NA,NA,NA,NA,NA,NA,NA,NA,98,98,NA,NA,NA,NA,NA,NA,NA,NA,NA,"",NA,NA,NA,NA,NA,NA,NA,NA,2025-11-21 01:03:54
"13263.800000011921","https://psyc-201.github.io/xiang2023/exp/index1.html?PROLIFIC_PID=REDACTED&STUDY_ID=691f8ca61c6b4dcbb0aeb5f4&SESSION_ID=691fb6537b922f3d581e7c50","survey-html-form",40,909278,"0.0-348.0-0.0","NlAVqOuzZg/b9CmGj0UXK9w2CkCM2vEr7f6X7Ptp6+koeGRtB3YexPUq6pzx9jC2KhGkOgQMIR8wR1CczaCIdHz8Gdt+5oHx+ybWHYGwPr+JRPJar7NQl0HlDWEE/TVpdt65fLB/SFcUohnyZq4tE4QFSdHRF7fFtwyts9qI6BeIioYZE6tp+7FGzKF72Z9SPXJW2XUzqGWkUEUvnDh/ugkrJvoCAPbUtZI8agWhZg4KWzf0fVqclIREtEJT93BJToh8kbsQNPL7dWoJ9rRDWPTzm9yFK+gMRX1EIQjrtK8VgaMhuOrvShyppYuS8JLBLv8xpxPfhfgdfytUVGHHLA==","691f8ca61c6b4dcbb0aeb5f4","691fb6537b922f3d581e7c50","index1","<span style='color:red'>Fail,<span style='color:red'>Fail,<span style='color:green'>Lift,<span style='color:green'>Lift,<span style='color:red'>Fail,<span style='color:red'>Fail,<span style='color:red'>Fail,<span style='color:red'>Fail,<span style='color:green'>Lift,<span style='color:red'>Fail,<span style='color:red'>Fail,<span style='color:green'>Lift","<span style='color:red'>Fail,<span style='color:red'>Fail,<span style='color:green'>Lift,<span style='color:green'>Lift,<span style='color:green'>Lift,<span style='color:green'>Lift,<span style='color:red'>Fail,<span style='color:green'>Lift,<span style='color:green'>Lift,<span style='color:green'>Lift,<span style='color:red'>Fail,<span style='color:green'>Lift","<span style='color:red'>Fail,<span style='color:green'>Lift,<span style='color:green'>Lift,<span style='color:red'>Fail,<span style='color:green'>Lift,<span style='color:green'>Lift","0,0,1,1,0,0,0,0,1,0,0,1","0,0,1,1,1,1,0,1,1,1,0,1","0,1,1,0,1,1",10,20,20,"","","","","{""box1"":""5"",""box2"":""5"",""box3"":""80"",""box4"":""80""}","",NA,6,"round3_lift",5,5,3,5,5,80,80,1,1,20,NA,NA,NA,NA,NA,NA,NA,NA,NA,NA,NA,NA,NA,NA,NA,NA,NA,NA,NA,NA,NA,NA,5,5,1,1,20,80,80,"",NA,NA,NA,NA,NA,NA,NA,NA,2025-11-21 01:03:54
"null","https://psyc-201.github.io/xiang2023/exp/index1.html?PROLIFIC_PID=REDACTED&STUDY_ID=691f8ca61c6b4dcbb0aeb5f4&SESSION_ID=691fb6537b922f3d581e7c50","html-keyboard-response",41,912281,"0.0-352.0","NlAVqOuzZg/b9CmGj0UXK9w2CkCM2vEr7f6X7Ptp6+koeGRtB3YexPUq6pzx9jC2KhGkOgQMIR8wR1CczaCIdHz8Gdt+5oHx+ybWHYGwPr+JRPJar7NQl0HlDWEE/TVpdt65fLB/SFcUohnyZq4tE4QFSdHRF7fFtwyts9qI6BeIioYZE6tp+7FGzKF72Z9SPXJW2XUzqGWkUEUvnDh/ugkrJvoCAPbUtZI8agWhZg4KWzf0fVqclIREtEJT93BJToh8kbsQNPL7dWoJ9rRDWPTzm9yFK+gMRX1EIQjrtK8VgaMhuOrvShyppYuS8JLBLv8xpxPfhfgdfytUVGHHLA==","691f8ca61c6b4dcbb0aeb5f4","691fb6537b922f3d581e7c50","index1","<span style='color:red'>Fail,<span style='color:red'>Fail,<span style='color:green'>Lift,<span style='color:green'>Lift,<span style='color:red'>Fail,<span style='color:red'>Fail,<span style='color:red'>Fail,<span style='color:red'>Fail,<span style='color:green'>Lift,<span style='color:red'>Fail,<span style='color:red'>Fail,<span style='color:green'>Lift","<span style='color:red'>Fail,<span style='color:red'>Fail,<span style='color:green'>Lift,<span style='color:green'>Lift,<span style='color:green'>Lift,<span style='color:green'>Lift,<span style='color:red'>Fail,<span style='color:green'>Lift,<span style='color:green'>Lift,<span style='color:green'>Lift,<span style='color:red'>Fail,<span style='color:green'>Lift","<span style='color:red'>Fail,<span style='color:green'>Lift,<span style='color:green'>Lift,<span style='color:red'>Fail,<span style='color:green'>Lift,<span style='color:green'>Lift","0,0,1,1,0,0,0,0,1,0,0,1","0,0,1,1,1,1,0,1,1,1,0,1","0,1,1,0,1,1",10,20,20,"","","<p style='font-size:30px'><b> New Contest! </b></p>","null","","",NA,6,"",NA,NA,NA,NA,NA,NA,NA,NA,NA,NA,NA,NA,NA,NA,NA,NA,NA,NA,NA,NA,NA,NA,NA,NA,NA,NA,NA,NA,NA,NA,NA,NA,NA,NA,NA,NA,NA,NA,NA,"",NA,NA,NA,NA,NA,NA,NA,NA,2025-11-21 01:03:54
"26522.20000001788","https://psyc-201.github.io/xiang2023/exp/index1.html?PROLIFIC_PID=REDACTED&STUDY_ID=691f8ca61c6b4dcbb0aeb5f4&SESSION_ID=691fb6537b922f3d581e7c50","survey-html-form",42,938805,"0.0-353.0","NlAVqOuzZg/b9CmGj0UXK9w2CkCM2vEr7f6X7Ptp6+koeGRtB3YexPUq6pzx9jC2KhGkOgQMIR8wR1CczaCIdHz8Gdt+5oHx+ybWHYGwPr+JRPJar7NQl0HlDWEE/TVpdt65fLB/SFcUohnyZq4tE4QFSdHRF7fFtwyts9qI6BeIioYZE6tp+7FGzKF72Z9SPXJW2XUzqGWkUEUvnDh/ugkrJvoCAPbUtZI8agWhZg4KWzf0fVqclIREtEJT93BJToh8kbsQNPL7dWoJ9rRDWPTzm9yFK+gMRX1EIQjrtK8VgaMhuOrvShyppYuS8JLBLv8xpxPfhfgdfytUVGHHLA==","691f8ca61c6b4dcbb0aeb5f4","691fb6537b922f3d581e7c50","index1","<span style='color:red'>Fail,<span style='color:red'>Fail,<span style='color:green'>Lift,<span style='color:green'>Lift,<span style='color:red'>Fail,<span style='color:red'>Fail,<span style='color:red'>Fail,<span style='color:red'>Fail,<span style='color:green'>Lift,<span style='color:red'>Fail,<span style='color:red'>Fail,<span style='color:green'>Lift","<span style='color:red'>Fail,<span style='color:red'>Fail,<span style='color:green'>Lift,<span style='color:green'>Lift,<span style='color:green'>Lift,<span style='color:green'>Lift,<span style='color:red'>Fail,<span style='color:green'>Lift,<span style='color:green'>Lift,<span style='color:green'>Lift,<span style='color:red'>Fail,<span style='color:green'>Lift","<span style='color:red'>Fail,<span style='color:green'>Lift,<span style='color:green'>Lift,<span style='color:red'>Fail,<span style='color:green'>Lift,<span style='color:green'>Lift","0,0,1,1,0,0,0,0,1,0,0,1","0,0,1,1,1,1,0,1,1,1,0,1","0,1,1,0,1,1",10,20,20,"","","","","{""box1"":""7"",""box2"":""3"",""box3"":""75""}","",NA,6,"round1_outcome",1,6,1,7,3,75,NA,1,0,10,7,3,75,NA,1,0,10,NA,NA,NA,NA,NA,NA,NA,NA,NA,NA,NA,NA,NA,NA,NA,NA,NA,NA,NA,NA,NA,NA,"",NA,NA,NA,NA,NA,NA,NA,NA,2025-11-21 01:03:54
"11853.90000000596","https://psyc-201.github.io/xiang2023/exp/index1.html?PROLIFIC_PID=REDACTED&STUDY_ID=691f8ca61c6b4dcbb0aeb5f4&SESSION_ID=691fb6537b922f3d581e7c50","survey-html-form",43,950662,"0.0-354.0","NlAVqOuzZg/b9CmGj0UXK9w2CkCM2vEr7f6X7Ptp6+koeGRtB3YexPUq6pzx9jC2KhGkOgQMIR8wR1CczaCIdHz8Gdt+5oHx+ybWHYGwPr+JRPJar7NQl0HlDWEE/TVpdt65fLB/SFcUohnyZq4tE4QFSdHRF7fFtwyts9qI6BeIioYZE6tp+7FGzKF72Z9SPXJW2XUzqGWkUEUvnDh/ugkrJvoCAPbUtZI8agWhZg4KWzf0fVqclIREtEJT93BJToh8kbsQNPL7dWoJ9rRDWPTzm9yFK+gMRX1EIQjrtK8VgaMhuOrvShyppYuS8JLBLv8xpxPfhfgdfytUVGHHLA==","691f8ca61c6b4dcbb0aeb5f4","691fb6537b922f3d581e7c50","index1","<span style='color:red'>Fail,<span style='color:red'>Fail,<span style='color:green'>Lift,<span style='color:green'>Lift,<span style='color:red'>Fail,<span style='color:red'>Fail,<span style='color:red'>Fail,<span style='color:red'>Fail,<span style='color:green'>Lift,<span style='color:red'>Fail,<span style='color:red'>Fail,<span style='color:green'>Lift","<span style='color:red'>Fail,<span style='color:red'>Fail,<span style='color:green'>Lift,<span style='color:green'>Lift,<span style='color:green'>Lift,<span style='color:green'>Lift,<span style='color:red'>Fail,<span style='color:green'>Lift,<span style='color:green'>Lift,<span style='color:green'>Lift,<span style='color:red'>Fail,<span style='color:green'>Lift","<span style='color:red'>Fail,<span style='color:green'>Lift,<span style='color:green'>Lift,<span style='color:red'>Fail,<span style='color:green'>Lift,<span style='color:green'>Lift","0,0,1,1,0,0,0,0,1,0,0,1","0,0,1,1,1,1,0,1,1,1,0,1","0,1,1,0,1,1",10,20,20,"","","","","{""box1"":""95"",""box2"":""40""}","",NA,6,"round2_ready",2,6,2,NA,NA,NA,NA,NA,NA,NA,NA,NA,NA,NA,NA,NA,NA,95,40,95,40,NA,NA,NA,NA,NA,NA,NA,NA,NA,NA,NA,NA,NA,NA,NA,NA,NA,NA,"",NA,NA,NA,NA,NA,NA,NA,NA,2025-11-21 01:03:54
"16034","https://psyc-201.github.io/xiang2023/exp/index1.html?PROLIFIC_PID=REDACTED&STUDY_ID=691f8ca61c6b4dcbb0aeb5f4&SESSION_ID=691fb6537b922f3d581e7c50","survey-html-form",44,966699,"0.0-355.0","NlAVqOuzZg/b9CmGj0UXK9w2CkCM2vEr7f6X7Ptp6+koeGRtB3YexPUq6pzx9jC2KhGkOgQMIR8wR1CczaCIdHz8Gdt+5oHx+ybWHYGwPr+JRPJar7NQl0HlDWEE/TVpdt65fLB/SFcUohnyZq4tE4QFSdHRF7fFtwyts9qI6BeIioYZE6tp+7FGzKF72Z9SPXJW2XUzqGWkUEUvnDh/ugkrJvoCAPbUtZI8agWhZg4KWzf0fVqclIREtEJT93BJToh8kbsQNPL7dWoJ9rRDWPTzm9yFK+gMRX1EIQjrtK8VgaMhuOrvShyppYuS8JLBLv8xpxPfhfgdfytUVGHHLA==","691f8ca61c6b4dcbb0aeb5f4","691fb6537b922f3d581e7c50","index1","<span style='color:red'>Fail,<span style='color:red'>Fail,<span style='color:green'>Lift,<span style='color:green'>Lift,<span style='color:red'>Fail,<span style='color:red'>Fail,<span style='color:red'>Fail,<span style='color:red'>Fail,<span style='color:green'>Lift,<span style='color:red'>Fail,<span style='color:red'>Fail,<span style='color:green'>Lift","<span style='color:red'>Fail,<span style='color:red'>Fail,<span style='color:green'>Lift,<span style='color:green'>Lift,<span style='color:green'>Lift,<span style='color:green'>Lift,<span style='color:red'>Fail,<span style='color:green'>Lift,<span style='color:green'>Lift,<span style='color:green'>Lift,<span style='color:red'>Fail,<span style='color:green'>Lift","<span style='color:red'>Fail,<span style='color:green'>Lift,<span style='color:green'>Lift,<span style='color:red'>Fail,<span style='color:green'>Lift,<span style='color:green'>Lift","0,0,1,1,0,0,0,0,1,0,0,1","0,0,1,1,1,1,0,1,1,1,0,1","0,1,1,0,1,1",10,20,20,"","","","","{""box1"":""7"",""box2"":""5"",""box3"":""80"",""box4"":""100""}","",NA,6,"round2_outcome",3,6,2,7,5,80,100,1,1,20,NA,NA,NA,NA,NA,NA,NA,NA,NA,NA,NA,7,5,80,100,1,1,20,NA,NA,NA,NA,NA,NA,NA,NA,NA,NA,NA,"",NA,NA,NA,NA,NA,NA,NA,NA,2025-11-21 01:03:54
"7832.0999999940395","https://psyc-201.github.io/xiang2023/exp/index1.html?PROLIFIC_PID=REDACTED&STUDY_ID=691f8ca61c6b4dcbb0aeb5f4&SESSION_ID=691fb6537b922f3d581e7c50","survey-html-form",45,974534,"0.0-356.0","NlAVqOuzZg/b9CmGj0UXK9w2CkCM2vEr7f6X7Ptp6+koeGRtB3YexPUq6pzx9jC2KhGkOgQMIR8wR1CczaCIdHz8Gdt+5oHx+ybWHYGwPr+JRPJar7NQl0HlDWEE/TVpdt65fLB/SFcUohnyZq4tE4QFSdHRF7fFtwyts9qI6BeIioYZE6tp+7FGzKF72Z9SPXJW2XUzqGWkUEUvnDh/ugkrJvoCAPbUtZI8agWhZg4KWzf0fVqclIREtEJT93BJToh8kbsQNPL7dWoJ9rRDWPTzm9yFK+gMRX1EIQjrtK8VgaMhuOrvShyppYuS8JLBLv8xpxPfhfgdfytUVGHHLA==","691f8ca61c6b4dcbb0aeb5f4","691fb6537b922f3d581e7c50","index1","<span style='color:red'>Fail,<span style='color:red'>Fail,<span style='color:green'>Lift,<span style='color:green'>Lift,<span style='color:red'>Fail,<span style='color:red'>Fail,<span style='color:red'>Fail,<span style='color:red'>Fail,<span style='color:green'>Lift,<span style='color:red'>Fail,<span style='color:red'>Fail,<span style='color:green'>Lift","<span style='color:red'>Fail,<span style='color:red'>Fail,<span style='color:green'>Lift,<span style='color:green'>Lift,<span style='color:green'>Lift,<span style='color:green'>Lift,<span style='color:red'>Fail,<span style='color:green'>Lift,<span style='color:green'>Lift,<span style='color:green'>Lift,<span style='color:red'>Fail,<span style='color:green'>Lift","<span style='color:red'>Fail,<span style='color:green'>Lift,<span style='color:green'>Lift,<span style='color:red'>Fail,<span style='color:green'>Lift,<span style='color:green'>Lift","0,0,1,1,0,0,0,0,1,0,0,1","0,0,1,1,1,1,0,1,1,1,0,1","0,1,1,0,1,1",10,20,20,"","","","","{""box1"":""95""}","",NA,6,"round3_ready",4,6,3,NA,NA,NA,NA,NA,NA,NA,NA,NA,NA,NA,NA,NA,NA,95,95,NA,NA,NA,NA,NA,NA,NA,NA,NA,95,95,NA,NA,NA,NA,NA,NA,NA,NA,NA,"",NA,NA,NA,NA,NA,NA,NA,NA,2025-11-21 01:03:54
"16692.600000023842","https://psyc-201.github.io/xiang2023/exp/index1.html?PROLIFIC_PID=REDACTED&STUDY_ID=691f8ca61c6b4dcbb0aeb5f4&SESSION_ID=691fb6537b922f3d581e7c50","survey-html-form",46,991230,"0.0-357.0-0.0","NlAVqOuzZg/b9CmGj0UXK9w2CkCM2vEr7f6X7Ptp6+koeGRtB3YexPUq6pzx9jC2KhGkOgQMIR8wR1CczaCIdHz8Gdt+5oHx+ybWHYGwPr+JRPJar7NQl0HlDWEE/TVpdt65fLB/SFcUohnyZq4tE4QFSdHRF7fFtwyts9qI6BeIioYZE6tp+7FGzKF72Z9SPXJW2XUzqGWkUEUvnDh/ugkrJvoCAPbUtZI8agWhZg4KWzf0fVqclIREtEJT93BJToh8kbsQNPL7dWoJ9rRDWPTzm9yFK+gMRX1EIQjrtK8VgaMhuOrvShyppYuS8JLBLv8xpxPfhfgdfytUVGHHLA==","691f8ca61c6b4dcbb0aeb5f4","691fb6537b922f3d581e7c50","index1","<span style='color:red'>Fail,<span style='color:red'>Fail,<span style='color:green'>Lift,<span style='color:green'>Lift,<span style='color:red'>Fail,<span style='color:red'>Fail,<span style='color:red'>Fail,<span style='color:red'>Fail,<span style='color:green'>Lift,<span style='color:red'>Fail,<span style='color:red'>Fail,<span style='color:green'>Lift","<span style='color:red'>Fail,<span style='color:red'>Fail,<span style='color:green'>Lift,<span style='color:green'>Lift,<span style='color:green'>Lift,<span style='color:green'>Lift,<span style='color:red'>Fail,<span style='color:green'>Lift,<span style='color:green'>Lift,<span style='color:green'>Lift,<span style='color:red'>Fail,<span style='color:green'>Lift","<span style='color:red'>Fail,<span style='color:green'>Lift,<span style='color:green'>Lift,<span style='color:red'>Fail,<span style='color:green'>Lift,<span style='color:green'>Lift","0,0,1,1,0,0,0,0,1,0,0,1","0,0,1,1,1,1,0,1,1,1,0,1","0,1,1,0,1,1",10,20,20,"","","","","{""box1"":""7"",""box2"":""5"",""box3"":""78"",""box4"":""82""}","",NA,6,"round3_lift",5,6,3,7,5,78,82,1,1,20,NA,NA,NA,NA,NA,NA,NA,NA,NA,NA,NA,NA,NA,NA,NA,NA,NA,NA,NA,NA,NA,NA,7,5,1,1,20,78,82,"",NA,NA,NA,NA,NA,NA,NA,NA,2025-11-21 01:03:54
"44836.5","https://psyc-201.github.io/xiang2023/exp/index1.html?PROLIFIC_PID=REDACTED&STUDY_ID=691f8ca61c6b4dcbb0aeb5f4&SESSION_ID=691fb6537b922f3d581e7c50","survey-text",47,1036072,"0.0-361.0","NlAVqOuzZg/b9CmGj0UXK9w2CkCM2vEr7f6X7Ptp6+koeGRtB3YexPUq6pzx9jC2KhGkOgQMIR8wR1CczaCIdHz8Gdt+5oHx+ybWHYGwPr+JRPJar7NQl0HlDWEE/TVpdt65fLB/SFcUohnyZq4tE4QFSdHRF7fFtwyts9qI6BeIioYZE6tp+7FGzKF72Z9SPXJW2XUzqGWkUEUvnDh/ugkrJvoCAPbUtZI8agWhZg4KWzf0fVqclIREtEJT93BJToh8kbsQNPL7dWoJ9rRDWPTzm9yFK+gMRX1EIQjrtK8VgaMhuOrvShyppYuS8JLBLv8xpxPfhfgdfytUVGHHLA==","691f8ca61c6b4dcbb0aeb5f4","691fb6537b922f3d581e7c50","index1","<span style='color:red'>Fail,<span style='color:red'>Fail,<span style='color:green'>Lift,<span style='color:green'>Lift,<span style='color:red'>Fail,<span style='color:red'>Fail,<span style='color:red'>Fail,<span style='color:red'>Fail,<span style='color:green'>Lift,<span style='color:red'>Fail,<span style='color:red'>Fail,<span style='color:green'>Lift","<span style='color:red'>Fail,<span style='color:red'>Fail,<span style='color:green'>Lift,<span style='color:green'>Lift,<span style='color:green'>Lift,<span style='color:green'>Lift,<span style='color:red'>Fail,<span style='color:green'>Lift,<span style='color:green'>Lift,<span style='color:green'>Lift,<span style='color:red'>Fail,<span style='color:green'>Lift","<span style='color:red'>Fail,<span style='color:green'>Lift,<span style='color:green'>Lift,<span style='color:red'>Fail,<span style='color:green'>Lift,<span style='color:green'>Lift","0,0,1,1,0,0,0,0,1,0,0,1","0,0,1,1,1,1,0,1,1,1,0,1","0,1,1,0,1,1",10,20,20,"","","","","{""Q0"":""I had to guess how strong each contestant was and how likely it was that they would lift a heavy box alone and together.""}","",NA,NA,"",NA,NA,NA,NA,NA,NA,NA,NA,NA,NA,NA,NA,NA,NA,NA,NA,NA,NA,NA,NA,NA,NA,NA,NA,NA,NA,NA,NA,NA,NA,NA,NA,NA,NA,NA,NA,NA,NA,NA,"",NA,NA,NA,NA,NA,NA,NA,NA,2025-11-21 01:03:54
"6014.0999999940395","https://psyc-201.github.io/xiang2023/exp/index1.html?PROLIFIC_PID=REDACTED&STUDY_ID=691f8ca61c6b4dcbb0aeb5f4&SESSION_ID=691fb6537b922f3d581e7c50","survey-text",48,1042091,"0.0-362.0","NlAVqOuzZg/b9CmGj0UXK9w2CkCM2vEr7f6X7Ptp6+koeGRtB3YexPUq6pzx9jC2KhGkOgQMIR8wR1CczaCIdHz8Gdt+5oHx+ybWHYGwPr+JRPJar7NQl0HlDWEE/TVpdt65fLB/SFcUohnyZq4tE4QFSdHRF7fFtwyts9qI6BeIioYZE6tp+7FGzKF72Z9SPXJW2XUzqGWkUEUvnDh/ugkrJvoCAPbUtZI8agWhZg4KWzf0fVqclIREtEJT93BJToh8kbsQNPL7dWoJ9rRDWPTzm9yFK+gMRX1EIQjrtK8VgaMhuOrvShyppYuS8JLBLv8xpxPfhfgdfytUVGHHLA==","691f8ca61c6b4dcbb0aeb5f4","691fb6537b922f3d581e7c50","index1","<span style='color:red'>Fail,<span style='color:red'>Fail,<span style='color:green'>Lift,<span style='color:green'>Lift,<span style='color:red'>Fail,<span style='color:red'>Fail,<span style='color:red'>Fail,<span style='color:red'>Fail,<span style='color:green'>Lift,<span style='color:red'>Fail,<span style='color:red'>Fail,<span style='color:green'>Lift","<span style='color:red'>Fail,<span style='color:red'>Fail,<span style='color:green'>Lift,<span style='color:green'>Lift,<span style='color:green'>Lift,<span style='color:green'>Lift,<span style='color:red'>Fail,<span style='color:green'>Lift,<span style='color:green'>Lift,<span style='color:green'>Lift,<span style='color:red'>Fail,<span style='color:green'>Lift","<span style='color:red'>Fail,<span style='color:green'>Lift,<span style='color:green'>Lift,<span style='color:red'>Fail,<span style='color:green'>Lift,<span style='color:green'>Lift","0,0,1,1,0,0,0,0,1,0,0,1","0,0,1,1,1,1,0,1,1,1,0,1","0,1,1,0,1,1",10,20,20,"","","","","{""Q0"":""""}","",NA,NA,"",NA,NA,NA,NA,NA,NA,NA,NA,NA,NA,NA,NA,NA,NA,NA,NA,NA,NA,NA,NA,NA,NA,NA,NA,NA,NA,NA,NA,NA,NA,NA,NA,NA,NA,NA,NA,NA,NA,NA,"[{""event"":""fullscreenenter"",""trial"":1,""time"":36513}]",5,2,1,50,1,0.5,NA,NA,2025-11-21 01:03:54
"7443","https://psyc-201.github.io/xiang2023/exp/index1.html?PROLIFIC_PID=REDACTED&STUDY_ID=691f8ca61c6b4dcbb0aeb5f4&SESSION_ID=691fb6537b922f3d581e7c50","html-button-response",49,1049538,"0.0-363.0","NlAVqOuzZg/b9CmGj0UXK9w2CkCM2vEr7f6X7Ptp6+koeGRtB3YexPUq6pzx9jC2KhGkOgQMIR8wR1CczaCIdHz8Gdt+5oHx+ybWHYGwPr+JRPJar7NQl0HlDWEE/TVpdt65fLB/SFcUohnyZq4tE4QFSdHRF7fFtwyts9qI6BeIioYZE6tp+7FGzKF72Z9SPXJW2XUzqGWkUEUvnDh/ugkrJvoCAPbUtZI8agWhZg4KWzf0fVqclIREtEJT93BJToh8kbsQNPL7dWoJ9rRDWPTzm9yFK+gMRX1EIQjrtK8VgaMhuOrvShyppYuS8JLBLv8xpxPfhfgdfytUVGHHLA==","691f8ca61c6b4dcbb0aeb5f4","691fb6537b922f3d581e7c50","index1","<span style='color:red'>Fail,<span style='color:red'>Fail,<span style='color:green'>Lift,<span style='color:green'>Lift,<span style='color:red'>Fail,<span style='color:red'>Fail,<span style='color:red'>Fail,<span style='color:red'>Fail,<span style='color:green'>Lift,<span style='color:red'>Fail,<span style='color:red'>Fail,<span style='color:green'>Lift","<span style='color:red'>Fail,<span style='color:red'>Fail,<span style='color:green'>Lift,<span style='color:green'>Lift,<span style='color:green'>Lift,<span style='color:green'>Lift,<span style='color:red'>Fail,<span style='color:green'>Lift,<span style='color:green'>Lift,<span style='color:green'>Lift,<span style='color:red'>Fail,<span style='color:green'>Lift","<span style='color:red'>Fail,<span style='color:green'>Lift,<span style='color:green'>Lift,<span style='color:red'>Fail,<span style='color:green'>Lift,<span style='color:green'>Lift","0,0,1,1,0,0,0,0,1,0,0,1","0,0,1,1,1,1,0,1,1,1,0,1","0,1,1,0,1,1",10,20,20,"","","<p> We randomly picked <b>Contest 5, Round 2</b> to calculate your bonus. </p><p> The outcome of Contestant J on that round is <span style='color:green'>Lift</span>. </p><p> The probability you entered was 50. </p><p><b> You won a bonus of $0.50!</b></p><p> IMPORTANT: Please click 'Next' to complete the game.</p>","","","",0,NA,"",NA,NA,NA,NA,NA,NA,NA,NA,NA,NA,NA,NA,NA,NA,NA,NA,NA,NA,NA,NA,NA,NA,NA,NA,NA,NA,NA,NA,NA,NA,NA,NA,NA,NA,NA,NA,NA,NA,NA,"",NA,NA,NA,NA,NA,NA,2,1,2025-11-21 01:03:54
