"rt","url","trial_type","trial_index","time_elapsed","internal_node_id","encryptedProlificId","studyId","sessionId","expIndex","round1_outcomes","round2_outcomes","round3_outcomes","round1_o","round2_o","round3_o","round1_reward","round2_reward","round3_reward","success","view_history","stimulus","key_press","responses","question_order","j","Stage","stage","contest","round","strength_a","strength_b","effort_a","effort_b","outcome_a","outcome_b","reward","r1_strength_a","r1_strength_b","r1_effort_a","r1_effort_b","r1_outcome_a","r1_outcome_b","r1_reward","probability_a","probability_b","r2_prob_a","r2_prob_b","r2_strength_a","r2_strength_b","r2_effort_a","r2_effort_b","r2_outcome_a","r2_outcome_b","r2_reward","r3_prob_a","r3_prob_b","r3_strength_a","r3_strength_b","r3_effort_a","r3_effort_b","r3_outcome_a","r3_outcome_b","r3_reward","attention_check","count","screen","pick_contest","pick_round","pick_side","trial_probability","trial_outcome","bonus","button_pressed","attention_sum","attention","datapipe_meta.attributes.date_modified"
"1491.1000000238419","https://psyc-201.github.io/xiang2023/exp/index1.html?PROLIFIC_PID=REDACTED&STUDY_ID=691f8ca61c6b4dcbb0aeb5f4&SESSION_ID=691fa9dd2c9bcc347268afb3","external-html",0,1493,"0.0-0.0","jr9Pk2a5zj3HefZeqzTA+c1nY8Mva1g8aLYbh+I8su+pyBXeqc6EwlcNYT6MEljnDFVXJF5ZVoYstgzihoKpY5xBzZQwqnKfXd1zpENwTpG2uBBAxbBPNqAG+7zwuoOJCOD9nKbYYhcdtEVapyL6u5JvCY4T1N5re0c7vX9TmIpb+kyDXauYsoXSNb1U5/9qMGdRKZH4+ifSsivgqiB96O7loAvfyvUxujaNOZrytD4RgLAgSiP5Pj0S8Tw2dWdR3hmXW2cYgEDP0PK/v8KJAkq7U+1Ue34kLfK3S1EMOQsJYhFQXNHe02cXlnQHFQKXdj2eSxL0QBLVAgmED9XfEQ==","691f8ca61c6b4dcbb0aeb5f4","691fa9dd2c9bcc347268afb3","index1","<span style='color:red'>Fail,<span style='color:red'>Fail,<span style='color:green'>Lift,<span style='color:green'>Lift,<span style='color:red'>Fail,<span style='color:red'>Fail,<span style='color:red'>Fail,<span style='color:red'>Fail,<span style='color:green'>Lift,<span style='color:red'>Fail,<span style='color:red'>Fail,<span style='color:green'>Lift","<span style='color:red'>Fail,<span style='color:red'>Fail,<span style='color:green'>Lift,<span style='color:green'>Lift,<span style='color:green'>Lift,<span style='color:green'>Lift,<span style='color:red'>Fail,<span style='color:green'>Lift,<span style='color:green'>Lift,<span style='color:green'>Lift,<span style='color:red'>Fail,<span style='color:green'>Lift","<span style='color:red'>Fail,<span style='color:green'>Lift,<span style='color:green'>Lift,<span style='color:red'>Fail,<span style='color:green'>Lift,<span style='color:green'>Lift","0,0,1,1,0,0,0,0,1,0,0,1","0,0,1,1,1,1,0,1,1,1,0,1","0,1,1,0,1,1",10,20,20,"","","","","","",NA,"",NA,NA,NA,NA,NA,NA,NA,NA,NA,NA,NA,NA,NA,NA,NA,NA,NA,NA,NA,NA,NA,NA,NA,NA,NA,NA,NA,NA,NA,NA,NA,NA,NA,NA,NA,NA,NA,NA,NA,"",NA,NA,NA,NA,NA,NA,NA,NA,NA,2025-11-21 00:07:10
"","https://psyc-201.github.io/xiang2023/exp/index1.html?PROLIFIC_PID=REDACTED&STUDY_ID=691f8ca61c6b4dcbb0aeb5f4&SESSION_ID=691fa9dd2c9bcc347268afb3","fullscreen",1,3568,"0.0-1.0","jr9Pk2a5zj3HefZeqzTA+c1nY8Mva1g8aLYbh+I8su+pyBXeqc6EwlcNYT6MEljnDFVXJF5ZVoYstgzihoKpY5xBzZQwqnKfXd1zpENwTpG2uBBAxbBPNqAG+7zwuoOJCOD9nKbYYhcdtEVapyL6u5JvCY4T1N5re0c7vX9TmIpb+kyDXauYsoXSNb1U5/9qMGdRKZH4+ifSsivgqiB96O7loAvfyvUxujaNOZrytD4RgLAgSiP5Pj0S8Tw2dWdR3hmXW2cYgEDP0PK/v8KJAkq7U+1Ue34kLfK3S1EMOQsJYhFQXNHe02cXlnQHFQKXdj2eSxL0QBLVAgmED9XfEQ==","691f8ca61c6b4dcbb0aeb5f4","691fa9dd2c9bcc347268afb3","index1","<span style='color:red'>Fail,<span style='color:red'>Fail,<span style='color:green'>Lift,<span style='color:green'>Lift,<span style='color:red'>Fail,<span style='color:red'>Fail,<span style='color:red'>Fail,<span style='color:red'>Fail,<span style='color:green'>Lift,<span style='color:red'>Fail,<span style='color:red'>Fail,<span style='color:green'>Lift","<span style='color:red'>Fail,<span style='color:red'>Fail,<span style='color:green'>Lift,<span style='color:green'>Lift,<span style='color:green'>Lift,<span style='color:green'>Lift,<span style='color:red'>Fail,<span style='color:green'>Lift,<span style='color:green'>Lift,<span style='color:green'>Lift,<span style='color:red'>Fail,<span style='color:green'>Lift","<span style='color:red'>Fail,<span style='color:green'>Lift,<span style='color:green'>Lift,<span style='color:red'>Fail,<span style='color:green'>Lift,<span style='color:green'>Lift","0,0,1,1,0,0,0,0,1,0,0,1","0,0,1,1,1,1,0,1,1,1,0,1","0,1,1,0,1,1",10,20,20,"true","","","","","",NA,"",NA,NA,NA,NA,NA,NA,NA,NA,NA,NA,NA,NA,NA,NA,NA,NA,NA,NA,NA,NA,NA,NA,NA,NA,NA,NA,NA,NA,NA,NA,NA,NA,NA,NA,NA,NA,NA,NA,NA,"",NA,NA,NA,NA,NA,NA,NA,NA,NA,2025-11-21 00:07:10
"28816.19999998808","https://psyc-201.github.io/xiang2023/exp/index1.html?PROLIFIC_PID=REDACTED&STUDY_ID=691f8ca61c6b4dcbb0aeb5f4&SESSION_ID=691fa9dd2c9bcc347268afb3","instructions",2,32385,"0.0-2.0","jr9Pk2a5zj3HefZeqzTA+c1nY8Mva1g8aLYbh+I8su+pyBXeqc6EwlcNYT6MEljnDFVXJF5ZVoYstgzihoKpY5xBzZQwqnKfXd1zpENwTpG2uBBAxbBPNqAG+7zwuoOJCOD9nKbYYhcdtEVapyL6u5JvCY4T1N5re0c7vX9TmIpb+kyDXauYsoXSNb1U5/9qMGdRKZH4+ifSsivgqiB96O7loAvfyvUxujaNOZrytD4RgLAgSiP5Pj0S8Tw2dWdR3hmXW2cYgEDP0PK/v8KJAkq7U+1Ue34kLfK3S1EMOQsJYhFQXNHe02cXlnQHFQKXdj2eSxL0QBLVAgmED9XfEQ==","691f8ca61c6b4dcbb0aeb5f4","691fa9dd2c9bcc347268afb3","index1","<span style='color:red'>Fail,<span style='color:red'>Fail,<span style='color:green'>Lift,<span style='color:green'>Lift,<span style='color:red'>Fail,<span style='color:red'>Fail,<span style='color:red'>Fail,<span style='color:red'>Fail,<span style='color:green'>Lift,<span style='color:red'>Fail,<span style='color:red'>Fail,<span style='color:green'>Lift","<span style='color:red'>Fail,<span style='color:red'>Fail,<span style='color:green'>Lift,<span style='color:green'>Lift,<span style='color:green'>Lift,<span style='color:green'>Lift,<span style='color:red'>Fail,<span style='color:green'>Lift,<span style='color:green'>Lift,<span style='color:green'>Lift,<span style='color:red'>Fail,<span style='color:green'>Lift","<span style='color:red'>Fail,<span style='color:green'>Lift,<span style='color:green'>Lift,<span style='color:red'>Fail,<span style='color:green'>Lift,<span style='color:green'>Lift","0,0,1,1,0,0,0,0,1,0,0,1","0,0,1,1,1,1,0,1,1,1,0,1","0,1,1,0,1,1",10,20,20,"","[{""page_index"":0,""viewing_time"":2648},{""page_index"":1,""viewing_time"":1153.300000011921},{""page_index"":2,""viewing_time"":4093.099999964237},{""page_index"":3,""viewing_time"":823.7000000476837},{""page_index"":4,""viewing_time"":1088.199999988079},{""page_index"":5,""viewing_time"":586.0999999642372},{""page_index"":6,""viewing_time"":1144.800000011921},{""page_index"":5,""viewing_time"":16129.800000011921},{""page_index"":6,""viewing_time"":1149}]","","","","",NA,"",NA,NA,NA,NA,NA,NA,NA,NA,NA,NA,NA,NA,NA,NA,NA,NA,NA,NA,NA,NA,NA,NA,NA,NA,NA,NA,NA,NA,NA,NA,NA,NA,NA,NA,NA,NA,NA,NA,NA,"",NA,NA,NA,NA,NA,NA,NA,NA,NA,2025-11-21 00:07:10
"null","https://psyc-201.github.io/xiang2023/exp/index1.html?PROLIFIC_PID=REDACTED&STUDY_ID=691f8ca61c6b4dcbb0aeb5f4&SESSION_ID=691fa9dd2c9bcc347268afb3","html-keyboard-response",3,33389,"0.0-3.0","jr9Pk2a5zj3HefZeqzTA+c1nY8Mva1g8aLYbh+I8su+pyBXeqc6EwlcNYT6MEljnDFVXJF5ZVoYstgzihoKpY5xBzZQwqnKfXd1zpENwTpG2uBBAxbBPNqAG+7zwuoOJCOD9nKbYYhcdtEVapyL6u5JvCY4T1N5re0c7vX9TmIpb+kyDXauYsoXSNb1U5/9qMGdRKZH4+ifSsivgqiB96O7loAvfyvUxujaNOZrytD4RgLAgSiP5Pj0S8Tw2dWdR3hmXW2cYgEDP0PK/v8KJAkq7U+1Ue34kLfK3S1EMOQsJYhFQXNHe02cXlnQHFQKXdj2eSxL0QBLVAgmED9XfEQ==","691f8ca61c6b4dcbb0aeb5f4","691fa9dd2c9bcc347268afb3","index1","<span style='color:red'>Fail,<span style='color:red'>Fail,<span style='color:green'>Lift,<span style='color:green'>Lift,<span style='color:red'>Fail,<span style='color:red'>Fail,<span style='color:red'>Fail,<span style='color:red'>Fail,<span style='color:green'>Lift,<span style='color:red'>Fail,<span style='color:red'>Fail,<span style='color:green'>Lift","<span style='color:red'>Fail,<span style='color:red'>Fail,<span style='color:green'>Lift,<span style='color:green'>Lift,<span style='color:green'>Lift,<span style='color:green'>Lift,<span style='color:red'>Fail,<span style='color:green'>Lift,<span style='color:green'>Lift,<span style='color:green'>Lift,<span style='color:red'>Fail,<span style='color:green'>Lift","<span style='color:red'>Fail,<span style='color:green'>Lift,<span style='color:green'>Lift,<span style='color:red'>Fail,<span style='color:green'>Lift,<span style='color:green'>Lift","0,0,1,1,0,0,0,0,1,0,0,1","0,0,1,1,1,1,0,1,1,1,0,1","0,1,1,0,1,1",10,20,20,"",""," ","null","","",NA,"",NA,NA,NA,NA,NA,NA,NA,NA,NA,NA,NA,NA,NA,NA,NA,NA,NA,NA,NA,NA,NA,NA,NA,NA,NA,NA,NA,NA,NA,NA,NA,NA,NA,NA,NA,NA,NA,NA,NA,"",NA,NA,NA,NA,NA,NA,NA,NA,NA,2025-11-21 00:07:10
"22302.100000023842","https://psyc-201.github.io/xiang2023/exp/index1.html?PROLIFIC_PID=REDACTED&STUDY_ID=691f8ca61c6b4dcbb0aeb5f4&SESSION_ID=691fa9dd2c9bcc347268afb3","survey-multi-choice",4,55692,"0.0-4.0","jr9Pk2a5zj3HefZeqzTA+c1nY8Mva1g8aLYbh+I8su+pyBXeqc6EwlcNYT6MEljnDFVXJF5ZVoYstgzihoKpY5xBzZQwqnKfXd1zpENwTpG2uBBAxbBPNqAG+7zwuoOJCOD9nKbYYhcdtEVapyL6u5JvCY4T1N5re0c7vX9TmIpb+kyDXauYsoXSNb1U5/9qMGdRKZH4+ifSsivgqiB96O7loAvfyvUxujaNOZrytD4RgLAgSiP5Pj0S8Tw2dWdR3hmXW2cYgEDP0PK/v8KJAkq7U+1Ue34kLfK3S1EMOQsJYhFQXNHe02cXlnQHFQKXdj2eSxL0QBLVAgmED9XfEQ==","691f8ca61c6b4dcbb0aeb5f4","691fa9dd2c9bcc347268afb3","index1","<span style='color:red'>Fail,<span style='color:red'>Fail,<span style='color:green'>Lift,<span style='color:green'>Lift,<span style='color:red'>Fail,<span style='color:red'>Fail,<span style='color:red'>Fail,<span style='color:red'>Fail,<span style='color:green'>Lift,<span style='color:red'>Fail,<span style='color:red'>Fail,<span style='color:green'>Lift","<span style='color:red'>Fail,<span style='color:red'>Fail,<span style='color:green'>Lift,<span style='color:green'>Lift,<span style='color:green'>Lift,<span style='color:green'>Lift,<span style='color:red'>Fail,<span style='color:green'>Lift,<span style='color:green'>Lift,<span style='color:green'>Lift,<span style='color:red'>Fail,<span style='color:green'>Lift","<span style='color:red'>Fail,<span style='color:green'>Lift,<span style='color:green'>Lift,<span style='color:red'>Fail,<span style='color:green'>Lift,<span style='color:green'>Lift","0,0,1,1,0,0,0,0,1,0,0,1","0,0,1,1,1,1,0,1,1,1,0,1","0,1,1,0,1,1",10,20,20,"","","","","{""Q0"":""It consists of multiple contests, each contest with three rounds."",""Q1"":""When a new contest begins."",""Q2"":""The box weight always stays the same (equivalent to strength of 5)."",""Q3"":""Each will get $20."",""Q4"":""How close my guesses are to the actual outcome.""}","[0,1,2,3,4]",NA,"",NA,NA,NA,NA,NA,NA,NA,NA,NA,NA,NA,NA,NA,NA,NA,NA,NA,NA,NA,NA,NA,NA,NA,NA,NA,NA,NA,NA,NA,NA,NA,NA,NA,NA,NA,NA,NA,NA,NA,"",NA,NA,NA,NA,NA,NA,NA,NA,NA,2025-11-21 00:07:10
"7139.599999964237","https://psyc-201.github.io/xiang2023/exp/index1.html?PROLIFIC_PID=REDACTED&STUDY_ID=691f8ca61c6b4dcbb0aeb5f4&SESSION_ID=691fa9dd2c9bcc347268afb3","instructions",5,62833,"0.0-305.0","jr9Pk2a5zj3HefZeqzTA+c1nY8Mva1g8aLYbh+I8su+pyBXeqc6EwlcNYT6MEljnDFVXJF5ZVoYstgzihoKpY5xBzZQwqnKfXd1zpENwTpG2uBBAxbBPNqAG+7zwuoOJCOD9nKbYYhcdtEVapyL6u5JvCY4T1N5re0c7vX9TmIpb+kyDXauYsoXSNb1U5/9qMGdRKZH4+ifSsivgqiB96O7loAvfyvUxujaNOZrytD4RgLAgSiP5Pj0S8Tw2dWdR3hmXW2cYgEDP0PK/v8KJAkq7U+1Ue34kLfK3S1EMOQsJYhFQXNHe02cXlnQHFQKXdj2eSxL0QBLVAgmED9XfEQ==","691f8ca61c6b4dcbb0aeb5f4","691fa9dd2c9bcc347268afb3","index1","<span style='color:red'>Fail,<span style='color:red'>Fail,<span style='color:green'>Lift,<span style='color:green'>Lift,<span style='color:red'>Fail,<span style='color:red'>Fail,<span style='color:red'>Fail,<span style='color:red'>Fail,<span style='color:green'>Lift,<span style='color:red'>Fail,<span style='color:red'>Fail,<span style='color:green'>Lift","<span style='color:red'>Fail,<span style='color:red'>Fail,<span style='color:green'>Lift,<span style='color:green'>Lift,<span style='color:green'>Lift,<span style='color:green'>Lift,<span style='color:red'>Fail,<span style='color:green'>Lift,<span style='color:green'>Lift,<span style='color:green'>Lift,<span style='color:red'>Fail,<span style='color:green'>Lift","<span style='color:red'>Fail,<span style='color:green'>Lift,<span style='color:green'>Lift,<span style='color:red'>Fail,<span style='color:green'>Lift,<span style='color:green'>Lift","0,0,1,1,0,0,0,0,1,0,0,1","0,0,1,1,1,1,0,1,1,1,0,1","0,1,1,0,1,1",10,20,20,"","[{""page_index"":0,""viewing_time"":4773.399999976158},{""page_index"":1,""viewing_time"":2366.100000023842}]","","","","",NA,"",NA,NA,NA,NA,NA,NA,NA,NA,NA,NA,NA,NA,NA,NA,NA,NA,NA,NA,NA,NA,NA,NA,NA,NA,NA,NA,NA,NA,NA,NA,NA,NA,NA,NA,NA,NA,NA,NA,NA,"",NA,NA,NA,NA,NA,NA,NA,NA,NA,2025-11-21 00:07:10
"null","https://psyc-201.github.io/xiang2023/exp/index1.html?PROLIFIC_PID=REDACTED&STUDY_ID=691f8ca61c6b4dcbb0aeb5f4&SESSION_ID=691fa9dd2c9bcc347268afb3","html-keyboard-response",6,63835,"0.0-306.0","jr9Pk2a5zj3HefZeqzTA+c1nY8Mva1g8aLYbh+I8su+pyBXeqc6EwlcNYT6MEljnDFVXJF5ZVoYstgzihoKpY5xBzZQwqnKfXd1zpENwTpG2uBBAxbBPNqAG+7zwuoOJCOD9nKbYYhcdtEVapyL6u5JvCY4T1N5re0c7vX9TmIpb+kyDXauYsoXSNb1U5/9qMGdRKZH4+ifSsivgqiB96O7loAvfyvUxujaNOZrytD4RgLAgSiP5Pj0S8Tw2dWdR3hmXW2cYgEDP0PK/v8KJAkq7U+1Ue34kLfK3S1EMOQsJYhFQXNHe02cXlnQHFQKXdj2eSxL0QBLVAgmED9XfEQ==","691f8ca61c6b4dcbb0aeb5f4","691fa9dd2c9bcc347268afb3","index1","<span style='color:red'>Fail,<span style='color:red'>Fail,<span style='color:green'>Lift,<span style='color:green'>Lift,<span style='color:red'>Fail,<span style='color:red'>Fail,<span style='color:red'>Fail,<span style='color:red'>Fail,<span style='color:green'>Lift,<span style='color:red'>Fail,<span style='color:red'>Fail,<span style='color:green'>Lift","<span style='color:red'>Fail,<span style='color:red'>Fail,<span style='color:green'>Lift,<span style='color:green'>Lift,<span style='color:green'>Lift,<span style='color:green'>Lift,<span style='color:red'>Fail,<span style='color:green'>Lift,<span style='color:green'>Lift,<span style='color:green'>Lift,<span style='color:red'>Fail,<span style='color:green'>Lift","<span style='color:red'>Fail,<span style='color:green'>Lift,<span style='color:green'>Lift,<span style='color:red'>Fail,<span style='color:green'>Lift,<span style='color:green'>Lift","0,0,1,1,0,0,0,0,1,0,0,1","0,0,1,1,1,1,0,1,1,1,0,1","0,1,1,0,1,1",10,20,20,"",""," ","null","","",1,"",NA,NA,NA,NA,NA,NA,NA,NA,NA,NA,NA,NA,NA,NA,NA,NA,NA,NA,NA,NA,NA,NA,NA,NA,NA,NA,NA,NA,NA,NA,NA,NA,NA,NA,NA,NA,NA,NA,NA,"",NA,NA,NA,NA,NA,NA,NA,NA,NA,2025-11-21 00:07:10
"null","https://psyc-201.github.io/xiang2023/exp/index1.html?PROLIFIC_PID=REDACTED&STUDY_ID=691f8ca61c6b4dcbb0aeb5f4&SESSION_ID=691fa9dd2c9bcc347268afb3","html-keyboard-response",7,66842,"0.0-307.0","jr9Pk2a5zj3HefZeqzTA+c1nY8Mva1g8aLYbh+I8su+pyBXeqc6EwlcNYT6MEljnDFVXJF5ZVoYstgzihoKpY5xBzZQwqnKfXd1zpENwTpG2uBBAxbBPNqAG+7zwuoOJCOD9nKbYYhcdtEVapyL6u5JvCY4T1N5re0c7vX9TmIpb+kyDXauYsoXSNb1U5/9qMGdRKZH4+ifSsivgqiB96O7loAvfyvUxujaNOZrytD4RgLAgSiP5Pj0S8Tw2dWdR3hmXW2cYgEDP0PK/v8KJAkq7U+1Ue34kLfK3S1EMOQsJYhFQXNHe02cXlnQHFQKXdj2eSxL0QBLVAgmED9XfEQ==","691f8ca61c6b4dcbb0aeb5f4","691fa9dd2c9bcc347268afb3","index1","<span style='color:red'>Fail,<span style='color:red'>Fail,<span style='color:green'>Lift,<span style='color:green'>Lift,<span style='color:red'>Fail,<span style='color:red'>Fail,<span style='color:red'>Fail,<span style='color:red'>Fail,<span style='color:green'>Lift,<span style='color:red'>Fail,<span style='color:red'>Fail,<span style='color:green'>Lift","<span style='color:red'>Fail,<span style='color:red'>Fail,<span style='color:green'>Lift,<span style='color:green'>Lift,<span style='color:green'>Lift,<span style='color:green'>Lift,<span style='color:red'>Fail,<span style='color:green'>Lift,<span style='color:green'>Lift,<span style='color:green'>Lift,<span style='color:red'>Fail,<span style='color:green'>Lift","<span style='color:red'>Fail,<span style='color:green'>Lift,<span style='color:green'>Lift,<span style='color:red'>Fail,<span style='color:green'>Lift,<span style='color:green'>Lift","0,0,1,1,0,0,0,0,1,0,0,1","0,0,1,1,1,1,0,1,1,1,0,1","0,1,1,0,1,1",10,20,20,"","","<p style='font-size:30px'><b> New Contest! </b></p>","null","","",1,"",NA,NA,NA,NA,NA,NA,NA,NA,NA,NA,NA,NA,NA,NA,NA,NA,NA,NA,NA,NA,NA,NA,NA,NA,NA,NA,NA,NA,NA,NA,NA,NA,NA,NA,NA,NA,NA,NA,NA,"",NA,NA,NA,NA,NA,NA,NA,NA,NA,2025-11-21 00:07:10
"23720.600000023842","https://psyc-201.github.io/xiang2023/exp/index1.html?PROLIFIC_PID=REDACTED&STUDY_ID=691f8ca61c6b4dcbb0aeb5f4&SESSION_ID=691fa9dd2c9bcc347268afb3","survey-html-form",8,90564,"0.0-308.0","jr9Pk2a5zj3HefZeqzTA+c1nY8Mva1g8aLYbh+I8su+pyBXeqc6EwlcNYT6MEljnDFVXJF5ZVoYstgzihoKpY5xBzZQwqnKfXd1zpENwTpG2uBBAxbBPNqAG+7zwuoOJCOD9nKbYYhcdtEVapyL6u5JvCY4T1N5re0c7vX9TmIpb+kyDXauYsoXSNb1U5/9qMGdRKZH4+ifSsivgqiB96O7loAvfyvUxujaNOZrytD4RgLAgSiP5Pj0S8Tw2dWdR3hmXW2cYgEDP0PK/v8KJAkq7U+1Ue34kLfK3S1EMOQsJYhFQXNHe02cXlnQHFQKXdj2eSxL0QBLVAgmED9XfEQ==","691f8ca61c6b4dcbb0aeb5f4","691fa9dd2c9bcc347268afb3","index1","<span style='color:red'>Fail,<span style='color:red'>Fail,<span style='color:green'>Lift,<span style='color:green'>Lift,<span style='color:red'>Fail,<span style='color:red'>Fail,<span style='color:red'>Fail,<span style='color:red'>Fail,<span style='color:green'>Lift,<span style='color:red'>Fail,<span style='color:red'>Fail,<span style='color:green'>Lift","<span style='color:red'>Fail,<span style='color:red'>Fail,<span style='color:green'>Lift,<span style='color:green'>Lift,<span style='color:green'>Lift,<span style='color:green'>Lift,<span style='color:red'>Fail,<span style='color:green'>Lift,<span style='color:green'>Lift,<span style='color:green'>Lift,<span style='color:red'>Fail,<span style='color:green'>Lift","<span style='color:red'>Fail,<span style='color:green'>Lift,<span style='color:green'>Lift,<span style='color:red'>Fail,<span style='color:green'>Lift,<span style='color:green'>Lift","0,0,1,1,0,0,0,0,1,0,0,1","0,0,1,1,1,1,0,1,1,1,0,1","0,1,1,0,1,1",10,20,20,"","","","","{""box1"":""6"",""box2"":""6"",""box3"":""50"",""box4"":""50""}","",1,"round1_outcome",1,1,1,6,6,50,50,1,1,10,6,6,50,50,1,1,10,NA,NA,NA,NA,NA,NA,NA,NA,NA,NA,NA,NA,NA,NA,NA,NA,NA,NA,NA,NA,NA,NA,"",NA,NA,NA,NA,NA,NA,NA,NA,NA,2025-11-21 00:07:10
"9854.099999964237","https://psyc-201.github.io/xiang2023/exp/index1.html?PROLIFIC_PID=REDACTED&STUDY_ID=691f8ca61c6b4dcbb0aeb5f4&SESSION_ID=691fa9dd2c9bcc347268afb3","survey-html-form",9,100419,"0.0-309.0","jr9Pk2a5zj3HefZeqzTA+c1nY8Mva1g8aLYbh+I8su+pyBXeqc6EwlcNYT6MEljnDFVXJF5ZVoYstgzihoKpY5xBzZQwqnKfXd1zpENwTpG2uBBAxbBPNqAG+7zwuoOJCOD9nKbYYhcdtEVapyL6u5JvCY4T1N5re0c7vX9TmIpb+kyDXauYsoXSNb1U5/9qMGdRKZH4+ifSsivgqiB96O7loAvfyvUxujaNOZrytD4RgLAgSiP5Pj0S8Tw2dWdR3hmXW2cYgEDP0PK/v8KJAkq7U+1Ue34kLfK3S1EMOQsJYhFQXNHe02cXlnQHFQKXdj2eSxL0QBLVAgmED9XfEQ==","691f8ca61c6b4dcbb0aeb5f4","691fa9dd2c9bcc347268afb3","index1","<span style='color:red'>Fail,<span style='color:red'>Fail,<span style='color:green'>Lift,<span style='color:green'>Lift,<span style='color:red'>Fail,<span style='color:red'>Fail,<span style='color:red'>Fail,<span style='color:red'>Fail,<span style='color:green'>Lift,<span style='color:red'>Fail,<span style='color:red'>Fail,<span style='color:green'>Lift","<span style='color:red'>Fail,<span style='color:red'>Fail,<span style='color:green'>Lift,<span style='color:green'>Lift,<span style='color:green'>Lift,<span style='color:green'>Lift,<span style='color:red'>Fail,<span style='color:green'>Lift,<span style='color:green'>Lift,<span style='color:green'>Lift,<span style='color:red'>Fail,<span style='color:green'>Lift","<span style='color:red'>Fail,<span style='color:green'>Lift,<span style='color:green'>Lift,<span style='color:red'>Fail,<span style='color:green'>Lift,<span style='color:green'>Lift","0,0,1,1,0,0,0,0,1,0,0,1","0,0,1,1,1,1,0,1,1,1,0,1","0,1,1,0,1,1",10,20,20,"","","","","{""box1"":""90"",""box2"":""90""}","",1,"round2_ready",2,1,2,NA,NA,NA,NA,NA,NA,NA,NA,NA,NA,NA,NA,NA,NA,90,90,90,90,NA,NA,NA,NA,NA,NA,NA,NA,NA,NA,NA,NA,NA,NA,NA,NA,NA,NA,"",NA,NA,NA,NA,NA,NA,NA,NA,NA,2025-11-21 00:07:10
"27291","https://psyc-201.github.io/xiang2023/exp/index1.html?PROLIFIC_PID=REDACTED&STUDY_ID=691f8ca61c6b4dcbb0aeb5f4&SESSION_ID=691fa9dd2c9bcc347268afb3","survey-html-form",10,127711,"0.0-310.0","jr9Pk2a5zj3HefZeqzTA+c1nY8Mva1g8aLYbh+I8su+pyBXeqc6EwlcNYT6MEljnDFVXJF5ZVoYstgzihoKpY5xBzZQwqnKfXd1zpENwTpG2uBBAxbBPNqAG+7zwuoOJCOD9nKbYYhcdtEVapyL6u5JvCY4T1N5re0c7vX9TmIpb+kyDXauYsoXSNb1U5/9qMGdRKZH4+ifSsivgqiB96O7loAvfyvUxujaNOZrytD4RgLAgSiP5Pj0S8Tw2dWdR3hmXW2cYgEDP0PK/v8KJAkq7U+1Ue34kLfK3S1EMOQsJYhFQXNHe02cXlnQHFQKXdj2eSxL0QBLVAgmED9XfEQ==","691f8ca61c6b4dcbb0aeb5f4","691fa9dd2c9bcc347268afb3","index1","<span style='color:red'>Fail,<span style='color:red'>Fail,<span style='color:green'>Lift,<span style='color:green'>Lift,<span style='color:red'>Fail,<span style='color:red'>Fail,<span style='color:red'>Fail,<span style='color:red'>Fail,<span style='color:green'>Lift,<span style='color:red'>Fail,<span style='color:red'>Fail,<span style='color:green'>Lift","<span style='color:red'>Fail,<span style='color:red'>Fail,<span style='color:green'>Lift,<span style='color:green'>Lift,<span style='color:green'>Lift,<span style='color:green'>Lift,<span style='color:red'>Fail,<span style='color:green'>Lift,<span style='color:green'>Lift,<span style='color:green'>Lift,<span style='color:red'>Fail,<span style='color:green'>Lift","<span style='color:red'>Fail,<span style='color:green'>Lift,<span style='color:green'>Lift,<span style='color:red'>Fail,<span style='color:green'>Lift,<span style='color:green'>Lift","0,0,1,1,0,0,0,0,1,0,0,1","0,0,1,1,1,1,0,1,1,1,0,1","0,1,1,0,1,1",10,20,20,"","","","","{""box1"":""6"",""box2"":""6"",""box3"":""50"",""box4"":""50""}","",1,"round2_outcome",3,1,2,6,6,50,50,1,1,20,NA,NA,NA,NA,NA,NA,NA,NA,NA,NA,NA,6,6,50,50,1,1,20,NA,NA,NA,NA,NA,NA,NA,NA,NA,NA,NA,"",NA,NA,NA,NA,NA,NA,NA,NA,NA,2025-11-21 00:07:10
"4728.399999976158","https://psyc-201.github.io/xiang2023/exp/index1.html?PROLIFIC_PID=REDACTED&STUDY_ID=691f8ca61c6b4dcbb0aeb5f4&SESSION_ID=691fa9dd2c9bcc347268afb3","survey-html-form",11,132440,"0.0-311.0","jr9Pk2a5zj3HefZeqzTA+c1nY8Mva1g8aLYbh+I8su+pyBXeqc6EwlcNYT6MEljnDFVXJF5ZVoYstgzihoKpY5xBzZQwqnKfXd1zpENwTpG2uBBAxbBPNqAG+7zwuoOJCOD9nKbYYhcdtEVapyL6u5JvCY4T1N5re0c7vX9TmIpb+kyDXauYsoXSNb1U5/9qMGdRKZH4+ifSsivgqiB96O7loAvfyvUxujaNOZrytD4RgLAgSiP5Pj0S8Tw2dWdR3hmXW2cYgEDP0PK/v8KJAkq7U+1Ue34kLfK3S1EMOQsJYhFQXNHe02cXlnQHFQKXdj2eSxL0QBLVAgmED9XfEQ==","691f8ca61c6b4dcbb0aeb5f4","691fa9dd2c9bcc347268afb3","index1","<span style='color:red'>Fail,<span style='color:red'>Fail,<span style='color:green'>Lift,<span style='color:green'>Lift,<span style='color:red'>Fail,<span style='color:red'>Fail,<span style='color:red'>Fail,<span style='color:red'>Fail,<span style='color:green'>Lift,<span style='color:red'>Fail,<span style='color:red'>Fail,<span style='color:green'>Lift","<span style='color:red'>Fail,<span style='color:red'>Fail,<span style='color:green'>Lift,<span style='color:green'>Lift,<span style='color:green'>Lift,<span style='color:green'>Lift,<span style='color:red'>Fail,<span style='color:green'>Lift,<span style='color:green'>Lift,<span style='color:green'>Lift,<span style='color:red'>Fail,<span style='color:green'>Lift","<span style='color:red'>Fail,<span style='color:green'>Lift,<span style='color:green'>Lift,<span style='color:red'>Fail,<span style='color:green'>Lift,<span style='color:green'>Lift","0,0,1,1,0,0,0,0,1,0,0,1","0,0,1,1,1,1,0,1,1,1,0,1","0,1,1,0,1,1",10,20,20,"","","","","{""box1"":""95""}","",1,"round3_ready",4,1,3,NA,NA,NA,NA,NA,NA,NA,NA,NA,NA,NA,NA,NA,NA,95,95,NA,NA,NA,NA,NA,NA,NA,NA,NA,95,95,NA,NA,NA,NA,NA,NA,NA,NA,NA,"",NA,NA,NA,NA,NA,NA,NA,NA,NA,2025-11-21 00:07:10
"10868.699999988079","https://psyc-201.github.io/xiang2023/exp/index1.html?PROLIFIC_PID=REDACTED&STUDY_ID=691f8ca61c6b4dcbb0aeb5f4&SESSION_ID=691fa9dd2c9bcc347268afb3","survey-html-form",12,143310,"0.0-312.0-0.0","jr9Pk2a5zj3HefZeqzTA+c1nY8Mva1g8aLYbh+I8su+pyBXeqc6EwlcNYT6MEljnDFVXJF5ZVoYstgzihoKpY5xBzZQwqnKfXd1zpENwTpG2uBBAxbBPNqAG+7zwuoOJCOD9nKbYYhcdtEVapyL6u5JvCY4T1N5re0c7vX9TmIpb+kyDXauYsoXSNb1U5/9qMGdRKZH4+ifSsivgqiB96O7loAvfyvUxujaNOZrytD4RgLAgSiP5Pj0S8Tw2dWdR3hmXW2cYgEDP0PK/v8KJAkq7U+1Ue34kLfK3S1EMOQsJYhFQXNHe02cXlnQHFQKXdj2eSxL0QBLVAgmED9XfEQ==","691f8ca61c6b4dcbb0aeb5f4","691fa9dd2c9bcc347268afb3","index1","<span style='color:red'>Fail,<span style='color:red'>Fail,<span style='color:green'>Lift,<span style='color:green'>Lift,<span style='color:red'>Fail,<span style='color:red'>Fail,<span style='color:red'>Fail,<span style='color:red'>Fail,<span style='color:green'>Lift,<span style='color:red'>Fail,<span style='color:red'>Fail,<span style='color:green'>Lift","<span style='color:red'>Fail,<span style='color:red'>Fail,<span style='color:green'>Lift,<span style='color:green'>Lift,<span style='color:green'>Lift,<span style='color:green'>Lift,<span style='color:red'>Fail,<span style='color:green'>Lift,<span style='color:green'>Lift,<span style='color:green'>Lift,<span style='color:red'>Fail,<span style='color:green'>Lift","<span style='color:red'>Fail,<span style='color:green'>Lift,<span style='color:green'>Lift,<span style='color:red'>Fail,<span style='color:green'>Lift,<span style='color:green'>Lift","0,0,1,1,0,0,0,0,1,0,0,1","0,0,1,1,1,1,0,1,1,1,0,1","0,1,1,0,1,1",10,20,20,"","","","","{""box1"":""6"",""box2"":""6"",""box3"":""50"",""box4"":""50""}","",2,"round3_lift",5,1,3,6,6,50,50,1,1,20,NA,NA,NA,NA,NA,NA,NA,NA,NA,NA,NA,NA,NA,NA,NA,NA,NA,NA,NA,NA,6,6,50,50,1,1,20,NA,NA,"",NA,NA,NA,NA,NA,NA,NA,NA,NA,2025-11-21 00:07:10
"null","https://psyc-201.github.io/xiang2023/exp/index1.html?PROLIFIC_PID=REDACTED&STUDY_ID=691f8ca61c6b4dcbb0aeb5f4&SESSION_ID=691fa9dd2c9bcc347268afb3","html-keyboard-response",13,146321,"0.0-316.0","jr9Pk2a5zj3HefZeqzTA+c1nY8Mva1g8aLYbh+I8su+pyBXeqc6EwlcNYT6MEljnDFVXJF5ZVoYstgzihoKpY5xBzZQwqnKfXd1zpENwTpG2uBBAxbBPNqAG+7zwuoOJCOD9nKbYYhcdtEVapyL6u5JvCY4T1N5re0c7vX9TmIpb+kyDXauYsoXSNb1U5/9qMGdRKZH4+ifSsivgqiB96O7loAvfyvUxujaNOZrytD4RgLAgSiP5Pj0S8Tw2dWdR3hmXW2cYgEDP0PK/v8KJAkq7U+1Ue34kLfK3S1EMOQsJYhFQXNHe02cXlnQHFQKXdj2eSxL0QBLVAgmED9XfEQ==","691f8ca61c6b4dcbb0aeb5f4","691fa9dd2c9bcc347268afb3","index1","<span style='color:red'>Fail,<span style='color:red'>Fail,<span style='color:green'>Lift,<span style='color:green'>Lift,<span style='color:red'>Fail,<span style='color:red'>Fail,<span style='color:red'>Fail,<span style='color:red'>Fail,<span style='color:green'>Lift,<span style='color:red'>Fail,<span style='color:red'>Fail,<span style='color:green'>Lift","<span style='color:red'>Fail,<span style='color:red'>Fail,<span style='color:green'>Lift,<span style='color:green'>Lift,<span style='color:green'>Lift,<span style='color:green'>Lift,<span style='color:red'>Fail,<span style='color:green'>Lift,<span style='color:green'>Lift,<span style='color:green'>Lift,<span style='color:red'>Fail,<span style='color:green'>Lift","<span style='color:red'>Fail,<span style='color:green'>Lift,<span style='color:green'>Lift,<span style='color:red'>Fail,<span style='color:green'>Lift,<span style='color:green'>Lift","0,0,1,1,0,0,0,0,1,0,0,1","0,0,1,1,1,1,0,1,1,1,0,1","0,1,1,0,1,1",10,20,20,"","","<p style='font-size:30px'><b> New Contest! </b></p>","null","","",2,"",NA,NA,NA,NA,NA,NA,NA,NA,NA,NA,NA,NA,NA,NA,NA,NA,NA,NA,NA,NA,NA,NA,NA,NA,NA,NA,NA,NA,NA,NA,NA,NA,NA,NA,NA,NA,NA,NA,NA,"",NA,NA,NA,NA,NA,NA,NA,NA,NA,2025-11-21 00:07:10
"13618.699999988079","https://psyc-201.github.io/xiang2023/exp/index1.html?PROLIFIC_PID=REDACTED&STUDY_ID=691f8ca61c6b4dcbb0aeb5f4&SESSION_ID=691fa9dd2c9bcc347268afb3","survey-html-form",14,159940,"0.0-317.0","jr9Pk2a5zj3HefZeqzTA+c1nY8Mva1g8aLYbh+I8su+pyBXeqc6EwlcNYT6MEljnDFVXJF5ZVoYstgzihoKpY5xBzZQwqnKfXd1zpENwTpG2uBBAxbBPNqAG+7zwuoOJCOD9nKbYYhcdtEVapyL6u5JvCY4T1N5re0c7vX9TmIpb+kyDXauYsoXSNb1U5/9qMGdRKZH4+ifSsivgqiB96O7loAvfyvUxujaNOZrytD4RgLAgSiP5Pj0S8Tw2dWdR3hmXW2cYgEDP0PK/v8KJAkq7U+1Ue34kLfK3S1EMOQsJYhFQXNHe02cXlnQHFQKXdj2eSxL0QBLVAgmED9XfEQ==","691f8ca61c6b4dcbb0aeb5f4","691fa9dd2c9bcc347268afb3","index1","<span style='color:red'>Fail,<span style='color:red'>Fail,<span style='color:green'>Lift,<span style='color:green'>Lift,<span style='color:red'>Fail,<span style='color:red'>Fail,<span style='color:red'>Fail,<span style='color:red'>Fail,<span style='color:green'>Lift,<span style='color:red'>Fail,<span style='color:red'>Fail,<span style='color:green'>Lift","<span style='color:red'>Fail,<span style='color:red'>Fail,<span style='color:green'>Lift,<span style='color:green'>Lift,<span style='color:green'>Lift,<span style='color:green'>Lift,<span style='color:red'>Fail,<span style='color:green'>Lift,<span style='color:green'>Lift,<span style='color:green'>Lift,<span style='color:red'>Fail,<span style='color:green'>Lift","<span style='color:red'>Fail,<span style='color:green'>Lift,<span style='color:green'>Lift,<span style='color:red'>Fail,<span style='color:green'>Lift,<span style='color:green'>Lift","0,0,1,1,0,0,0,0,1,0,0,1","0,0,1,1,1,1,0,1,1,1,0,1","0,1,1,0,1,1",10,20,20,"","","","","{""box1"":""3"",""box2"":""6"",""box4"":""50""}","",2,"round1_outcome",1,2,1,3,6,NA,50,0,1,10,3,6,NA,50,0,1,10,NA,NA,NA,NA,NA,NA,NA,NA,NA,NA,NA,NA,NA,NA,NA,NA,NA,NA,NA,NA,NA,NA,"",NA,NA,NA,NA,NA,NA,NA,NA,NA,2025-11-21 00:07:10
"12406.199999988079","https://psyc-201.github.io/xiang2023/exp/index1.html?PROLIFIC_PID=REDACTED&STUDY_ID=691f8ca61c6b4dcbb0aeb5f4&SESSION_ID=691fa9dd2c9bcc347268afb3","survey-html-form",15,172347,"0.0-318.0","jr9Pk2a5zj3HefZeqzTA+c1nY8Mva1g8aLYbh+I8su+pyBXeqc6EwlcNYT6MEljnDFVXJF5ZVoYstgzihoKpY5xBzZQwqnKfXd1zpENwTpG2uBBAxbBPNqAG+7zwuoOJCOD9nKbYYhcdtEVapyL6u5JvCY4T1N5re0c7vX9TmIpb+kyDXauYsoXSNb1U5/9qMGdRKZH4+ifSsivgqiB96O7loAvfyvUxujaNOZrytD4RgLAgSiP5Pj0S8Tw2dWdR3hmXW2cYgEDP0PK/v8KJAkq7U+1Ue34kLfK3S1EMOQsJYhFQXNHe02cXlnQHFQKXdj2eSxL0QBLVAgmED9XfEQ==","691f8ca61c6b4dcbb0aeb5f4","691fa9dd2c9bcc347268afb3","index1","<span style='color:red'>Fail,<span style='color:red'>Fail,<span style='color:green'>Lift,<span style='color:green'>Lift,<span style='color:red'>Fail,<span style='color:red'>Fail,<span style='color:red'>Fail,<span style='color:red'>Fail,<span style='color:green'>Lift,<span style='color:red'>Fail,<span style='color:red'>Fail,<span style='color:green'>Lift","<span style='color:red'>Fail,<span style='color:red'>Fail,<span style='color:green'>Lift,<span style='color:green'>Lift,<span style='color:green'>Lift,<span style='color:green'>Lift,<span style='color:red'>Fail,<span style='color:green'>Lift,<span style='color:green'>Lift,<span style='color:green'>Lift,<span style='color:red'>Fail,<span style='color:green'>Lift","<span style='color:red'>Fail,<span style='color:green'>Lift,<span style='color:green'>Lift,<span style='color:red'>Fail,<span style='color:green'>Lift,<span style='color:green'>Lift","0,0,1,1,0,0,0,0,1,0,0,1","0,0,1,1,1,1,0,1,1,1,0,1","0,1,1,0,1,1",10,20,20,"","","","","{""box1"":""30"",""box2"":""85""}","",2,"round2_ready",2,2,2,NA,NA,NA,NA,NA,NA,NA,NA,NA,NA,NA,NA,NA,NA,30,85,30,85,NA,NA,NA,NA,NA,NA,NA,NA,NA,NA,NA,NA,NA,NA,NA,NA,NA,NA,"",NA,NA,NA,NA,NA,NA,NA,NA,NA,2025-11-21 00:07:10
"12722.800000011921","https://psyc-201.github.io/xiang2023/exp/index1.html?PROLIFIC_PID=REDACTED&STUDY_ID=691f8ca61c6b4dcbb0aeb5f4&SESSION_ID=691fa9dd2c9bcc347268afb3","survey-html-form",16,185071,"0.0-319.0","jr9Pk2a5zj3HefZeqzTA+c1nY8Mva1g8aLYbh+I8su+pyBXeqc6EwlcNYT6MEljnDFVXJF5ZVoYstgzihoKpY5xBzZQwqnKfXd1zpENwTpG2uBBAxbBPNqAG+7zwuoOJCOD9nKbYYhcdtEVapyL6u5JvCY4T1N5re0c7vX9TmIpb+kyDXauYsoXSNb1U5/9qMGdRKZH4+ifSsivgqiB96O7loAvfyvUxujaNOZrytD4RgLAgSiP5Pj0S8Tw2dWdR3hmXW2cYgEDP0PK/v8KJAkq7U+1Ue34kLfK3S1EMOQsJYhFQXNHe02cXlnQHFQKXdj2eSxL0QBLVAgmED9XfEQ==","691f8ca61c6b4dcbb0aeb5f4","691fa9dd2c9bcc347268afb3","index1","<span style='color:red'>Fail,<span style='color:red'>Fail,<span style='color:green'>Lift,<span style='color:green'>Lift,<span style='color:red'>Fail,<span style='color:red'>Fail,<span style='color:red'>Fail,<span style='color:red'>Fail,<span style='color:green'>Lift,<span style='color:red'>Fail,<span style='color:red'>Fail,<span style='color:green'>Lift","<span style='color:red'>Fail,<span style='color:red'>Fail,<span style='color:green'>Lift,<span style='color:green'>Lift,<span style='color:green'>Lift,<span style='color:green'>Lift,<span style='color:red'>Fail,<span style='color:green'>Lift,<span style='color:green'>Lift,<span style='color:green'>Lift,<span style='color:red'>Fail,<span style='color:green'>Lift","<span style='color:red'>Fail,<span style='color:green'>Lift,<span style='color:green'>Lift,<span style='color:red'>Fail,<span style='color:green'>Lift,<span style='color:green'>Lift","0,0,1,1,0,0,0,0,1,0,0,1","0,0,1,1,1,1,0,1,1,1,0,1","0,1,1,0,1,1",10,20,20,"","","","","{""box1"":""2"",""box2"":""6"",""box4"":""50""}","",2,"round2_outcome",3,2,2,2,6,NA,50,0,1,20,NA,NA,NA,NA,NA,NA,NA,NA,NA,NA,NA,2,6,NA,50,0,1,20,NA,NA,NA,NA,NA,NA,NA,NA,NA,NA,NA,"",NA,NA,NA,NA,NA,NA,NA,NA,NA,2025-11-21 00:07:10
"10105.400000035763","https://psyc-201.github.io/xiang2023/exp/index1.html?PROLIFIC_PID=REDACTED&STUDY_ID=691f8ca61c6b4dcbb0aeb5f4&SESSION_ID=691fa9dd2c9bcc347268afb3","survey-html-form",17,195177,"0.0-320.0","jr9Pk2a5zj3HefZeqzTA+c1nY8Mva1g8aLYbh+I8su+pyBXeqc6EwlcNYT6MEljnDFVXJF5ZVoYstgzihoKpY5xBzZQwqnKfXd1zpENwTpG2uBBAxbBPNqAG+7zwuoOJCOD9nKbYYhcdtEVapyL6u5JvCY4T1N5re0c7vX9TmIpb+kyDXauYsoXSNb1U5/9qMGdRKZH4+ifSsivgqiB96O7loAvfyvUxujaNOZrytD4RgLAgSiP5Pj0S8Tw2dWdR3hmXW2cYgEDP0PK/v8KJAkq7U+1Ue34kLfK3S1EMOQsJYhFQXNHe02cXlnQHFQKXdj2eSxL0QBLVAgmED9XfEQ==","691f8ca61c6b4dcbb0aeb5f4","691fa9dd2c9bcc347268afb3","index1","<span style='color:red'>Fail,<span style='color:red'>Fail,<span style='color:green'>Lift,<span style='color:green'>Lift,<span style='color:red'>Fail,<span style='color:red'>Fail,<span style='color:red'>Fail,<span style='color:red'>Fail,<span style='color:green'>Lift,<span style='color:red'>Fail,<span style='color:red'>Fail,<span style='color:green'>Lift","<span style='color:red'>Fail,<span style='color:red'>Fail,<span style='color:green'>Lift,<span style='color:green'>Lift,<span style='color:green'>Lift,<span style='color:green'>Lift,<span style='color:red'>Fail,<span style='color:green'>Lift,<span style='color:green'>Lift,<span style='color:green'>Lift,<span style='color:red'>Fail,<span style='color:green'>Lift","<span style='color:red'>Fail,<span style='color:green'>Lift,<span style='color:green'>Lift,<span style='color:red'>Fail,<span style='color:green'>Lift,<span style='color:green'>Lift","0,0,1,1,0,0,0,0,1,0,0,1","0,0,1,1,1,1,0,1,1,1,0,1","0,1,1,0,1,1",10,20,20,"","","","","{""box1"":""70""}","",2,"round3_ready",4,2,3,NA,NA,NA,NA,NA,NA,NA,NA,NA,NA,NA,NA,NA,NA,70,70,NA,NA,NA,NA,NA,NA,NA,NA,NA,70,70,NA,NA,NA,NA,NA,NA,NA,NA,NA,"",NA,NA,NA,NA,NA,NA,NA,NA,NA,2025-11-21 00:07:10
"11996.800000011921","https://psyc-201.github.io/xiang2023/exp/index1.html?PROLIFIC_PID=REDACTED&STUDY_ID=691f8ca61c6b4dcbb0aeb5f4&SESSION_ID=691fa9dd2c9bcc347268afb3","survey-html-form",18,207175,"0.0-321.0-0.0","jr9Pk2a5zj3HefZeqzTA+c1nY8Mva1g8aLYbh+I8su+pyBXeqc6EwlcNYT6MEljnDFVXJF5ZVoYstgzihoKpY5xBzZQwqnKfXd1zpENwTpG2uBBAxbBPNqAG+7zwuoOJCOD9nKbYYhcdtEVapyL6u5JvCY4T1N5re0c7vX9TmIpb+kyDXauYsoXSNb1U5/9qMGdRKZH4+ifSsivgqiB96O7loAvfyvUxujaNOZrytD4RgLAgSiP5Pj0S8Tw2dWdR3hmXW2cYgEDP0PK/v8KJAkq7U+1Ue34kLfK3S1EMOQsJYhFQXNHe02cXlnQHFQKXdj2eSxL0QBLVAgmED9XfEQ==","691f8ca61c6b4dcbb0aeb5f4","691fa9dd2c9bcc347268afb3","index1","<span style='color:red'>Fail,<span style='color:red'>Fail,<span style='color:green'>Lift,<span style='color:green'>Lift,<span style='color:red'>Fail,<span style='color:red'>Fail,<span style='color:red'>Fail,<span style='color:red'>Fail,<span style='color:green'>Lift,<span style='color:red'>Fail,<span style='color:red'>Fail,<span style='color:green'>Lift","<span style='color:red'>Fail,<span style='color:red'>Fail,<span style='color:green'>Lift,<span style='color:green'>Lift,<span style='color:green'>Lift,<span style='color:green'>Lift,<span style='color:red'>Fail,<span style='color:green'>Lift,<span style='color:green'>Lift,<span style='color:green'>Lift,<span style='color:red'>Fail,<span style='color:green'>Lift","<span style='color:red'>Fail,<span style='color:green'>Lift,<span style='color:green'>Lift,<span style='color:red'>Fail,<span style='color:green'>Lift,<span style='color:green'>Lift","0,0,1,1,0,0,0,0,1,0,0,1","0,0,1,1,1,1,0,1,1,1,0,1","0,1,1,0,1,1",10,20,20,"","","","","{""box1"":""3"",""box2"":""6"",""box3"":""35"",""box4"":""50""}","",3,"round3_lift",5,2,3,3,6,35,50,1,1,20,NA,NA,NA,NA,NA,NA,NA,NA,NA,NA,NA,NA,NA,NA,NA,NA,NA,NA,NA,NA,3,6,35,50,1,1,20,NA,NA,"",NA,NA,NA,NA,NA,NA,NA,NA,NA,2025-11-21 00:07:10
"null","https://psyc-201.github.io/xiang2023/exp/index1.html?PROLIFIC_PID=REDACTED&STUDY_ID=691f8ca61c6b4dcbb0aeb5f4&SESSION_ID=691fa9dd2c9bcc347268afb3","html-keyboard-response",19,210188,"0.0-325.0","jr9Pk2a5zj3HefZeqzTA+c1nY8Mva1g8aLYbh+I8su+pyBXeqc6EwlcNYT6MEljnDFVXJF5ZVoYstgzihoKpY5xBzZQwqnKfXd1zpENwTpG2uBBAxbBPNqAG+7zwuoOJCOD9nKbYYhcdtEVapyL6u5JvCY4T1N5re0c7vX9TmIpb+kyDXauYsoXSNb1U5/9qMGdRKZH4+ifSsivgqiB96O7loAvfyvUxujaNOZrytD4RgLAgSiP5Pj0S8Tw2dWdR3hmXW2cYgEDP0PK/v8KJAkq7U+1Ue34kLfK3S1EMOQsJYhFQXNHe02cXlnQHFQKXdj2eSxL0QBLVAgmED9XfEQ==","691f8ca61c6b4dcbb0aeb5f4","691fa9dd2c9bcc347268afb3","index1","<span style='color:red'>Fail,<span style='color:red'>Fail,<span style='color:green'>Lift,<span style='color:green'>Lift,<span style='color:red'>Fail,<span style='color:red'>Fail,<span style='color:red'>Fail,<span style='color:red'>Fail,<span style='color:green'>Lift,<span style='color:red'>Fail,<span style='color:red'>Fail,<span style='color:green'>Lift","<span style='color:red'>Fail,<span style='color:red'>Fail,<span style='color:green'>Lift,<span style='color:green'>Lift,<span style='color:green'>Lift,<span style='color:green'>Lift,<span style='color:red'>Fail,<span style='color:green'>Lift,<span style='color:green'>Lift,<span style='color:green'>Lift,<span style='color:red'>Fail,<span style='color:green'>Lift","<span style='color:red'>Fail,<span style='color:green'>Lift,<span style='color:green'>Lift,<span style='color:red'>Fail,<span style='color:green'>Lift,<span style='color:green'>Lift","0,0,1,1,0,0,0,0,1,0,0,1","0,0,1,1,1,1,0,1,1,1,0,1","0,1,1,0,1,1",10,20,20,"","","<p style='font-size:30px'><b> New Contest! </b></p>","null","","",3,"",NA,NA,NA,NA,NA,NA,NA,NA,NA,NA,NA,NA,NA,NA,NA,NA,NA,NA,NA,NA,NA,NA,NA,NA,NA,NA,NA,NA,NA,NA,NA,NA,NA,NA,NA,NA,NA,NA,NA,"",NA,NA,NA,NA,NA,NA,NA,NA,NA,2025-11-21 00:07:10
"7421.199999988079","https://psyc-201.github.io/xiang2023/exp/index1.html?PROLIFIC_PID=REDACTED&STUDY_ID=691f8ca61c6b4dcbb0aeb5f4&SESSION_ID=691fa9dd2c9bcc347268afb3","survey-html-form",20,217610,"0.0-326.0","jr9Pk2a5zj3HefZeqzTA+c1nY8Mva1g8aLYbh+I8su+pyBXeqc6EwlcNYT6MEljnDFVXJF5ZVoYstgzihoKpY5xBzZQwqnKfXd1zpENwTpG2uBBAxbBPNqAG+7zwuoOJCOD9nKbYYhcdtEVapyL6u5JvCY4T1N5re0c7vX9TmIpb+kyDXauYsoXSNb1U5/9qMGdRKZH4+ifSsivgqiB96O7loAvfyvUxujaNOZrytD4RgLAgSiP5Pj0S8Tw2dWdR3hmXW2cYgEDP0PK/v8KJAkq7U+1Ue34kLfK3S1EMOQsJYhFQXNHe02cXlnQHFQKXdj2eSxL0QBLVAgmED9XfEQ==","691f8ca61c6b4dcbb0aeb5f4","691fa9dd2c9bcc347268afb3","index1","<span style='color:red'>Fail,<span style='color:red'>Fail,<span style='color:green'>Lift,<span style='color:green'>Lift,<span style='color:red'>Fail,<span style='color:red'>Fail,<span style='color:red'>Fail,<span style='color:red'>Fail,<span style='color:green'>Lift,<span style='color:red'>Fail,<span style='color:red'>Fail,<span style='color:green'>Lift","<span style='color:red'>Fail,<span style='color:red'>Fail,<span style='color:green'>Lift,<span style='color:green'>Lift,<span style='color:green'>Lift,<span style='color:green'>Lift,<span style='color:red'>Fail,<span style='color:green'>Lift,<span style='color:green'>Lift,<span style='color:green'>Lift,<span style='color:red'>Fail,<span style='color:green'>Lift","<span style='color:red'>Fail,<span style='color:green'>Lift,<span style='color:green'>Lift,<span style='color:red'>Fail,<span style='color:green'>Lift,<span style='color:green'>Lift","0,0,1,1,0,0,0,0,1,0,0,1","0,0,1,1,1,1,0,1,1,1,0,1","0,1,1,0,1,1",10,20,20,"","","","","{""box1"":""3"",""box2"":""3""}","",3,"round1_outcome",1,3,1,3,3,NA,NA,0,0,10,3,3,NA,NA,0,0,10,NA,NA,NA,NA,NA,NA,NA,NA,NA,NA,NA,NA,NA,NA,NA,NA,NA,NA,NA,NA,NA,NA,"",NA,NA,NA,NA,NA,NA,NA,NA,NA,2025-11-21 00:07:10
"7027.400000035763","https://psyc-201.github.io/xiang2023/exp/index1.html?PROLIFIC_PID=REDACTED&STUDY_ID=691f8ca61c6b4dcbb0aeb5f4&SESSION_ID=691fa9dd2c9bcc347268afb3","survey-html-form",21,224638,"0.0-327.0","jr9Pk2a5zj3HefZeqzTA+c1nY8Mva1g8aLYbh+I8su+pyBXeqc6EwlcNYT6MEljnDFVXJF5ZVoYstgzihoKpY5xBzZQwqnKfXd1zpENwTpG2uBBAxbBPNqAG+7zwuoOJCOD9nKbYYhcdtEVapyL6u5JvCY4T1N5re0c7vX9TmIpb+kyDXauYsoXSNb1U5/9qMGdRKZH4+ifSsivgqiB96O7loAvfyvUxujaNOZrytD4RgLAgSiP5Pj0S8Tw2dWdR3hmXW2cYgEDP0PK/v8KJAkq7U+1Ue34kLfK3S1EMOQsJYhFQXNHe02cXlnQHFQKXdj2eSxL0QBLVAgmED9XfEQ==","691f8ca61c6b4dcbb0aeb5f4","691fa9dd2c9bcc347268afb3","index1","<span style='color:red'>Fail,<span style='color:red'>Fail,<span style='color:green'>Lift,<span style='color:green'>Lift,<span style='color:red'>Fail,<span style='color:red'>Fail,<span style='color:red'>Fail,<span style='color:red'>Fail,<span style='color:green'>Lift,<span style='color:red'>Fail,<span style='color:red'>Fail,<span style='color:green'>Lift","<span style='color:red'>Fail,<span style='color:red'>Fail,<span style='color:green'>Lift,<span style='color:green'>Lift,<span style='color:green'>Lift,<span style='color:green'>Lift,<span style='color:red'>Fail,<span style='color:green'>Lift,<span style='color:green'>Lift,<span style='color:green'>Lift,<span style='color:red'>Fail,<span style='color:green'>Lift","<span style='color:red'>Fail,<span style='color:green'>Lift,<span style='color:green'>Lift,<span style='color:red'>Fail,<span style='color:green'>Lift,<span style='color:green'>Lift","0,0,1,1,0,0,0,0,1,0,0,1","0,0,1,1,1,1,0,1,1,1,0,1","0,1,1,0,1,1",10,20,20,"","","","","{""box1"":""40"",""box2"":""40""}","",3,"round2_ready",2,3,2,NA,NA,NA,NA,NA,NA,NA,NA,NA,NA,NA,NA,NA,NA,40,40,40,40,NA,NA,NA,NA,NA,NA,NA,NA,NA,NA,NA,NA,NA,NA,NA,NA,NA,NA,"",NA,NA,NA,NA,NA,NA,NA,NA,NA,2025-11-21 00:07:10
"9283.5","https://psyc-201.github.io/xiang2023/exp/index1.html?PROLIFIC_PID=REDACTED&STUDY_ID=691f8ca61c6b4dcbb0aeb5f4&SESSION_ID=691fa9dd2c9bcc347268afb3","survey-html-form",22,233922,"0.0-328.0","jr9Pk2a5zj3HefZeqzTA+c1nY8Mva1g8aLYbh+I8su+pyBXeqc6EwlcNYT6MEljnDFVXJF5ZVoYstgzihoKpY5xBzZQwqnKfXd1zpENwTpG2uBBAxbBPNqAG+7zwuoOJCOD9nKbYYhcdtEVapyL6u5JvCY4T1N5re0c7vX9TmIpb+kyDXauYsoXSNb1U5/9qMGdRKZH4+ifSsivgqiB96O7loAvfyvUxujaNOZrytD4RgLAgSiP5Pj0S8Tw2dWdR3hmXW2cYgEDP0PK/v8KJAkq7U+1Ue34kLfK3S1EMOQsJYhFQXNHe02cXlnQHFQKXdj2eSxL0QBLVAgmED9XfEQ==","691f8ca61c6b4dcbb0aeb5f4","691fa9dd2c9bcc347268afb3","index1","<span style='color:red'>Fail,<span style='color:red'>Fail,<span style='color:green'>Lift,<span style='color:green'>Lift,<span style='color:red'>Fail,<span style='color:red'>Fail,<span style='color:red'>Fail,<span style='color:red'>Fail,<span style='color:green'>Lift,<span style='color:red'>Fail,<span style='color:red'>Fail,<span style='color:green'>Lift","<span style='color:red'>Fail,<span style='color:red'>Fail,<span style='color:green'>Lift,<span style='color:green'>Lift,<span style='color:green'>Lift,<span style='color:green'>Lift,<span style='color:red'>Fail,<span style='color:green'>Lift,<span style='color:green'>Lift,<span style='color:green'>Lift,<span style='color:red'>Fail,<span style='color:green'>Lift","<span style='color:red'>Fail,<span style='color:green'>Lift,<span style='color:green'>Lift,<span style='color:red'>Fail,<span style='color:green'>Lift,<span style='color:green'>Lift","0,0,1,1,0,0,0,0,1,0,0,1","0,0,1,1,1,1,0,1,1,1,0,1","0,1,1,0,1,1",10,20,20,"","","","","{""box1"":""5"",""box2"":""5"",""box3"":""50"",""box4"":""50""}","",3,"round2_outcome",3,3,2,5,5,50,50,1,1,20,NA,NA,NA,NA,NA,NA,NA,NA,NA,NA,NA,5,5,50,50,1,1,20,NA,NA,NA,NA,NA,NA,NA,NA,NA,NA,NA,"",NA,NA,NA,NA,NA,NA,NA,NA,NA,2025-11-21 00:07:10
"5464.299999952316","https://psyc-201.github.io/xiang2023/exp/index1.html?PROLIFIC_PID=REDACTED&STUDY_ID=691f8ca61c6b4dcbb0aeb5f4&SESSION_ID=691fa9dd2c9bcc347268afb3","survey-html-form",23,239387,"0.0-329.0","jr9Pk2a5zj3HefZeqzTA+c1nY8Mva1g8aLYbh+I8su+pyBXeqc6EwlcNYT6MEljnDFVXJF5ZVoYstgzihoKpY5xBzZQwqnKfXd1zpENwTpG2uBBAxbBPNqAG+7zwuoOJCOD9nKbYYhcdtEVapyL6u5JvCY4T1N5re0c7vX9TmIpb+kyDXauYsoXSNb1U5/9qMGdRKZH4+ifSsivgqiB96O7loAvfyvUxujaNOZrytD4RgLAgSiP5Pj0S8Tw2dWdR3hmXW2cYgEDP0PK/v8KJAkq7U+1Ue34kLfK3S1EMOQsJYhFQXNHe02cXlnQHFQKXdj2eSxL0QBLVAgmED9XfEQ==","691f8ca61c6b4dcbb0aeb5f4","691fa9dd2c9bcc347268afb3","index1","<span style='color:red'>Fail,<span style='color:red'>Fail,<span style='color:green'>Lift,<span style='color:green'>Lift,<span style='color:red'>Fail,<span style='color:red'>Fail,<span style='color:red'>Fail,<span style='color:red'>Fail,<span style='color:green'>Lift,<span style='color:red'>Fail,<span style='color:red'>Fail,<span style='color:green'>Lift","<span style='color:red'>Fail,<span style='color:red'>Fail,<span style='color:green'>Lift,<span style='color:green'>Lift,<span style='color:green'>Lift,<span style='color:green'>Lift,<span style='color:red'>Fail,<span style='color:green'>Lift,<span style='color:green'>Lift,<span style='color:green'>Lift,<span style='color:red'>Fail,<span style='color:green'>Lift","<span style='color:red'>Fail,<span style='color:green'>Lift,<span style='color:green'>Lift,<span style='color:red'>Fail,<span style='color:green'>Lift,<span style='color:green'>Lift","0,0,1,1,0,0,0,0,1,0,0,1","0,0,1,1,1,1,0,1,1,1,0,1","0,1,1,0,1,1",10,20,20,"","","","","{""box1"":""90""}","",3,"round3_ready",4,3,3,NA,NA,NA,NA,NA,NA,NA,NA,NA,NA,NA,NA,NA,NA,90,90,NA,NA,NA,NA,NA,NA,NA,NA,NA,90,90,NA,NA,NA,NA,NA,NA,NA,NA,NA,"",NA,NA,NA,NA,NA,NA,NA,NA,NA,2025-11-21 00:07:10
"9441.5","https://psyc-201.github.io/xiang2023/exp/index1.html?PROLIFIC_PID=REDACTED&STUDY_ID=691f8ca61c6b4dcbb0aeb5f4&SESSION_ID=691fa9dd2c9bcc347268afb3","survey-html-form",24,248830,"0.0-330.0-0.0","jr9Pk2a5zj3HefZeqzTA+c1nY8Mva1g8aLYbh+I8su+pyBXeqc6EwlcNYT6MEljnDFVXJF5ZVoYstgzihoKpY5xBzZQwqnKfXd1zpENwTpG2uBBAxbBPNqAG+7zwuoOJCOD9nKbYYhcdtEVapyL6u5JvCY4T1N5re0c7vX9TmIpb+kyDXauYsoXSNb1U5/9qMGdRKZH4+ifSsivgqiB96O7loAvfyvUxujaNOZrytD4RgLAgSiP5Pj0S8Tw2dWdR3hmXW2cYgEDP0PK/v8KJAkq7U+1Ue34kLfK3S1EMOQsJYhFQXNHe02cXlnQHFQKXdj2eSxL0QBLVAgmED9XfEQ==","691f8ca61c6b4dcbb0aeb5f4","691fa9dd2c9bcc347268afb3","index1","<span style='color:red'>Fail,<span style='color:red'>Fail,<span style='color:green'>Lift,<span style='color:green'>Lift,<span style='color:red'>Fail,<span style='color:red'>Fail,<span style='color:red'>Fail,<span style='color:red'>Fail,<span style='color:green'>Lift,<span style='color:red'>Fail,<span style='color:red'>Fail,<span style='color:green'>Lift","<span style='color:red'>Fail,<span style='color:red'>Fail,<span style='color:green'>Lift,<span style='color:green'>Lift,<span style='color:green'>Lift,<span style='color:green'>Lift,<span style='color:red'>Fail,<span style='color:green'>Lift,<span style='color:green'>Lift,<span style='color:green'>Lift,<span style='color:red'>Fail,<span style='color:green'>Lift","<span style='color:red'>Fail,<span style='color:green'>Lift,<span style='color:green'>Lift,<span style='color:red'>Fail,<span style='color:green'>Lift,<span style='color:green'>Lift","0,0,1,1,0,0,0,0,1,0,0,1","0,0,1,1,1,1,0,1,1,1,0,1","0,1,1,0,1,1",10,20,20,"","","","","{""box1"":""5"",""box2"":""5"",""box3"":""50"",""box4"":""50""}","",4,"round3_lift",5,3,3,5,5,50,50,1,1,20,NA,NA,NA,NA,NA,NA,NA,NA,NA,NA,NA,NA,NA,NA,NA,NA,NA,NA,NA,NA,5,5,50,50,1,1,20,NA,NA,"",NA,NA,NA,NA,NA,NA,NA,NA,NA,2025-11-21 00:07:10
"null","https://psyc-201.github.io/xiang2023/exp/index1.html?PROLIFIC_PID=REDACTED&STUDY_ID=691f8ca61c6b4dcbb0aeb5f4&SESSION_ID=691fa9dd2c9bcc347268afb3","html-keyboard-response",25,251836,"0.0-334.0","jr9Pk2a5zj3HefZeqzTA+c1nY8Mva1g8aLYbh+I8su+pyBXeqc6EwlcNYT6MEljnDFVXJF5ZVoYstgzihoKpY5xBzZQwqnKfXd1zpENwTpG2uBBAxbBPNqAG+7zwuoOJCOD9nKbYYhcdtEVapyL6u5JvCY4T1N5re0c7vX9TmIpb+kyDXauYsoXSNb1U5/9qMGdRKZH4+ifSsivgqiB96O7loAvfyvUxujaNOZrytD4RgLAgSiP5Pj0S8Tw2dWdR3hmXW2cYgEDP0PK/v8KJAkq7U+1Ue34kLfK3S1EMOQsJYhFQXNHe02cXlnQHFQKXdj2eSxL0QBLVAgmED9XfEQ==","691f8ca61c6b4dcbb0aeb5f4","691fa9dd2c9bcc347268afb3","index1","<span style='color:red'>Fail,<span style='color:red'>Fail,<span style='color:green'>Lift,<span style='color:green'>Lift,<span style='color:red'>Fail,<span style='color:red'>Fail,<span style='color:red'>Fail,<span style='color:red'>Fail,<span style='color:green'>Lift,<span style='color:red'>Fail,<span style='color:red'>Fail,<span style='color:green'>Lift","<span style='color:red'>Fail,<span style='color:red'>Fail,<span style='color:green'>Lift,<span style='color:green'>Lift,<span style='color:green'>Lift,<span style='color:green'>Lift,<span style='color:red'>Fail,<span style='color:green'>Lift,<span style='color:green'>Lift,<span style='color:green'>Lift,<span style='color:red'>Fail,<span style='color:green'>Lift","<span style='color:red'>Fail,<span style='color:green'>Lift,<span style='color:green'>Lift,<span style='color:red'>Fail,<span style='color:green'>Lift,<span style='color:green'>Lift","0,0,1,1,0,0,0,0,1,0,0,1","0,0,1,1,1,1,0,1,1,1,0,1","0,1,1,0,1,1",10,20,20,"","","<p style='font-size:30px'><b> New Contest! </b></p>","null","","",4,"",NA,NA,NA,NA,NA,NA,NA,NA,NA,NA,NA,NA,NA,NA,NA,NA,NA,NA,NA,NA,NA,NA,NA,NA,NA,NA,NA,NA,NA,NA,NA,NA,NA,NA,NA,NA,NA,NA,NA,"",NA,NA,NA,NA,NA,NA,NA,NA,NA,2025-11-21 00:07:10
"13281.699999988079","https://psyc-201.github.io/xiang2023/exp/index1.html?PROLIFIC_PID=REDACTED&STUDY_ID=691f8ca61c6b4dcbb0aeb5f4&SESSION_ID=691fa9dd2c9bcc347268afb3","survey-html-form",26,265119,"0.0-335.0","jr9Pk2a5zj3HefZeqzTA+c1nY8Mva1g8aLYbh+I8su+pyBXeqc6EwlcNYT6MEljnDFVXJF5ZVoYstgzihoKpY5xBzZQwqnKfXd1zpENwTpG2uBBAxbBPNqAG+7zwuoOJCOD9nKbYYhcdtEVapyL6u5JvCY4T1N5re0c7vX9TmIpb+kyDXauYsoXSNb1U5/9qMGdRKZH4+ifSsivgqiB96O7loAvfyvUxujaNOZrytD4RgLAgSiP5Pj0S8Tw2dWdR3hmXW2cYgEDP0PK/v8KJAkq7U+1Ue34kLfK3S1EMOQsJYhFQXNHe02cXlnQHFQKXdj2eSxL0QBLVAgmED9XfEQ==","691f8ca61c6b4dcbb0aeb5f4","691fa9dd2c9bcc347268afb3","index1","<span style='color:red'>Fail,<span style='color:red'>Fail,<span style='color:green'>Lift,<span style='color:green'>Lift,<span style='color:red'>Fail,<span style='color:red'>Fail,<span style='color:red'>Fail,<span style='color:red'>Fail,<span style='color:green'>Lift,<span style='color:red'>Fail,<span style='color:red'>Fail,<span style='color:green'>Lift","<span style='color:red'>Fail,<span style='color:red'>Fail,<span style='color:green'>Lift,<span style='color:green'>Lift,<span style='color:green'>Lift,<span style='color:green'>Lift,<span style='color:red'>Fail,<span style='color:green'>Lift,<span style='color:green'>Lift,<span style='color:green'>Lift,<span style='color:red'>Fail,<span style='color:green'>Lift","<span style='color:red'>Fail,<span style='color:green'>Lift,<span style='color:green'>Lift,<span style='color:red'>Fail,<span style='color:green'>Lift,<span style='color:green'>Lift","0,0,1,1,0,0,0,0,1,0,0,1","0,0,1,1,1,1,0,1,1,1,0,1","0,1,1,0,1,1",10,20,20,"","","","","{""box1"":""5"",""box2"":""3"",""box3"":""50""}","",4,"round1_outcome",1,4,1,5,3,50,NA,1,0,10,5,3,50,NA,1,0,10,NA,NA,NA,NA,NA,NA,NA,NA,NA,NA,NA,NA,NA,NA,NA,NA,NA,NA,NA,NA,NA,NA,"",NA,NA,NA,NA,NA,NA,NA,NA,NA,2025-11-21 00:07:10
"10060.400000035763","https://psyc-201.github.io/xiang2023/exp/index1.html?PROLIFIC_PID=REDACTED&STUDY_ID=691f8ca61c6b4dcbb0aeb5f4&SESSION_ID=691fa9dd2c9bcc347268afb3","survey-html-form",27,275180,"0.0-336.0","jr9Pk2a5zj3HefZeqzTA+c1nY8Mva1g8aLYbh+I8su+pyBXeqc6EwlcNYT6MEljnDFVXJF5ZVoYstgzihoKpY5xBzZQwqnKfXd1zpENwTpG2uBBAxbBPNqAG+7zwuoOJCOD9nKbYYhcdtEVapyL6u5JvCY4T1N5re0c7vX9TmIpb+kyDXauYsoXSNb1U5/9qMGdRKZH4+ifSsivgqiB96O7loAvfyvUxujaNOZrytD4RgLAgSiP5Pj0S8Tw2dWdR3hmXW2cYgEDP0PK/v8KJAkq7U+1Ue34kLfK3S1EMOQsJYhFQXNHe02cXlnQHFQKXdj2eSxL0QBLVAgmED9XfEQ==","691f8ca61c6b4dcbb0aeb5f4","691fa9dd2c9bcc347268afb3","index1","<span style='color:red'>Fail,<span style='color:red'>Fail,<span style='color:green'>Lift,<span style='color:green'>Lift,<span style='color:red'>Fail,<span style='color:red'>Fail,<span style='color:red'>Fail,<span style='color:red'>Fail,<span style='color:green'>Lift,<span style='color:red'>Fail,<span style='color:red'>Fail,<span style='color:green'>Lift","<span style='color:red'>Fail,<span style='color:red'>Fail,<span style='color:green'>Lift,<span style='color:green'>Lift,<span style='color:green'>Lift,<span style='color:green'>Lift,<span style='color:red'>Fail,<span style='color:green'>Lift,<span style='color:green'>Lift,<span style='color:green'>Lift,<span style='color:red'>Fail,<span style='color:green'>Lift","<span style='color:red'>Fail,<span style='color:green'>Lift,<span style='color:green'>Lift,<span style='color:red'>Fail,<span style='color:green'>Lift,<span style='color:green'>Lift","0,0,1,1,0,0,0,0,1,0,0,1","0,0,1,1,1,1,0,1,1,1,0,1","0,1,1,0,1,1",10,20,20,"","","","","{""box1"":""90"",""box2"":""40""}","",4,"round2_ready",2,4,2,NA,NA,NA,NA,NA,NA,NA,NA,NA,NA,NA,NA,NA,NA,90,40,90,40,NA,NA,NA,NA,NA,NA,NA,NA,NA,NA,NA,NA,NA,NA,NA,NA,NA,NA,"",NA,NA,NA,NA,NA,NA,NA,NA,NA,2025-11-21 00:07:10
"10146.5","https://psyc-201.github.io/xiang2023/exp/index1.html?PROLIFIC_PID=REDACTED&STUDY_ID=691f8ca61c6b4dcbb0aeb5f4&SESSION_ID=691fa9dd2c9bcc347268afb3","survey-html-form",28,285327,"0.0-337.0","jr9Pk2a5zj3HefZeqzTA+c1nY8Mva1g8aLYbh+I8su+pyBXeqc6EwlcNYT6MEljnDFVXJF5ZVoYstgzihoKpY5xBzZQwqnKfXd1zpENwTpG2uBBAxbBPNqAG+7zwuoOJCOD9nKbYYhcdtEVapyL6u5JvCY4T1N5re0c7vX9TmIpb+kyDXauYsoXSNb1U5/9qMGdRKZH4+ifSsivgqiB96O7loAvfyvUxujaNOZrytD4RgLAgSiP5Pj0S8Tw2dWdR3hmXW2cYgEDP0PK/v8KJAkq7U+1Ue34kLfK3S1EMOQsJYhFQXNHe02cXlnQHFQKXdj2eSxL0QBLVAgmED9XfEQ==","691f8ca61c6b4dcbb0aeb5f4","691fa9dd2c9bcc347268afb3","index1","<span style='color:red'>Fail,<span style='color:red'>Fail,<span style='color:green'>Lift,<span style='color:green'>Lift,<span style='color:red'>Fail,<span style='color:red'>Fail,<span style='color:red'>Fail,<span style='color:red'>Fail,<span style='color:green'>Lift,<span style='color:red'>Fail,<span style='color:red'>Fail,<span style='color:green'>Lift","<span style='color:red'>Fail,<span style='color:red'>Fail,<span style='color:green'>Lift,<span style='color:green'>Lift,<span style='color:green'>Lift,<span style='color:green'>Lift,<span style='color:red'>Fail,<span style='color:green'>Lift,<span style='color:green'>Lift,<span style='color:green'>Lift,<span style='color:red'>Fail,<span style='color:green'>Lift","<span style='color:red'>Fail,<span style='color:green'>Lift,<span style='color:green'>Lift,<span style='color:red'>Fail,<span style='color:green'>Lift,<span style='color:green'>Lift","0,0,1,1,0,0,0,0,1,0,0,1","0,0,1,1,1,1,0,1,1,1,0,1","0,1,1,0,1,1",10,20,20,"","","","","{""box1"":""5"",""box2"":""5"",""box3"":""50"",""box4"":""50""}","",4,"round2_outcome",3,4,2,5,5,50,50,1,1,20,NA,NA,NA,NA,NA,NA,NA,NA,NA,NA,NA,5,5,50,50,1,1,20,NA,NA,NA,NA,NA,NA,NA,NA,NA,NA,NA,"",NA,NA,NA,NA,NA,NA,NA,NA,NA,2025-11-21 00:07:10
"3579.5","https://psyc-201.github.io/xiang2023/exp/index1.html?PROLIFIC_PID=REDACTED&STUDY_ID=691f8ca61c6b4dcbb0aeb5f4&SESSION_ID=691fa9dd2c9bcc347268afb3","survey-html-form",29,288908,"0.0-338.0","jr9Pk2a5zj3HefZeqzTA+c1nY8Mva1g8aLYbh+I8su+pyBXeqc6EwlcNYT6MEljnDFVXJF5ZVoYstgzihoKpY5xBzZQwqnKfXd1zpENwTpG2uBBAxbBPNqAG+7zwuoOJCOD9nKbYYhcdtEVapyL6u5JvCY4T1N5re0c7vX9TmIpb+kyDXauYsoXSNb1U5/9qMGdRKZH4+ifSsivgqiB96O7loAvfyvUxujaNOZrytD4RgLAgSiP5Pj0S8Tw2dWdR3hmXW2cYgEDP0PK/v8KJAkq7U+1Ue34kLfK3S1EMOQsJYhFQXNHe02cXlnQHFQKXdj2eSxL0QBLVAgmED9XfEQ==","691f8ca61c6b4dcbb0aeb5f4","691fa9dd2c9bcc347268afb3","index1","<span style='color:red'>Fail,<span style='color:red'>Fail,<span style='color:green'>Lift,<span style='color:green'>Lift,<span style='color:red'>Fail,<span style='color:red'>Fail,<span style='color:red'>Fail,<span style='color:red'>Fail,<span style='color:green'>Lift,<span style='color:red'>Fail,<span style='color:red'>Fail,<span style='color:green'>Lift","<span style='color:red'>Fail,<span style='color:red'>Fail,<span style='color:green'>Lift,<span style='color:green'>Lift,<span style='color:green'>Lift,<span style='color:green'>Lift,<span style='color:red'>Fail,<span style='color:green'>Lift,<span style='color:green'>Lift,<span style='color:green'>Lift,<span style='color:red'>Fail,<span style='color:green'>Lift","<span style='color:red'>Fail,<span style='color:green'>Lift,<span style='color:green'>Lift,<span style='color:red'>Fail,<span style='color:green'>Lift,<span style='color:green'>Lift","0,0,1,1,0,0,0,0,1,0,0,1","0,0,1,1,1,1,0,1,1,1,0,1","0,1,1,0,1,1",10,20,20,"","","","","{""box1"":""90""}","",4,"round3_ready",4,4,3,NA,NA,NA,NA,NA,NA,NA,NA,NA,NA,NA,NA,NA,NA,90,90,NA,NA,NA,NA,NA,NA,NA,NA,NA,90,90,NA,NA,NA,NA,NA,NA,NA,NA,NA,"",NA,NA,NA,NA,NA,NA,NA,NA,NA,2025-11-21 00:07:10
"7930.300000011921","https://psyc-201.github.io/xiang2023/exp/index1.html?PROLIFIC_PID=REDACTED&STUDY_ID=691f8ca61c6b4dcbb0aeb5f4&SESSION_ID=691fa9dd2c9bcc347268afb3","survey-html-form",30,296839,"0.0-339.0-0.0","jr9Pk2a5zj3HefZeqzTA+c1nY8Mva1g8aLYbh+I8su+pyBXeqc6EwlcNYT6MEljnDFVXJF5ZVoYstgzihoKpY5xBzZQwqnKfXd1zpENwTpG2uBBAxbBPNqAG+7zwuoOJCOD9nKbYYhcdtEVapyL6u5JvCY4T1N5re0c7vX9TmIpb+kyDXauYsoXSNb1U5/9qMGdRKZH4+ifSsivgqiB96O7loAvfyvUxujaNOZrytD4RgLAgSiP5Pj0S8Tw2dWdR3hmXW2cYgEDP0PK/v8KJAkq7U+1Ue34kLfK3S1EMOQsJYhFQXNHe02cXlnQHFQKXdj2eSxL0QBLVAgmED9XfEQ==","691f8ca61c6b4dcbb0aeb5f4","691fa9dd2c9bcc347268afb3","index1","<span style='color:red'>Fail,<span style='color:red'>Fail,<span style='color:green'>Lift,<span style='color:green'>Lift,<span style='color:red'>Fail,<span style='color:red'>Fail,<span style='color:red'>Fail,<span style='color:red'>Fail,<span style='color:green'>Lift,<span style='color:red'>Fail,<span style='color:red'>Fail,<span style='color:green'>Lift","<span style='color:red'>Fail,<span style='color:red'>Fail,<span style='color:green'>Lift,<span style='color:green'>Lift,<span style='color:green'>Lift,<span style='color:green'>Lift,<span style='color:red'>Fail,<span style='color:green'>Lift,<span style='color:green'>Lift,<span style='color:green'>Lift,<span style='color:red'>Fail,<span style='color:green'>Lift","<span style='color:red'>Fail,<span style='color:green'>Lift,<span style='color:green'>Lift,<span style='color:red'>Fail,<span style='color:green'>Lift,<span style='color:green'>Lift","0,0,1,1,0,0,0,0,1,0,0,1","0,0,1,1,1,1,0,1,1,1,0,1","0,1,1,0,1,1",10,20,20,"","","","","{""box1"":""5"",""box2"":""5"",""box3"":""50"",""box4"":""50""}","",5,"round3_lift",5,4,3,5,5,50,50,1,1,20,NA,NA,NA,NA,NA,NA,NA,NA,NA,NA,NA,NA,NA,NA,NA,NA,NA,NA,NA,NA,5,5,50,50,1,1,20,NA,NA,"",NA,NA,NA,NA,NA,NA,NA,NA,NA,2025-11-21 00:07:10
"null","https://psyc-201.github.io/xiang2023/exp/index1.html?PROLIFIC_PID=REDACTED&STUDY_ID=691f8ca61c6b4dcbb0aeb5f4&SESSION_ID=691fa9dd2c9bcc347268afb3","html-keyboard-response",31,299839,"0.0-343.0","jr9Pk2a5zj3HefZeqzTA+c1nY8Mva1g8aLYbh+I8su+pyBXeqc6EwlcNYT6MEljnDFVXJF5ZVoYstgzihoKpY5xBzZQwqnKfXd1zpENwTpG2uBBAxbBPNqAG+7zwuoOJCOD9nKbYYhcdtEVapyL6u5JvCY4T1N5re0c7vX9TmIpb+kyDXauYsoXSNb1U5/9qMGdRKZH4+ifSsivgqiB96O7loAvfyvUxujaNOZrytD4RgLAgSiP5Pj0S8Tw2dWdR3hmXW2cYgEDP0PK/v8KJAkq7U+1Ue34kLfK3S1EMOQsJYhFQXNHe02cXlnQHFQKXdj2eSxL0QBLVAgmED9XfEQ==","691f8ca61c6b4dcbb0aeb5f4","691fa9dd2c9bcc347268afb3","index1","<span style='color:red'>Fail,<span style='color:red'>Fail,<span style='color:green'>Lift,<span style='color:green'>Lift,<span style='color:red'>Fail,<span style='color:red'>Fail,<span style='color:red'>Fail,<span style='color:red'>Fail,<span style='color:green'>Lift,<span style='color:red'>Fail,<span style='color:red'>Fail,<span style='color:green'>Lift","<span style='color:red'>Fail,<span style='color:red'>Fail,<span style='color:green'>Lift,<span style='color:green'>Lift,<span style='color:green'>Lift,<span style='color:green'>Lift,<span style='color:red'>Fail,<span style='color:green'>Lift,<span style='color:green'>Lift,<span style='color:green'>Lift,<span style='color:red'>Fail,<span style='color:green'>Lift","<span style='color:red'>Fail,<span style='color:green'>Lift,<span style='color:green'>Lift,<span style='color:red'>Fail,<span style='color:green'>Lift,<span style='color:green'>Lift","0,0,1,1,0,0,0,0,1,0,0,1","0,0,1,1,1,1,0,1,1,1,0,1","0,1,1,0,1,1",10,20,20,"","","<p style='font-size:30px'><b> New Contest! </b></p>","null","","",5,"",NA,NA,NA,NA,NA,NA,NA,NA,NA,NA,NA,NA,NA,NA,NA,NA,NA,NA,NA,NA,NA,NA,NA,NA,NA,NA,NA,NA,NA,NA,NA,NA,NA,NA,NA,NA,NA,NA,NA,"",NA,NA,NA,NA,NA,NA,NA,NA,NA,2025-11-21 00:07:10
"5810.600000023842","https://psyc-201.github.io/xiang2023/exp/index1.html?PROLIFIC_PID=REDACTED&STUDY_ID=691f8ca61c6b4dcbb0aeb5f4&SESSION_ID=691fa9dd2c9bcc347268afb3","survey-html-form",32,305651,"0.0-344.0","jr9Pk2a5zj3HefZeqzTA+c1nY8Mva1g8aLYbh+I8su+pyBXeqc6EwlcNYT6MEljnDFVXJF5ZVoYstgzihoKpY5xBzZQwqnKfXd1zpENwTpG2uBBAxbBPNqAG+7zwuoOJCOD9nKbYYhcdtEVapyL6u5JvCY4T1N5re0c7vX9TmIpb+kyDXauYsoXSNb1U5/9qMGdRKZH4+ifSsivgqiB96O7loAvfyvUxujaNOZrytD4RgLAgSiP5Pj0S8Tw2dWdR3hmXW2cYgEDP0PK/v8KJAkq7U+1Ue34kLfK3S1EMOQsJYhFQXNHe02cXlnQHFQKXdj2eSxL0QBLVAgmED9XfEQ==","691f8ca61c6b4dcbb0aeb5f4","691fa9dd2c9bcc347268afb3","index1","<span style='color:red'>Fail,<span style='color:red'>Fail,<span style='color:green'>Lift,<span style='color:green'>Lift,<span style='color:red'>Fail,<span style='color:red'>Fail,<span style='color:red'>Fail,<span style='color:red'>Fail,<span style='color:green'>Lift,<span style='color:red'>Fail,<span style='color:red'>Fail,<span style='color:green'>Lift","<span style='color:red'>Fail,<span style='color:red'>Fail,<span style='color:green'>Lift,<span style='color:green'>Lift,<span style='color:green'>Lift,<span style='color:green'>Lift,<span style='color:red'>Fail,<span style='color:green'>Lift,<span style='color:green'>Lift,<span style='color:green'>Lift,<span style='color:red'>Fail,<span style='color:green'>Lift","<span style='color:red'>Fail,<span style='color:green'>Lift,<span style='color:green'>Lift,<span style='color:red'>Fail,<span style='color:green'>Lift,<span style='color:green'>Lift","0,0,1,1,0,0,0,0,1,0,0,1","0,0,1,1,1,1,0,1,1,1,0,1","0,1,1,0,1,1",10,20,20,"","","","","{""box1"":""3"",""box2"":""3""}","",5,"round1_outcome",1,5,1,3,3,NA,NA,0,0,10,3,3,NA,NA,0,0,10,NA,NA,NA,NA,NA,NA,NA,NA,NA,NA,NA,NA,NA,NA,NA,NA,NA,NA,NA,NA,NA,NA,"",NA,NA,NA,NA,NA,NA,NA,NA,NA,2025-11-21 00:07:10
"4639.400000035763","https://psyc-201.github.io/xiang2023/exp/index1.html?PROLIFIC_PID=REDACTED&STUDY_ID=691f8ca61c6b4dcbb0aeb5f4&SESSION_ID=691fa9dd2c9bcc347268afb3","survey-html-form",33,310291,"0.0-345.0","jr9Pk2a5zj3HefZeqzTA+c1nY8Mva1g8aLYbh+I8su+pyBXeqc6EwlcNYT6MEljnDFVXJF5ZVoYstgzihoKpY5xBzZQwqnKfXd1zpENwTpG2uBBAxbBPNqAG+7zwuoOJCOD9nKbYYhcdtEVapyL6u5JvCY4T1N5re0c7vX9TmIpb+kyDXauYsoXSNb1U5/9qMGdRKZH4+ifSsivgqiB96O7loAvfyvUxujaNOZrytD4RgLAgSiP5Pj0S8Tw2dWdR3hmXW2cYgEDP0PK/v8KJAkq7U+1Ue34kLfK3S1EMOQsJYhFQXNHe02cXlnQHFQKXdj2eSxL0QBLVAgmED9XfEQ==","691f8ca61c6b4dcbb0aeb5f4","691fa9dd2c9bcc347268afb3","index1","<span style='color:red'>Fail,<span style='color:red'>Fail,<span style='color:green'>Lift,<span style='color:green'>Lift,<span style='color:red'>Fail,<span style='color:red'>Fail,<span style='color:red'>Fail,<span style='color:red'>Fail,<span style='color:green'>Lift,<span style='color:red'>Fail,<span style='color:red'>Fail,<span style='color:green'>Lift","<span style='color:red'>Fail,<span style='color:red'>Fail,<span style='color:green'>Lift,<span style='color:green'>Lift,<span style='color:green'>Lift,<span style='color:green'>Lift,<span style='color:red'>Fail,<span style='color:green'>Lift,<span style='color:green'>Lift,<span style='color:green'>Lift,<span style='color:red'>Fail,<span style='color:green'>Lift","<span style='color:red'>Fail,<span style='color:green'>Lift,<span style='color:green'>Lift,<span style='color:red'>Fail,<span style='color:green'>Lift,<span style='color:green'>Lift","0,0,1,1,0,0,0,0,1,0,0,1","0,0,1,1,1,1,0,1,1,1,0,1","0,1,1,0,1,1",10,20,20,"","","","","{""box1"":""40"",""box2"":""40""}","",5,"round2_ready",2,5,2,NA,NA,NA,NA,NA,NA,NA,NA,NA,NA,NA,NA,NA,NA,40,40,40,40,NA,NA,NA,NA,NA,NA,NA,NA,NA,NA,NA,NA,NA,NA,NA,NA,NA,NA,"",NA,NA,NA,NA,NA,NA,NA,NA,NA,2025-11-21 00:07:10
"10764.600000023842","https://psyc-201.github.io/xiang2023/exp/index1.html?PROLIFIC_PID=REDACTED&STUDY_ID=691f8ca61c6b4dcbb0aeb5f4&SESSION_ID=691fa9dd2c9bcc347268afb3","survey-html-form",34,321056,"0.0-346.0","jr9Pk2a5zj3HefZeqzTA+c1nY8Mva1g8aLYbh+I8su+pyBXeqc6EwlcNYT6MEljnDFVXJF5ZVoYstgzihoKpY5xBzZQwqnKfXd1zpENwTpG2uBBAxbBPNqAG+7zwuoOJCOD9nKbYYhcdtEVapyL6u5JvCY4T1N5re0c7vX9TmIpb+kyDXauYsoXSNb1U5/9qMGdRKZH4+ifSsivgqiB96O7loAvfyvUxujaNOZrytD4RgLAgSiP5Pj0S8Tw2dWdR3hmXW2cYgEDP0PK/v8KJAkq7U+1Ue34kLfK3S1EMOQsJYhFQXNHe02cXlnQHFQKXdj2eSxL0QBLVAgmED9XfEQ==","691f8ca61c6b4dcbb0aeb5f4","691fa9dd2c9bcc347268afb3","index1","<span style='color:red'>Fail,<span style='color:red'>Fail,<span style='color:green'>Lift,<span style='color:green'>Lift,<span style='color:red'>Fail,<span style='color:red'>Fail,<span style='color:red'>Fail,<span style='color:red'>Fail,<span style='color:green'>Lift,<span style='color:red'>Fail,<span style='color:red'>Fail,<span style='color:green'>Lift","<span style='color:red'>Fail,<span style='color:red'>Fail,<span style='color:green'>Lift,<span style='color:green'>Lift,<span style='color:green'>Lift,<span style='color:green'>Lift,<span style='color:red'>Fail,<span style='color:green'>Lift,<span style='color:green'>Lift,<span style='color:green'>Lift,<span style='color:red'>Fail,<span style='color:green'>Lift","<span style='color:red'>Fail,<span style='color:green'>Lift,<span style='color:green'>Lift,<span style='color:red'>Fail,<span style='color:green'>Lift,<span style='color:green'>Lift","0,0,1,1,0,0,0,0,1,0,0,1","0,0,1,1,1,1,0,1,1,1,0,1","0,1,1,0,1,1",10,20,20,"","","","","{""box1"":""1"",""box2"":""5"",""box4"":""50""}","",5,"round2_outcome",3,5,2,1,5,NA,50,0,1,20,NA,NA,NA,NA,NA,NA,NA,NA,NA,NA,NA,1,5,NA,50,0,1,20,NA,NA,NA,NA,NA,NA,NA,NA,NA,NA,NA,"",NA,NA,NA,NA,NA,NA,NA,NA,NA,2025-11-21 00:07:10
"6445.100000023842","https://psyc-201.github.io/xiang2023/exp/index1.html?PROLIFIC_PID=REDACTED&STUDY_ID=691f8ca61c6b4dcbb0aeb5f4&SESSION_ID=691fa9dd2c9bcc347268afb3","survey-html-form",35,327502,"0.0-347.0","jr9Pk2a5zj3HefZeqzTA+c1nY8Mva1g8aLYbh+I8su+pyBXeqc6EwlcNYT6MEljnDFVXJF5ZVoYstgzihoKpY5xBzZQwqnKfXd1zpENwTpG2uBBAxbBPNqAG+7zwuoOJCOD9nKbYYhcdtEVapyL6u5JvCY4T1N5re0c7vX9TmIpb+kyDXauYsoXSNb1U5/9qMGdRKZH4+ifSsivgqiB96O7loAvfyvUxujaNOZrytD4RgLAgSiP5Pj0S8Tw2dWdR3hmXW2cYgEDP0PK/v8KJAkq7U+1Ue34kLfK3S1EMOQsJYhFQXNHe02cXlnQHFQKXdj2eSxL0QBLVAgmED9XfEQ==","691f8ca61c6b4dcbb0aeb5f4","691fa9dd2c9bcc347268afb3","index1","<span style='color:red'>Fail,<span style='color:red'>Fail,<span style='color:green'>Lift,<span style='color:green'>Lift,<span style='color:red'>Fail,<span style='color:red'>Fail,<span style='color:red'>Fail,<span style='color:red'>Fail,<span style='color:green'>Lift,<span style='color:red'>Fail,<span style='color:red'>Fail,<span style='color:green'>Lift","<span style='color:red'>Fail,<span style='color:red'>Fail,<span style='color:green'>Lift,<span style='color:green'>Lift,<span style='color:green'>Lift,<span style='color:green'>Lift,<span style='color:red'>Fail,<span style='color:green'>Lift,<span style='color:green'>Lift,<span style='color:green'>Lift,<span style='color:red'>Fail,<span style='color:green'>Lift","<span style='color:red'>Fail,<span style='color:green'>Lift,<span style='color:green'>Lift,<span style='color:red'>Fail,<span style='color:green'>Lift,<span style='color:green'>Lift","0,0,1,1,0,0,0,0,1,0,0,1","0,0,1,1,1,1,0,1,1,1,0,1","0,1,1,0,1,1",10,20,20,"","","","","{""box1"":""90""}","",5,"round3_ready",4,5,3,NA,NA,NA,NA,NA,NA,NA,NA,NA,NA,NA,NA,NA,NA,90,90,NA,NA,NA,NA,NA,NA,NA,NA,NA,90,90,NA,NA,NA,NA,NA,NA,NA,NA,NA,"",NA,NA,NA,NA,NA,NA,NA,NA,NA,2025-11-21 00:07:10
"12693.800000011921","https://psyc-201.github.io/xiang2023/exp/index1.html?PROLIFIC_PID=REDACTED&STUDY_ID=691f8ca61c6b4dcbb0aeb5f4&SESSION_ID=691fa9dd2c9bcc347268afb3","survey-html-form",36,340197,"0.0-349.0-0.0","jr9Pk2a5zj3HefZeqzTA+c1nY8Mva1g8aLYbh+I8su+pyBXeqc6EwlcNYT6MEljnDFVXJF5ZVoYstgzihoKpY5xBzZQwqnKfXd1zpENwTpG2uBBAxbBPNqAG+7zwuoOJCOD9nKbYYhcdtEVapyL6u5JvCY4T1N5re0c7vX9TmIpb+kyDXauYsoXSNb1U5/9qMGdRKZH4+ifSsivgqiB96O7loAvfyvUxujaNOZrytD4RgLAgSiP5Pj0S8Tw2dWdR3hmXW2cYgEDP0PK/v8KJAkq7U+1Ue34kLfK3S1EMOQsJYhFQXNHe02cXlnQHFQKXdj2eSxL0QBLVAgmED9XfEQ==","691f8ca61c6b4dcbb0aeb5f4","691fa9dd2c9bcc347268afb3","index1","<span style='color:red'>Fail,<span style='color:red'>Fail,<span style='color:green'>Lift,<span style='color:green'>Lift,<span style='color:red'>Fail,<span style='color:red'>Fail,<span style='color:red'>Fail,<span style='color:red'>Fail,<span style='color:green'>Lift,<span style='color:red'>Fail,<span style='color:red'>Fail,<span style='color:green'>Lift","<span style='color:red'>Fail,<span style='color:red'>Fail,<span style='color:green'>Lift,<span style='color:green'>Lift,<span style='color:green'>Lift,<span style='color:green'>Lift,<span style='color:red'>Fail,<span style='color:green'>Lift,<span style='color:green'>Lift,<span style='color:green'>Lift,<span style='color:red'>Fail,<span style='color:green'>Lift","<span style='color:red'>Fail,<span style='color:green'>Lift,<span style='color:green'>Lift,<span style='color:red'>Fail,<span style='color:green'>Lift,<span style='color:green'>Lift","0,0,1,1,0,0,0,0,1,0,0,1","0,0,1,1,1,1,0,1,1,1,0,1","0,1,1,0,1,1",10,20,20,"","","","","{""box1"":""1"",""box2"":""4"",""box3"":""999"",""box4"":""999""}","",6,"round3_fail",5,5,3,1,4,NA,NA,0,0,20,NA,NA,NA,NA,NA,NA,NA,NA,NA,NA,NA,NA,NA,NA,NA,NA,NA,NA,NA,NA,1,4,NA,NA,0,0,20,1,1,"",NA,NA,NA,NA,NA,NA,NA,NA,NA,2025-11-21 00:07:10
"null","https://psyc-201.github.io/xiang2023/exp/index1.html?PROLIFIC_PID=REDACTED&STUDY_ID=691f8ca61c6b4dcbb0aeb5f4&SESSION_ID=691fa9dd2c9bcc347268afb3","html-keyboard-response",37,343201,"0.0-352.0","jr9Pk2a5zj3HefZeqzTA+c1nY8Mva1g8aLYbh+I8su+pyBXeqc6EwlcNYT6MEljnDFVXJF5ZVoYstgzihoKpY5xBzZQwqnKfXd1zpENwTpG2uBBAxbBPNqAG+7zwuoOJCOD9nKbYYhcdtEVapyL6u5JvCY4T1N5re0c7vX9TmIpb+kyDXauYsoXSNb1U5/9qMGdRKZH4+ifSsivgqiB96O7loAvfyvUxujaNOZrytD4RgLAgSiP5Pj0S8Tw2dWdR3hmXW2cYgEDP0PK/v8KJAkq7U+1Ue34kLfK3S1EMOQsJYhFQXNHe02cXlnQHFQKXdj2eSxL0QBLVAgmED9XfEQ==","691f8ca61c6b4dcbb0aeb5f4","691fa9dd2c9bcc347268afb3","index1","<span style='color:red'>Fail,<span style='color:red'>Fail,<span style='color:green'>Lift,<span style='color:green'>Lift,<span style='color:red'>Fail,<span style='color:red'>Fail,<span style='color:red'>Fail,<span style='color:red'>Fail,<span style='color:green'>Lift,<span style='color:red'>Fail,<span style='color:red'>Fail,<span style='color:green'>Lift","<span style='color:red'>Fail,<span style='color:red'>Fail,<span style='color:green'>Lift,<span style='color:green'>Lift,<span style='color:green'>Lift,<span style='color:green'>Lift,<span style='color:red'>Fail,<span style='color:green'>Lift,<span style='color:green'>Lift,<span style='color:green'>Lift,<span style='color:red'>Fail,<span style='color:green'>Lift","<span style='color:red'>Fail,<span style='color:green'>Lift,<span style='color:green'>Lift,<span style='color:red'>Fail,<span style='color:green'>Lift,<span style='color:green'>Lift","0,0,1,1,0,0,0,0,1,0,0,1","0,0,1,1,1,1,0,1,1,1,0,1","0,1,1,0,1,1",10,20,20,"","","<p style='font-size:30px'><b> New Contest! </b></p>","null","","",6,"",NA,NA,NA,NA,NA,NA,NA,NA,NA,NA,NA,NA,NA,NA,NA,NA,NA,NA,NA,NA,NA,NA,NA,NA,NA,NA,NA,NA,NA,NA,NA,NA,NA,NA,NA,NA,NA,NA,NA,"",NA,NA,NA,NA,NA,NA,NA,NA,NA,2025-11-21 00:07:10
"5456.700000047684","https://psyc-201.github.io/xiang2023/exp/index1.html?PROLIFIC_PID=REDACTED&STUDY_ID=691f8ca61c6b4dcbb0aeb5f4&SESSION_ID=691fa9dd2c9bcc347268afb3","survey-html-form",38,348659,"0.0-353.0","jr9Pk2a5zj3HefZeqzTA+c1nY8Mva1g8aLYbh+I8su+pyBXeqc6EwlcNYT6MEljnDFVXJF5ZVoYstgzihoKpY5xBzZQwqnKfXd1zpENwTpG2uBBAxbBPNqAG+7zwuoOJCOD9nKbYYhcdtEVapyL6u5JvCY4T1N5re0c7vX9TmIpb+kyDXauYsoXSNb1U5/9qMGdRKZH4+ifSsivgqiB96O7loAvfyvUxujaNOZrytD4RgLAgSiP5Pj0S8Tw2dWdR3hmXW2cYgEDP0PK/v8KJAkq7U+1Ue34kLfK3S1EMOQsJYhFQXNHe02cXlnQHFQKXdj2eSxL0QBLVAgmED9XfEQ==","691f8ca61c6b4dcbb0aeb5f4","691fa9dd2c9bcc347268afb3","index1","<span style='color:red'>Fail,<span style='color:red'>Fail,<span style='color:green'>Lift,<span style='color:green'>Lift,<span style='color:red'>Fail,<span style='color:red'>Fail,<span style='color:red'>Fail,<span style='color:red'>Fail,<span style='color:green'>Lift,<span style='color:red'>Fail,<span style='color:red'>Fail,<span style='color:green'>Lift","<span style='color:red'>Fail,<span style='color:red'>Fail,<span style='color:green'>Lift,<span style='color:green'>Lift,<span style='color:green'>Lift,<span style='color:green'>Lift,<span style='color:red'>Fail,<span style='color:green'>Lift,<span style='color:green'>Lift,<span style='color:green'>Lift,<span style='color:red'>Fail,<span style='color:green'>Lift","<span style='color:red'>Fail,<span style='color:green'>Lift,<span style='color:green'>Lift,<span style='color:red'>Fail,<span style='color:green'>Lift,<span style='color:green'>Lift","0,0,1,1,0,0,0,0,1,0,0,1","0,0,1,1,1,1,0,1,1,1,0,1","0,1,1,0,1,1",10,20,20,"","","","","{""box1"":""3"",""box2"":""3""}","",6,"round1_outcome",1,6,1,3,3,NA,NA,0,0,10,3,3,NA,NA,0,0,10,NA,NA,NA,NA,NA,NA,NA,NA,NA,NA,NA,NA,NA,NA,NA,NA,NA,NA,NA,NA,NA,NA,"",NA,NA,NA,NA,NA,NA,NA,NA,NA,2025-11-21 00:07:10
"5465.5","https://psyc-201.github.io/xiang2023/exp/index1.html?PROLIFIC_PID=REDACTED&STUDY_ID=691f8ca61c6b4dcbb0aeb5f4&SESSION_ID=691fa9dd2c9bcc347268afb3","survey-html-form",39,354125,"0.0-354.0","jr9Pk2a5zj3HefZeqzTA+c1nY8Mva1g8aLYbh+I8su+pyBXeqc6EwlcNYT6MEljnDFVXJF5ZVoYstgzihoKpY5xBzZQwqnKfXd1zpENwTpG2uBBAxbBPNqAG+7zwuoOJCOD9nKbYYhcdtEVapyL6u5JvCY4T1N5re0c7vX9TmIpb+kyDXauYsoXSNb1U5/9qMGdRKZH4+ifSsivgqiB96O7loAvfyvUxujaNOZrytD4RgLAgSiP5Pj0S8Tw2dWdR3hmXW2cYgEDP0PK/v8KJAkq7U+1Ue34kLfK3S1EMOQsJYhFQXNHe02cXlnQHFQKXdj2eSxL0QBLVAgmED9XfEQ==","691f8ca61c6b4dcbb0aeb5f4","691fa9dd2c9bcc347268afb3","index1","<span style='color:red'>Fail,<span style='color:red'>Fail,<span style='color:green'>Lift,<span style='color:green'>Lift,<span style='color:red'>Fail,<span style='color:red'>Fail,<span style='color:red'>Fail,<span style='color:red'>Fail,<span style='color:green'>Lift,<span style='color:red'>Fail,<span style='color:red'>Fail,<span style='color:green'>Lift","<span style='color:red'>Fail,<span style='color:red'>Fail,<span style='color:green'>Lift,<span style='color:green'>Lift,<span style='color:green'>Lift,<span style='color:green'>Lift,<span style='color:red'>Fail,<span style='color:green'>Lift,<span style='color:green'>Lift,<span style='color:green'>Lift,<span style='color:red'>Fail,<span style='color:green'>Lift","<span style='color:red'>Fail,<span style='color:green'>Lift,<span style='color:green'>Lift,<span style='color:red'>Fail,<span style='color:green'>Lift,<span style='color:green'>Lift","0,0,1,1,0,0,0,0,1,0,0,1","0,0,1,1,1,1,0,1,1,1,0,1","0,1,1,0,1,1",10,20,20,"","","","","{""box1"":""40"",""box2"":""40""}","",6,"round2_ready",2,6,2,NA,NA,NA,NA,NA,NA,NA,NA,NA,NA,NA,NA,NA,NA,40,40,40,40,NA,NA,NA,NA,NA,NA,NA,NA,NA,NA,NA,NA,NA,NA,NA,NA,NA,NA,"",NA,NA,NA,NA,NA,NA,NA,NA,NA,2025-11-21 00:07:10
"3354.099999964237","https://psyc-201.github.io/xiang2023/exp/index1.html?PROLIFIC_PID=REDACTED&STUDY_ID=691f8ca61c6b4dcbb0aeb5f4&SESSION_ID=691fa9dd2c9bcc347268afb3","survey-html-form",40,357480,"0.0-355.0","jr9Pk2a5zj3HefZeqzTA+c1nY8Mva1g8aLYbh+I8su+pyBXeqc6EwlcNYT6MEljnDFVXJF5ZVoYstgzihoKpY5xBzZQwqnKfXd1zpENwTpG2uBBAxbBPNqAG+7zwuoOJCOD9nKbYYhcdtEVapyL6u5JvCY4T1N5re0c7vX9TmIpb+kyDXauYsoXSNb1U5/9qMGdRKZH4+ifSsivgqiB96O7loAvfyvUxujaNOZrytD4RgLAgSiP5Pj0S8Tw2dWdR3hmXW2cYgEDP0PK/v8KJAkq7U+1Ue34kLfK3S1EMOQsJYhFQXNHe02cXlnQHFQKXdj2eSxL0QBLVAgmED9XfEQ==","691f8ca61c6b4dcbb0aeb5f4","691fa9dd2c9bcc347268afb3","index1","<span style='color:red'>Fail,<span style='color:red'>Fail,<span style='color:green'>Lift,<span style='color:green'>Lift,<span style='color:red'>Fail,<span style='color:red'>Fail,<span style='color:red'>Fail,<span style='color:red'>Fail,<span style='color:green'>Lift,<span style='color:red'>Fail,<span style='color:red'>Fail,<span style='color:green'>Lift","<span style='color:red'>Fail,<span style='color:red'>Fail,<span style='color:green'>Lift,<span style='color:green'>Lift,<span style='color:green'>Lift,<span style='color:green'>Lift,<span style='color:red'>Fail,<span style='color:green'>Lift,<span style='color:green'>Lift,<span style='color:green'>Lift,<span style='color:red'>Fail,<span style='color:green'>Lift","<span style='color:red'>Fail,<span style='color:green'>Lift,<span style='color:green'>Lift,<span style='color:red'>Fail,<span style='color:green'>Lift,<span style='color:green'>Lift","0,0,1,1,0,0,0,0,1,0,0,1","0,0,1,1,1,1,0,1,1,1,0,1","0,1,1,0,1,1",10,20,20,"","","","","{""box1"":""1"",""box2"":""1""}","",6,"round2_outcome",3,6,2,1,1,NA,NA,0,0,20,NA,NA,NA,NA,NA,NA,NA,NA,NA,NA,NA,1,1,NA,NA,0,0,20,NA,NA,NA,NA,NA,NA,NA,NA,NA,NA,NA,"",NA,NA,NA,NA,NA,NA,NA,NA,NA,2025-11-21 00:07:10
"4904.5","https://psyc-201.github.io/xiang2023/exp/index1.html?PROLIFIC_PID=REDACTED&STUDY_ID=691f8ca61c6b4dcbb0aeb5f4&SESSION_ID=691fa9dd2c9bcc347268afb3","survey-html-form",41,362385,"0.0-356.0","jr9Pk2a5zj3HefZeqzTA+c1nY8Mva1g8aLYbh+I8su+pyBXeqc6EwlcNYT6MEljnDFVXJF5ZVoYstgzihoKpY5xBzZQwqnKfXd1zpENwTpG2uBBAxbBPNqAG+7zwuoOJCOD9nKbYYhcdtEVapyL6u5JvCY4T1N5re0c7vX9TmIpb+kyDXauYsoXSNb1U5/9qMGdRKZH4+ifSsivgqiB96O7loAvfyvUxujaNOZrytD4RgLAgSiP5Pj0S8Tw2dWdR3hmXW2cYgEDP0PK/v8KJAkq7U+1Ue34kLfK3S1EMOQsJYhFQXNHe02cXlnQHFQKXdj2eSxL0QBLVAgmED9XfEQ==","691f8ca61c6b4dcbb0aeb5f4","691fa9dd2c9bcc347268afb3","index1","<span style='color:red'>Fail,<span style='color:red'>Fail,<span style='color:green'>Lift,<span style='color:green'>Lift,<span style='color:red'>Fail,<span style='color:red'>Fail,<span style='color:red'>Fail,<span style='color:red'>Fail,<span style='color:green'>Lift,<span style='color:red'>Fail,<span style='color:red'>Fail,<span style='color:green'>Lift","<span style='color:red'>Fail,<span style='color:red'>Fail,<span style='color:green'>Lift,<span style='color:green'>Lift,<span style='color:green'>Lift,<span style='color:green'>Lift,<span style='color:red'>Fail,<span style='color:green'>Lift,<span style='color:green'>Lift,<span style='color:green'>Lift,<span style='color:red'>Fail,<span style='color:green'>Lift","<span style='color:red'>Fail,<span style='color:green'>Lift,<span style='color:green'>Lift,<span style='color:red'>Fail,<span style='color:green'>Lift,<span style='color:green'>Lift","0,0,1,1,0,0,0,0,1,0,0,1","0,0,1,1,1,1,0,1,1,1,0,1","0,1,1,0,1,1",10,20,20,"","","","","{""box1"":""25""}","",6,"round3_ready",4,6,3,NA,NA,NA,NA,NA,NA,NA,NA,NA,NA,NA,NA,NA,NA,25,25,NA,NA,NA,NA,NA,NA,NA,NA,NA,25,25,NA,NA,NA,NA,NA,NA,NA,NA,NA,"",NA,NA,NA,NA,NA,NA,NA,NA,NA,2025-11-21 00:07:10
"8451.299999952316","https://psyc-201.github.io/xiang2023/exp/index1.html?PROLIFIC_PID=REDACTED&STUDY_ID=691f8ca61c6b4dcbb0aeb5f4&SESSION_ID=691fa9dd2c9bcc347268afb3","survey-html-form",42,370837,"0.0-358.0-0.0","jr9Pk2a5zj3HefZeqzTA+c1nY8Mva1g8aLYbh+I8su+pyBXeqc6EwlcNYT6MEljnDFVXJF5ZVoYstgzihoKpY5xBzZQwqnKfXd1zpENwTpG2uBBAxbBPNqAG+7zwuoOJCOD9nKbYYhcdtEVapyL6u5JvCY4T1N5re0c7vX9TmIpb+kyDXauYsoXSNb1U5/9qMGdRKZH4+ifSsivgqiB96O7loAvfyvUxujaNOZrytD4RgLAgSiP5Pj0S8Tw2dWdR3hmXW2cYgEDP0PK/v8KJAkq7U+1Ue34kLfK3S1EMOQsJYhFQXNHe02cXlnQHFQKXdj2eSxL0QBLVAgmED9XfEQ==","691f8ca61c6b4dcbb0aeb5f4","691fa9dd2c9bcc347268afb3","index1","<span style='color:red'>Fail,<span style='color:red'>Fail,<span style='color:green'>Lift,<span style='color:green'>Lift,<span style='color:red'>Fail,<span style='color:red'>Fail,<span style='color:red'>Fail,<span style='color:red'>Fail,<span style='color:green'>Lift,<span style='color:red'>Fail,<span style='color:red'>Fail,<span style='color:green'>Lift","<span style='color:red'>Fail,<span style='color:red'>Fail,<span style='color:green'>Lift,<span style='color:green'>Lift,<span style='color:green'>Lift,<span style='color:green'>Lift,<span style='color:red'>Fail,<span style='color:green'>Lift,<span style='color:green'>Lift,<span style='color:green'>Lift,<span style='color:red'>Fail,<span style='color:green'>Lift","<span style='color:red'>Fail,<span style='color:green'>Lift,<span style='color:green'>Lift,<span style='color:red'>Fail,<span style='color:green'>Lift,<span style='color:green'>Lift","0,0,1,1,0,0,0,0,1,0,0,1","0,0,1,1,1,1,0,1,1,1,0,1","0,1,1,0,1,1",10,20,20,"","","","","{""box1"":""1"",""box2"":""1"",""box3"":""999"",""box4"":""999""}","",6,"round3_fail",5,6,3,1,1,NA,NA,0,0,20,NA,NA,NA,NA,NA,NA,NA,NA,NA,NA,NA,NA,NA,NA,NA,NA,NA,NA,NA,NA,1,1,NA,NA,0,0,20,1,1,"",NA,NA,NA,NA,NA,NA,NA,NA,NA,2025-11-21 00:07:10
"31722.400000035763","https://psyc-201.github.io/xiang2023/exp/index1.html?PROLIFIC_PID=REDACTED&STUDY_ID=691f8ca61c6b4dcbb0aeb5f4&SESSION_ID=691fa9dd2c9bcc347268afb3","survey-text",43,402561,"0.0-361.0","jr9Pk2a5zj3HefZeqzTA+c1nY8Mva1g8aLYbh+I8su+pyBXeqc6EwlcNYT6MEljnDFVXJF5ZVoYstgzihoKpY5xBzZQwqnKfXd1zpENwTpG2uBBAxbBPNqAG+7zwuoOJCOD9nKbYYhcdtEVapyL6u5JvCY4T1N5re0c7vX9TmIpb+kyDXauYsoXSNb1U5/9qMGdRKZH4+ifSsivgqiB96O7loAvfyvUxujaNOZrytD4RgLAgSiP5Pj0S8Tw2dWdR3hmXW2cYgEDP0PK/v8KJAkq7U+1Ue34kLfK3S1EMOQsJYhFQXNHe02cXlnQHFQKXdj2eSxL0QBLVAgmED9XfEQ==","691f8ca61c6b4dcbb0aeb5f4","691fa9dd2c9bcc347268afb3","index1","<span style='color:red'>Fail,<span style='color:red'>Fail,<span style='color:green'>Lift,<span style='color:green'>Lift,<span style='color:red'>Fail,<span style='color:red'>Fail,<span style='color:red'>Fail,<span style='color:red'>Fail,<span style='color:green'>Lift,<span style='color:red'>Fail,<span style='color:red'>Fail,<span style='color:green'>Lift","<span style='color:red'>Fail,<span style='color:red'>Fail,<span style='color:green'>Lift,<span style='color:green'>Lift,<span style='color:green'>Lift,<span style='color:green'>Lift,<span style='color:red'>Fail,<span style='color:green'>Lift,<span style='color:green'>Lift,<span style='color:green'>Lift,<span style='color:red'>Fail,<span style='color:green'>Lift","<span style='color:red'>Fail,<span style='color:green'>Lift,<span style='color:green'>Lift,<span style='color:red'>Fail,<span style='color:green'>Lift,<span style='color:green'>Lift","0,0,1,1,0,0,0,0,1,0,0,1","0,0,1,1,1,1,0,1,1,1,0,1","0,1,1,0,1,1",10,20,20,"","","","","{""Q0"":""I had to rate how strong or weak I perceived contestants in a box lifting game and their percent likelihood of lifting the box along with their effort level.""}","",NA,"",NA,NA,NA,NA,NA,NA,NA,NA,NA,NA,NA,NA,NA,NA,NA,NA,NA,NA,NA,NA,NA,NA,NA,NA,NA,NA,NA,NA,NA,NA,NA,NA,NA,NA,NA,NA,NA,NA,NA,"",NA,NA,NA,NA,NA,NA,NA,NA,NA,2025-11-21 00:07:10
"3988.400000035763","https://psyc-201.github.io/xiang2023/exp/index1.html?PROLIFIC_PID=REDACTED&STUDY_ID=691f8ca61c6b4dcbb0aeb5f4&SESSION_ID=691fa9dd2c9bcc347268afb3","survey-text",44,406551,"0.0-362.0","jr9Pk2a5zj3HefZeqzTA+c1nY8Mva1g8aLYbh+I8su+pyBXeqc6EwlcNYT6MEljnDFVXJF5ZVoYstgzihoKpY5xBzZQwqnKfXd1zpENwTpG2uBBAxbBPNqAG+7zwuoOJCOD9nKbYYhcdtEVapyL6u5JvCY4T1N5re0c7vX9TmIpb+kyDXauYsoXSNb1U5/9qMGdRKZH4+ifSsivgqiB96O7loAvfyvUxujaNOZrytD4RgLAgSiP5Pj0S8Tw2dWdR3hmXW2cYgEDP0PK/v8KJAkq7U+1Ue34kLfK3S1EMOQsJYhFQXNHe02cXlnQHFQKXdj2eSxL0QBLVAgmED9XfEQ==","691f8ca61c6b4dcbb0aeb5f4","691fa9dd2c9bcc347268afb3","index1","<span style='color:red'>Fail,<span style='color:red'>Fail,<span style='color:green'>Lift,<span style='color:green'>Lift,<span style='color:red'>Fail,<span style='color:red'>Fail,<span style='color:red'>Fail,<span style='color:red'>Fail,<span style='color:green'>Lift,<span style='color:red'>Fail,<span style='color:red'>Fail,<span style='color:green'>Lift","<span style='color:red'>Fail,<span style='color:red'>Fail,<span style='color:green'>Lift,<span style='color:green'>Lift,<span style='color:green'>Lift,<span style='color:green'>Lift,<span style='color:red'>Fail,<span style='color:green'>Lift,<span style='color:green'>Lift,<span style='color:green'>Lift,<span style='color:red'>Fail,<span style='color:green'>Lift","<span style='color:red'>Fail,<span style='color:green'>Lift,<span style='color:green'>Lift,<span style='color:red'>Fail,<span style='color:green'>Lift,<span style='color:green'>Lift","0,0,1,1,0,0,0,0,1,0,0,1","0,0,1,1,1,1,0,1,1,1,0,1","0,1,1,0,1,1",10,20,20,"","","","","{""Q0"":""""}","",NA,"",NA,NA,NA,NA,NA,NA,NA,NA,NA,NA,NA,NA,NA,NA,NA,NA,NA,NA,NA,NA,NA,NA,NA,NA,NA,NA,NA,NA,NA,NA,NA,NA,NA,NA,NA,NA,NA,NA,NA,"[{""event"":""fullscreenenter"",""trial"":1,""time"":2586}]",6,3,NA,25,0,0.75,NA,NA,NA,2025-11-21 00:07:10
"4296.899999976158","https://psyc-201.github.io/xiang2023/exp/index1.html?PROLIFIC_PID=REDACTED&STUDY_ID=691f8ca61c6b4dcbb0aeb5f4&SESSION_ID=691fa9dd2c9bcc347268afb3","html-button-response",45,410849,"0.0-363.0","jr9Pk2a5zj3HefZeqzTA+c1nY8Mva1g8aLYbh+I8su+pyBXeqc6EwlcNYT6MEljnDFVXJF5ZVoYstgzihoKpY5xBzZQwqnKfXd1zpENwTpG2uBBAxbBPNqAG+7zwuoOJCOD9nKbYYhcdtEVapyL6u5JvCY4T1N5re0c7vX9TmIpb+kyDXauYsoXSNb1U5/9qMGdRKZH4+ifSsivgqiB96O7loAvfyvUxujaNOZrytD4RgLAgSiP5Pj0S8Tw2dWdR3hmXW2cYgEDP0PK/v8KJAkq7U+1Ue34kLfK3S1EMOQsJYhFQXNHe02cXlnQHFQKXdj2eSxL0QBLVAgmED9XfEQ==","691f8ca61c6b4dcbb0aeb5f4","691fa9dd2c9bcc347268afb3","index1","<span style='color:red'>Fail,<span style='color:red'>Fail,<span style='color:green'>Lift,<span style='color:green'>Lift,<span style='color:red'>Fail,<span style='color:red'>Fail,<span style='color:red'>Fail,<span style='color:red'>Fail,<span style='color:green'>Lift,<span style='color:red'>Fail,<span style='color:red'>Fail,<span style='color:green'>Lift","<span style='color:red'>Fail,<span style='color:red'>Fail,<span style='color:green'>Lift,<span style='color:green'>Lift,<span style='color:green'>Lift,<span style='color:green'>Lift,<span style='color:red'>Fail,<span style='color:green'>Lift,<span style='color:green'>Lift,<span style='color:green'>Lift,<span style='color:red'>Fail,<span style='color:green'>Lift","<span style='color:red'>Fail,<span style='color:green'>Lift,<span style='color:green'>Lift,<span style='color:red'>Fail,<span style='color:green'>Lift,<span style='color:green'>Lift","0,0,1,1,0,0,0,0,1,0,0,1","0,0,1,1,1,1,0,1,1,1,0,1","0,1,1,0,1,1",10,20,20,"","","<p> We randomly picked <b>Contest 6, Round 3</b> to calculate your bonus. </p><p> The outcome of Contestant K and L on that round is <span style='color:red'>Fail</span>. </p><p> The probability you entered was 25. </p><p><b> You won a bonus of $0.75!</b></p><p> IMPORTANT: Please click 'Next' to complete the game. </p>","","","",NA,"",NA,NA,NA,NA,NA,NA,NA,NA,NA,NA,NA,NA,NA,NA,NA,NA,NA,NA,NA,NA,NA,NA,NA,NA,NA,NA,NA,NA,NA,NA,NA,NA,NA,NA,NA,NA,NA,NA,NA,"",NA,NA,NA,NA,NA,NA,0,2,1,2025-11-21 00:07:10
