"rt","url","trial_type","trial_index","time_elapsed","internal_node_id","encryptedProlificId","studyId","sessionId","expIndex","round1_outcomes","round2_outcomes","round3_outcomes","round1_o","round2_o","round3_o","round1_reward","round2_reward","round3_reward","success","view_history","stimulus","key_press","responses","question_order","j","Stage","stage","contest","round","strength_a","strength_b","effort_a","effort_b","outcome_a","outcome_b","reward","r1_strength_a","r1_strength_b","r1_effort_a","r1_effort_b","r1_outcome_a","r1_outcome_b","r1_reward","probability_a","probability_b","r2_prob_a","r2_prob_b","r2_strength_a","r2_strength_b","r2_effort_a","r2_effort_b","r2_outcome_a","r2_outcome_b","r2_reward","r3_prob_a","r3_prob_b","attention_check","count","r3_strength_a","r3_strength_b","r3_outcome_a","r3_outcome_b","r3_reward","r3_effort_a","r3_effort_b","screen","pick_contest","pick_round","pick_side","trial_probability","trial_outcome","bonus","button_pressed","attention_sum","attention","datapipe_meta.attributes.date_modified"
"7447","https://psyc-201.github.io/xiang2023/exp/index1.html?PROLIFIC_PID=REDACTED&STUDY_ID=691f8ca61c6b4dcbb0aeb5f4&SESSION_ID=691fba1f6ab8ca48620a9201","external-html",0,7513,"0.0-0.0","H6i06F4Ntuz6DsY9vC3WlXz52nH8wSb/zgQg9oiwnBnOmn4jJ4Hb+G58K9pKqv/jjdJGlBt+FZecmqi9UYJXjjDRirNJzZyMYDdqRS45yHVKIOmUj3cadK3NB52dcreMhfIdOtQAHE5DU6P7ke1DTJKt8VUuLy2Q3DrEp2oO2K1Tt8T7zia79tLq+N/Pmrc66FMlMY/RNeVrKlVgdfd1R83HSf1ogHgjSypVseKPuETHhXwIPW+O4cvcRHEQVXDbtWMVdkarPQpEUJYBxb/HK8dDvlpMrxqVgp9upcvz38EG2qkSt+JTdg+EW1mlohulyb9yhDttZKisuTDum9F3gw==","691f8ca61c6b4dcbb0aeb5f4","691fba1f6ab8ca48620a9201","index1","<span style='color:red'>Fail,<span style='color:red'>Fail,<span style='color:green'>Lift,<span style='color:green'>Lift,<span style='color:red'>Fail,<span style='color:red'>Fail,<span style='color:red'>Fail,<span style='color:red'>Fail,<span style='color:red'>Fail,<span style='color:green'>Lift,<span style='color:green'>Lift,<span style='color:red'>Fail","<span style='color:red'>Fail,<span style='color:red'>Fail,<span style='color:green'>Lift,<span style='color:green'>Lift,<span style='color:green'>Lift,<span style='color:green'>Lift,<span style='color:red'>Fail,<span style='color:green'>Lift,<span style='color:green'>Lift,<span style='color:green'>Lift,<span style='color:green'>Lift,<span style='color:red'>Fail","<span style='color:red'>Fail,<span style='color:green'>Lift,<span style='color:green'>Lift,<span style='color:red'>Fail,<span style='color:green'>Lift,<span style='color:green'>Lift","0,0,1,1,0,0,0,0,0,1,1,0","0,0,1,1,1,1,0,1,1,1,1,0","0,1,1,0,1,1",10,20,20,"","","","","","",NA,"",NA,NA,NA,NA,NA,NA,NA,NA,NA,NA,NA,NA,NA,NA,NA,NA,NA,NA,NA,NA,NA,NA,NA,NA,NA,NA,NA,NA,NA,NA,NA,NA,NA,NA,NA,NA,NA,NA,NA,"",NA,NA,NA,NA,NA,NA,NA,NA,NA,2025-11-21 01:14:39
"","https://psyc-201.github.io/xiang2023/exp/index1.html?PROLIFIC_PID=REDACTED&STUDY_ID=691f8ca61c6b4dcbb0aeb5f4&SESSION_ID=691fba1f6ab8ca48620a9201","fullscreen",1,10779,"0.0-1.0","H6i06F4Ntuz6DsY9vC3WlXz52nH8wSb/zgQg9oiwnBnOmn4jJ4Hb+G58K9pKqv/jjdJGlBt+FZecmqi9UYJXjjDRirNJzZyMYDdqRS45yHVKIOmUj3cadK3NB52dcreMhfIdOtQAHE5DU6P7ke1DTJKt8VUuLy2Q3DrEp2oO2K1Tt8T7zia79tLq+N/Pmrc66FMlMY/RNeVrKlVgdfd1R83HSf1ogHgjSypVseKPuETHhXwIPW+O4cvcRHEQVXDbtWMVdkarPQpEUJYBxb/HK8dDvlpMrxqVgp9upcvz38EG2qkSt+JTdg+EW1mlohulyb9yhDttZKisuTDum9F3gw==","691f8ca61c6b4dcbb0aeb5f4","691fba1f6ab8ca48620a9201","index1","<span style='color:red'>Fail,<span style='color:red'>Fail,<span style='color:green'>Lift,<span style='color:green'>Lift,<span style='color:red'>Fail,<span style='color:red'>Fail,<span style='color:red'>Fail,<span style='color:red'>Fail,<span style='color:red'>Fail,<span style='color:green'>Lift,<span style='color:green'>Lift,<span style='color:red'>Fail","<span style='color:red'>Fail,<span style='color:red'>Fail,<span style='color:green'>Lift,<span style='color:green'>Lift,<span style='color:green'>Lift,<span style='color:green'>Lift,<span style='color:red'>Fail,<span style='color:green'>Lift,<span style='color:green'>Lift,<span style='color:green'>Lift,<span style='color:green'>Lift,<span style='color:red'>Fail","<span style='color:red'>Fail,<span style='color:green'>Lift,<span style='color:green'>Lift,<span style='color:red'>Fail,<span style='color:green'>Lift,<span style='color:green'>Lift","0,0,1,1,0,0,0,0,0,1,1,0","0,0,1,1,1,1,0,1,1,1,1,0","0,1,1,0,1,1",10,20,20,"true","","","","","",NA,"",NA,NA,NA,NA,NA,NA,NA,NA,NA,NA,NA,NA,NA,NA,NA,NA,NA,NA,NA,NA,NA,NA,NA,NA,NA,NA,NA,NA,NA,NA,NA,NA,NA,NA,NA,NA,NA,NA,NA,"",NA,NA,NA,NA,NA,NA,NA,NA,NA,2025-11-21 01:14:39
"173152","https://psyc-201.github.io/xiang2023/exp/index1.html?PROLIFIC_PID=REDACTED&STUDY_ID=691f8ca61c6b4dcbb0aeb5f4&SESSION_ID=691fba1f6ab8ca48620a9201","instructions",2,183935,"0.0-2.0","H6i06F4Ntuz6DsY9vC3WlXz52nH8wSb/zgQg9oiwnBnOmn4jJ4Hb+G58K9pKqv/jjdJGlBt+FZecmqi9UYJXjjDRirNJzZyMYDdqRS45yHVKIOmUj3cadK3NB52dcreMhfIdOtQAHE5DU6P7ke1DTJKt8VUuLy2Q3DrEp2oO2K1Tt8T7zia79tLq+N/Pmrc66FMlMY/RNeVrKlVgdfd1R83HSf1ogHgjSypVseKPuETHhXwIPW+O4cvcRHEQVXDbtWMVdkarPQpEUJYBxb/HK8dDvlpMrxqVgp9upcvz38EG2qkSt+JTdg+EW1mlohulyb9yhDttZKisuTDum9F3gw==","691f8ca61c6b4dcbb0aeb5f4","691fba1f6ab8ca48620a9201","index1","<span style='color:red'>Fail,<span style='color:red'>Fail,<span style='color:green'>Lift,<span style='color:green'>Lift,<span style='color:red'>Fail,<span style='color:red'>Fail,<span style='color:red'>Fail,<span style='color:red'>Fail,<span style='color:red'>Fail,<span style='color:green'>Lift,<span style='color:green'>Lift,<span style='color:red'>Fail","<span style='color:red'>Fail,<span style='color:red'>Fail,<span style='color:green'>Lift,<span style='color:green'>Lift,<span style='color:green'>Lift,<span style='color:green'>Lift,<span style='color:red'>Fail,<span style='color:green'>Lift,<span style='color:green'>Lift,<span style='color:green'>Lift,<span style='color:green'>Lift,<span style='color:red'>Fail","<span style='color:red'>Fail,<span style='color:green'>Lift,<span style='color:green'>Lift,<span style='color:red'>Fail,<span style='color:green'>Lift,<span style='color:green'>Lift","0,0,1,1,0,0,0,0,0,1,1,0","0,0,1,1,1,1,0,1,1,1,1,0","0,1,1,0,1,1",10,20,20,"","[{""page_index"":0,""viewing_time"":58149},{""page_index"":1,""viewing_time"":22527},{""page_index"":2,""viewing_time"":15838},{""page_index"":3,""viewing_time"":35126},{""page_index"":4,""viewing_time"":15539},{""page_index"":5,""viewing_time"":17903},{""page_index"":6,""viewing_time"":8070}]","","","","",NA,"",NA,NA,NA,NA,NA,NA,NA,NA,NA,NA,NA,NA,NA,NA,NA,NA,NA,NA,NA,NA,NA,NA,NA,NA,NA,NA,NA,NA,NA,NA,NA,NA,NA,NA,NA,NA,NA,NA,NA,"",NA,NA,NA,NA,NA,NA,NA,NA,NA,2025-11-21 01:14:39
"null","https://psyc-201.github.io/xiang2023/exp/index1.html?PROLIFIC_PID=REDACTED&STUDY_ID=691f8ca61c6b4dcbb0aeb5f4&SESSION_ID=691fba1f6ab8ca48620a9201","html-keyboard-response",3,184996,"0.0-3.0","H6i06F4Ntuz6DsY9vC3WlXz52nH8wSb/zgQg9oiwnBnOmn4jJ4Hb+G58K9pKqv/jjdJGlBt+FZecmqi9UYJXjjDRirNJzZyMYDdqRS45yHVKIOmUj3cadK3NB52dcreMhfIdOtQAHE5DU6P7ke1DTJKt8VUuLy2Q3DrEp2oO2K1Tt8T7zia79tLq+N/Pmrc66FMlMY/RNeVrKlVgdfd1R83HSf1ogHgjSypVseKPuETHhXwIPW+O4cvcRHEQVXDbtWMVdkarPQpEUJYBxb/HK8dDvlpMrxqVgp9upcvz38EG2qkSt+JTdg+EW1mlohulyb9yhDttZKisuTDum9F3gw==","691f8ca61c6b4dcbb0aeb5f4","691fba1f6ab8ca48620a9201","index1","<span style='color:red'>Fail,<span style='color:red'>Fail,<span style='color:green'>Lift,<span style='color:green'>Lift,<span style='color:red'>Fail,<span style='color:red'>Fail,<span style='color:red'>Fail,<span style='color:red'>Fail,<span style='color:red'>Fail,<span style='color:green'>Lift,<span style='color:green'>Lift,<span style='color:red'>Fail","<span style='color:red'>Fail,<span style='color:red'>Fail,<span style='color:green'>Lift,<span style='color:green'>Lift,<span style='color:green'>Lift,<span style='color:green'>Lift,<span style='color:red'>Fail,<span style='color:green'>Lift,<span style='color:green'>Lift,<span style='color:green'>Lift,<span style='color:green'>Lift,<span style='color:red'>Fail","<span style='color:red'>Fail,<span style='color:green'>Lift,<span style='color:green'>Lift,<span style='color:red'>Fail,<span style='color:green'>Lift,<span style='color:green'>Lift","0,0,1,1,0,0,0,0,0,1,1,0","0,0,1,1,1,1,0,1,1,1,1,0","0,1,1,0,1,1",10,20,20,"",""," ","null","","",NA,"",NA,NA,NA,NA,NA,NA,NA,NA,NA,NA,NA,NA,NA,NA,NA,NA,NA,NA,NA,NA,NA,NA,NA,NA,NA,NA,NA,NA,NA,NA,NA,NA,NA,NA,NA,NA,NA,NA,NA,"",NA,NA,NA,NA,NA,NA,NA,NA,NA,2025-11-21 01:14:39
"22723","https://psyc-201.github.io/xiang2023/exp/index1.html?PROLIFIC_PID=REDACTED&STUDY_ID=691f8ca61c6b4dcbb0aeb5f4&SESSION_ID=691fba1f6ab8ca48620a9201","survey-multi-choice",4,207723,"0.0-4.0","H6i06F4Ntuz6DsY9vC3WlXz52nH8wSb/zgQg9oiwnBnOmn4jJ4Hb+G58K9pKqv/jjdJGlBt+FZecmqi9UYJXjjDRirNJzZyMYDdqRS45yHVKIOmUj3cadK3NB52dcreMhfIdOtQAHE5DU6P7ke1DTJKt8VUuLy2Q3DrEp2oO2K1Tt8T7zia79tLq+N/Pmrc66FMlMY/RNeVrKlVgdfd1R83HSf1ogHgjSypVseKPuETHhXwIPW+O4cvcRHEQVXDbtWMVdkarPQpEUJYBxb/HK8dDvlpMrxqVgp9upcvz38EG2qkSt+JTdg+EW1mlohulyb9yhDttZKisuTDum9F3gw==","691f8ca61c6b4dcbb0aeb5f4","691fba1f6ab8ca48620a9201","index1","<span style='color:red'>Fail,<span style='color:red'>Fail,<span style='color:green'>Lift,<span style='color:green'>Lift,<span style='color:red'>Fail,<span style='color:red'>Fail,<span style='color:red'>Fail,<span style='color:red'>Fail,<span style='color:red'>Fail,<span style='color:green'>Lift,<span style='color:green'>Lift,<span style='color:red'>Fail","<span style='color:red'>Fail,<span style='color:red'>Fail,<span style='color:green'>Lift,<span style='color:green'>Lift,<span style='color:green'>Lift,<span style='color:green'>Lift,<span style='color:red'>Fail,<span style='color:green'>Lift,<span style='color:green'>Lift,<span style='color:green'>Lift,<span style='color:green'>Lift,<span style='color:red'>Fail","<span style='color:red'>Fail,<span style='color:green'>Lift,<span style='color:green'>Lift,<span style='color:red'>Fail,<span style='color:green'>Lift,<span style='color:green'>Lift","0,0,1,1,0,0,0,0,0,1,1,0","0,0,1,1,1,1,0,1,1,1,1,0","0,1,1,0,1,1",10,20,20,"","","","","{""Q0"":""It consists of multiple contests, each contest with three rounds."",""Q1"":""When a new contest begins."",""Q2"":""The box weight always stays the same (equivalent to strength of 5)."",""Q3"":""Each will get $20."",""Q4"":""How close my guesses are to the actual outcome.""}","[0,1,2,3,4]",NA,"",NA,NA,NA,NA,NA,NA,NA,NA,NA,NA,NA,NA,NA,NA,NA,NA,NA,NA,NA,NA,NA,NA,NA,NA,NA,NA,NA,NA,NA,NA,NA,NA,NA,NA,NA,NA,NA,NA,NA,"",NA,NA,NA,NA,NA,NA,NA,NA,NA,2025-11-21 01:14:39
"13766","https://psyc-201.github.io/xiang2023/exp/index1.html?PROLIFIC_PID=REDACTED&STUDY_ID=691f8ca61c6b4dcbb0aeb5f4&SESSION_ID=691fba1f6ab8ca48620a9201","instructions",5,221492,"0.0-305.0","H6i06F4Ntuz6DsY9vC3WlXz52nH8wSb/zgQg9oiwnBnOmn4jJ4Hb+G58K9pKqv/jjdJGlBt+FZecmqi9UYJXjjDRirNJzZyMYDdqRS45yHVKIOmUj3cadK3NB52dcreMhfIdOtQAHE5DU6P7ke1DTJKt8VUuLy2Q3DrEp2oO2K1Tt8T7zia79tLq+N/Pmrc66FMlMY/RNeVrKlVgdfd1R83HSf1ogHgjSypVseKPuETHhXwIPW+O4cvcRHEQVXDbtWMVdkarPQpEUJYBxb/HK8dDvlpMrxqVgp9upcvz38EG2qkSt+JTdg+EW1mlohulyb9yhDttZKisuTDum9F3gw==","691f8ca61c6b4dcbb0aeb5f4","691fba1f6ab8ca48620a9201","index1","<span style='color:red'>Fail,<span style='color:red'>Fail,<span style='color:green'>Lift,<span style='color:green'>Lift,<span style='color:red'>Fail,<span style='color:red'>Fail,<span style='color:red'>Fail,<span style='color:red'>Fail,<span style='color:red'>Fail,<span style='color:green'>Lift,<span style='color:green'>Lift,<span style='color:red'>Fail","<span style='color:red'>Fail,<span style='color:red'>Fail,<span style='color:green'>Lift,<span style='color:green'>Lift,<span style='color:green'>Lift,<span style='color:green'>Lift,<span style='color:red'>Fail,<span style='color:green'>Lift,<span style='color:green'>Lift,<span style='color:green'>Lift,<span style='color:green'>Lift,<span style='color:red'>Fail","<span style='color:red'>Fail,<span style='color:green'>Lift,<span style='color:green'>Lift,<span style='color:red'>Fail,<span style='color:green'>Lift,<span style='color:green'>Lift","0,0,1,1,0,0,0,0,0,1,1,0","0,0,1,1,1,1,0,1,1,1,1,0","0,1,1,0,1,1",10,20,20,"","[{""page_index"":0,""viewing_time"":9789},{""page_index"":1,""viewing_time"":3977}]","","","","",NA,"",NA,NA,NA,NA,NA,NA,NA,NA,NA,NA,NA,NA,NA,NA,NA,NA,NA,NA,NA,NA,NA,NA,NA,NA,NA,NA,NA,NA,NA,NA,NA,NA,NA,NA,NA,NA,NA,NA,NA,"",NA,NA,NA,NA,NA,NA,NA,NA,NA,2025-11-21 01:14:39
"null","https://psyc-201.github.io/xiang2023/exp/index1.html?PROLIFIC_PID=REDACTED&STUDY_ID=691f8ca61c6b4dcbb0aeb5f4&SESSION_ID=691fba1f6ab8ca48620a9201","html-keyboard-response",6,222502,"0.0-306.0","H6i06F4Ntuz6DsY9vC3WlXz52nH8wSb/zgQg9oiwnBnOmn4jJ4Hb+G58K9pKqv/jjdJGlBt+FZecmqi9UYJXjjDRirNJzZyMYDdqRS45yHVKIOmUj3cadK3NB52dcreMhfIdOtQAHE5DU6P7ke1DTJKt8VUuLy2Q3DrEp2oO2K1Tt8T7zia79tLq+N/Pmrc66FMlMY/RNeVrKlVgdfd1R83HSf1ogHgjSypVseKPuETHhXwIPW+O4cvcRHEQVXDbtWMVdkarPQpEUJYBxb/HK8dDvlpMrxqVgp9upcvz38EG2qkSt+JTdg+EW1mlohulyb9yhDttZKisuTDum9F3gw==","691f8ca61c6b4dcbb0aeb5f4","691fba1f6ab8ca48620a9201","index1","<span style='color:red'>Fail,<span style='color:red'>Fail,<span style='color:green'>Lift,<span style='color:green'>Lift,<span style='color:red'>Fail,<span style='color:red'>Fail,<span style='color:red'>Fail,<span style='color:red'>Fail,<span style='color:red'>Fail,<span style='color:green'>Lift,<span style='color:green'>Lift,<span style='color:red'>Fail","<span style='color:red'>Fail,<span style='color:red'>Fail,<span style='color:green'>Lift,<span style='color:green'>Lift,<span style='color:green'>Lift,<span style='color:green'>Lift,<span style='color:red'>Fail,<span style='color:green'>Lift,<span style='color:green'>Lift,<span style='color:green'>Lift,<span style='color:green'>Lift,<span style='color:red'>Fail","<span style='color:red'>Fail,<span style='color:green'>Lift,<span style='color:green'>Lift,<span style='color:red'>Fail,<span style='color:green'>Lift,<span style='color:green'>Lift","0,0,1,1,0,0,0,0,0,1,1,0","0,0,1,1,1,1,0,1,1,1,1,0","0,1,1,0,1,1",10,20,20,"",""," ","null","","",1,"",NA,NA,NA,NA,NA,NA,NA,NA,NA,NA,NA,NA,NA,NA,NA,NA,NA,NA,NA,NA,NA,NA,NA,NA,NA,NA,NA,NA,NA,NA,NA,NA,NA,NA,NA,NA,NA,NA,NA,"",NA,NA,NA,NA,NA,NA,NA,NA,NA,2025-11-21 01:14:39
"null","https://psyc-201.github.io/xiang2023/exp/index1.html?PROLIFIC_PID=REDACTED&STUDY_ID=691f8ca61c6b4dcbb0aeb5f4&SESSION_ID=691fba1f6ab8ca48620a9201","html-keyboard-response",7,225509,"0.0-307.0","H6i06F4Ntuz6DsY9vC3WlXz52nH8wSb/zgQg9oiwnBnOmn4jJ4Hb+G58K9pKqv/jjdJGlBt+FZecmqi9UYJXjjDRirNJzZyMYDdqRS45yHVKIOmUj3cadK3NB52dcreMhfIdOtQAHE5DU6P7ke1DTJKt8VUuLy2Q3DrEp2oO2K1Tt8T7zia79tLq+N/Pmrc66FMlMY/RNeVrKlVgdfd1R83HSf1ogHgjSypVseKPuETHhXwIPW+O4cvcRHEQVXDbtWMVdkarPQpEUJYBxb/HK8dDvlpMrxqVgp9upcvz38EG2qkSt+JTdg+EW1mlohulyb9yhDttZKisuTDum9F3gw==","691f8ca61c6b4dcbb0aeb5f4","691fba1f6ab8ca48620a9201","index1","<span style='color:red'>Fail,<span style='color:red'>Fail,<span style='color:green'>Lift,<span style='color:green'>Lift,<span style='color:red'>Fail,<span style='color:red'>Fail,<span style='color:red'>Fail,<span style='color:red'>Fail,<span style='color:red'>Fail,<span style='color:green'>Lift,<span style='color:green'>Lift,<span style='color:red'>Fail","<span style='color:red'>Fail,<span style='color:red'>Fail,<span style='color:green'>Lift,<span style='color:green'>Lift,<span style='color:green'>Lift,<span style='color:green'>Lift,<span style='color:red'>Fail,<span style='color:green'>Lift,<span style='color:green'>Lift,<span style='color:green'>Lift,<span style='color:green'>Lift,<span style='color:red'>Fail","<span style='color:red'>Fail,<span style='color:green'>Lift,<span style='color:green'>Lift,<span style='color:red'>Fail,<span style='color:green'>Lift,<span style='color:green'>Lift","0,0,1,1,0,0,0,0,0,1,1,0","0,0,1,1,1,1,0,1,1,1,1,0","0,1,1,0,1,1",10,20,20,"","","<p style='font-size:30px'><b> New Contest! </b></p>","null","","",1,"",NA,NA,NA,NA,NA,NA,NA,NA,NA,NA,NA,NA,NA,NA,NA,NA,NA,NA,NA,NA,NA,NA,NA,NA,NA,NA,NA,NA,NA,NA,NA,NA,NA,NA,NA,NA,NA,NA,NA,"",NA,NA,NA,NA,NA,NA,NA,NA,NA,2025-11-21 01:14:39
"11731","https://psyc-201.github.io/xiang2023/exp/index1.html?PROLIFIC_PID=REDACTED&STUDY_ID=691f8ca61c6b4dcbb0aeb5f4&SESSION_ID=691fba1f6ab8ca48620a9201","survey-html-form",8,237242,"0.0-308.0","H6i06F4Ntuz6DsY9vC3WlXz52nH8wSb/zgQg9oiwnBnOmn4jJ4Hb+G58K9pKqv/jjdJGlBt+FZecmqi9UYJXjjDRirNJzZyMYDdqRS45yHVKIOmUj3cadK3NB52dcreMhfIdOtQAHE5DU6P7ke1DTJKt8VUuLy2Q3DrEp2oO2K1Tt8T7zia79tLq+N/Pmrc66FMlMY/RNeVrKlVgdfd1R83HSf1ogHgjSypVseKPuETHhXwIPW+O4cvcRHEQVXDbtWMVdkarPQpEUJYBxb/HK8dDvlpMrxqVgp9upcvz38EG2qkSt+JTdg+EW1mlohulyb9yhDttZKisuTDum9F3gw==","691f8ca61c6b4dcbb0aeb5f4","691fba1f6ab8ca48620a9201","index1","<span style='color:red'>Fail,<span style='color:red'>Fail,<span style='color:green'>Lift,<span style='color:green'>Lift,<span style='color:red'>Fail,<span style='color:red'>Fail,<span style='color:red'>Fail,<span style='color:red'>Fail,<span style='color:red'>Fail,<span style='color:green'>Lift,<span style='color:green'>Lift,<span style='color:red'>Fail","<span style='color:red'>Fail,<span style='color:red'>Fail,<span style='color:green'>Lift,<span style='color:green'>Lift,<span style='color:green'>Lift,<span style='color:green'>Lift,<span style='color:red'>Fail,<span style='color:green'>Lift,<span style='color:green'>Lift,<span style='color:green'>Lift,<span style='color:green'>Lift,<span style='color:red'>Fail","<span style='color:red'>Fail,<span style='color:green'>Lift,<span style='color:green'>Lift,<span style='color:red'>Fail,<span style='color:green'>Lift,<span style='color:green'>Lift","0,0,1,1,0,0,0,0,0,1,1,0","0,0,1,1,1,1,0,1,1,1,1,0","0,1,1,0,1,1",10,20,20,"","","","","{""box1"":""3"",""box2"":""3""}","",1,"round1_outcome",1,1,1,3,3,NA,NA,0,0,10,3,3,NA,NA,0,0,10,NA,NA,NA,NA,NA,NA,NA,NA,NA,NA,NA,NA,NA,NA,NA,NA,NA,NA,NA,NA,NA,NA,"",NA,NA,NA,NA,NA,NA,NA,NA,NA,2025-11-21 01:14:39
"14347","https://psyc-201.github.io/xiang2023/exp/index1.html?PROLIFIC_PID=REDACTED&STUDY_ID=691f8ca61c6b4dcbb0aeb5f4&SESSION_ID=691fba1f6ab8ca48620a9201","survey-html-form",9,251590,"0.0-309.0","H6i06F4Ntuz6DsY9vC3WlXz52nH8wSb/zgQg9oiwnBnOmn4jJ4Hb+G58K9pKqv/jjdJGlBt+FZecmqi9UYJXjjDRirNJzZyMYDdqRS45yHVKIOmUj3cadK3NB52dcreMhfIdOtQAHE5DU6P7ke1DTJKt8VUuLy2Q3DrEp2oO2K1Tt8T7zia79tLq+N/Pmrc66FMlMY/RNeVrKlVgdfd1R83HSf1ogHgjSypVseKPuETHhXwIPW+O4cvcRHEQVXDbtWMVdkarPQpEUJYBxb/HK8dDvlpMrxqVgp9upcvz38EG2qkSt+JTdg+EW1mlohulyb9yhDttZKisuTDum9F3gw==","691f8ca61c6b4dcbb0aeb5f4","691fba1f6ab8ca48620a9201","index1","<span style='color:red'>Fail,<span style='color:red'>Fail,<span style='color:green'>Lift,<span style='color:green'>Lift,<span style='color:red'>Fail,<span style='color:red'>Fail,<span style='color:red'>Fail,<span style='color:red'>Fail,<span style='color:red'>Fail,<span style='color:green'>Lift,<span style='color:green'>Lift,<span style='color:red'>Fail","<span style='color:red'>Fail,<span style='color:red'>Fail,<span style='color:green'>Lift,<span style='color:green'>Lift,<span style='color:green'>Lift,<span style='color:green'>Lift,<span style='color:red'>Fail,<span style='color:green'>Lift,<span style='color:green'>Lift,<span style='color:green'>Lift,<span style='color:green'>Lift,<span style='color:red'>Fail","<span style='color:red'>Fail,<span style='color:green'>Lift,<span style='color:green'>Lift,<span style='color:red'>Fail,<span style='color:green'>Lift,<span style='color:green'>Lift","0,0,1,1,0,0,0,0,0,1,1,0","0,0,1,1,1,1,0,1,1,1,1,0","0,1,1,0,1,1",10,20,20,"","","","","{""box1"":""42"",""box2"":""40""}","",1,"round2_ready",2,1,2,NA,NA,NA,NA,NA,NA,NA,NA,NA,NA,NA,NA,NA,NA,42,40,42,40,NA,NA,NA,NA,NA,NA,NA,NA,NA,NA,NA,NA,NA,NA,NA,NA,NA,NA,"",NA,NA,NA,NA,NA,NA,NA,NA,NA,2025-11-21 01:14:39
"25570","https://psyc-201.github.io/xiang2023/exp/index1.html?PROLIFIC_PID=REDACTED&STUDY_ID=691f8ca61c6b4dcbb0aeb5f4&SESSION_ID=691fba1f6ab8ca48620a9201","survey-html-form",10,277162,"0.0-310.0","H6i06F4Ntuz6DsY9vC3WlXz52nH8wSb/zgQg9oiwnBnOmn4jJ4Hb+G58K9pKqv/jjdJGlBt+FZecmqi9UYJXjjDRirNJzZyMYDdqRS45yHVKIOmUj3cadK3NB52dcreMhfIdOtQAHE5DU6P7ke1DTJKt8VUuLy2Q3DrEp2oO2K1Tt8T7zia79tLq+N/Pmrc66FMlMY/RNeVrKlVgdfd1R83HSf1ogHgjSypVseKPuETHhXwIPW+O4cvcRHEQVXDbtWMVdkarPQpEUJYBxb/HK8dDvlpMrxqVgp9upcvz38EG2qkSt+JTdg+EW1mlohulyb9yhDttZKisuTDum9F3gw==","691f8ca61c6b4dcbb0aeb5f4","691fba1f6ab8ca48620a9201","index1","<span style='color:red'>Fail,<span style='color:red'>Fail,<span style='color:green'>Lift,<span style='color:green'>Lift,<span style='color:red'>Fail,<span style='color:red'>Fail,<span style='color:red'>Fail,<span style='color:red'>Fail,<span style='color:red'>Fail,<span style='color:green'>Lift,<span style='color:green'>Lift,<span style='color:red'>Fail","<span style='color:red'>Fail,<span style='color:red'>Fail,<span style='color:green'>Lift,<span style='color:green'>Lift,<span style='color:green'>Lift,<span style='color:green'>Lift,<span style='color:red'>Fail,<span style='color:green'>Lift,<span style='color:green'>Lift,<span style='color:green'>Lift,<span style='color:green'>Lift,<span style='color:red'>Fail","<span style='color:red'>Fail,<span style='color:green'>Lift,<span style='color:green'>Lift,<span style='color:red'>Fail,<span style='color:green'>Lift,<span style='color:green'>Lift","0,0,1,1,0,0,0,0,0,1,1,0","0,0,1,1,1,1,0,1,1,1,1,0","0,1,1,0,1,1",10,20,20,"","","","","{""box1"":""3"",""box2"":""5"",""box4"":""95""}","",1,"round2_outcome",3,1,2,3,5,NA,95,0,1,20,NA,NA,NA,NA,NA,NA,NA,NA,NA,NA,NA,3,5,NA,95,0,1,20,NA,NA,NA,NA,NA,NA,NA,NA,NA,NA,NA,"",NA,NA,NA,NA,NA,NA,NA,NA,NA,2025-11-21 01:14:39
"8252","https://psyc-201.github.io/xiang2023/exp/index1.html?PROLIFIC_PID=REDACTED&STUDY_ID=691f8ca61c6b4dcbb0aeb5f4&SESSION_ID=691fba1f6ab8ca48620a9201","survey-html-form",11,285417,"0.0-311.0","H6i06F4Ntuz6DsY9vC3WlXz52nH8wSb/zgQg9oiwnBnOmn4jJ4Hb+G58K9pKqv/jjdJGlBt+FZecmqi9UYJXjjDRirNJzZyMYDdqRS45yHVKIOmUj3cadK3NB52dcreMhfIdOtQAHE5DU6P7ke1DTJKt8VUuLy2Q3DrEp2oO2K1Tt8T7zia79tLq+N/Pmrc66FMlMY/RNeVrKlVgdfd1R83HSf1ogHgjSypVseKPuETHhXwIPW+O4cvcRHEQVXDbtWMVdkarPQpEUJYBxb/HK8dDvlpMrxqVgp9upcvz38EG2qkSt+JTdg+EW1mlohulyb9yhDttZKisuTDum9F3gw==","691f8ca61c6b4dcbb0aeb5f4","691fba1f6ab8ca48620a9201","index1","<span style='color:red'>Fail,<span style='color:red'>Fail,<span style='color:green'>Lift,<span style='color:green'>Lift,<span style='color:red'>Fail,<span style='color:red'>Fail,<span style='color:red'>Fail,<span style='color:red'>Fail,<span style='color:red'>Fail,<span style='color:green'>Lift,<span style='color:green'>Lift,<span style='color:red'>Fail","<span style='color:red'>Fail,<span style='color:red'>Fail,<span style='color:green'>Lift,<span style='color:green'>Lift,<span style='color:green'>Lift,<span style='color:green'>Lift,<span style='color:red'>Fail,<span style='color:green'>Lift,<span style='color:green'>Lift,<span style='color:green'>Lift,<span style='color:green'>Lift,<span style='color:red'>Fail","<span style='color:red'>Fail,<span style='color:green'>Lift,<span style='color:green'>Lift,<span style='color:red'>Fail,<span style='color:green'>Lift,<span style='color:green'>Lift","0,0,1,1,0,0,0,0,0,1,1,0","0,0,1,1,1,1,0,1,1,1,1,0","0,1,1,0,1,1",10,20,20,"","","","","{""box1"":""70""}","",1,"round3_ready",4,1,3,NA,NA,NA,NA,NA,NA,NA,NA,NA,NA,NA,NA,NA,NA,70,70,NA,NA,NA,NA,NA,NA,NA,NA,NA,70,70,NA,NA,NA,NA,NA,NA,NA,NA,NA,"",NA,NA,NA,NA,NA,NA,NA,NA,NA,2025-11-21 01:14:39
"14841","https://psyc-201.github.io/xiang2023/exp/index1.html?PROLIFIC_PID=REDACTED&STUDY_ID=691f8ca61c6b4dcbb0aeb5f4&SESSION_ID=691fba1f6ab8ca48620a9201","survey-html-form",12,300260,"0.0-313.0-0.0","H6i06F4Ntuz6DsY9vC3WlXz52nH8wSb/zgQg9oiwnBnOmn4jJ4Hb+G58K9pKqv/jjdJGlBt+FZecmqi9UYJXjjDRirNJzZyMYDdqRS45yHVKIOmUj3cadK3NB52dcreMhfIdOtQAHE5DU6P7ke1DTJKt8VUuLy2Q3DrEp2oO2K1Tt8T7zia79tLq+N/Pmrc66FMlMY/RNeVrKlVgdfd1R83HSf1ogHgjSypVseKPuETHhXwIPW+O4cvcRHEQVXDbtWMVdkarPQpEUJYBxb/HK8dDvlpMrxqVgp9upcvz38EG2qkSt+JTdg+EW1mlohulyb9yhDttZKisuTDum9F3gw==","691f8ca61c6b4dcbb0aeb5f4","691fba1f6ab8ca48620a9201","index1","<span style='color:red'>Fail,<span style='color:red'>Fail,<span style='color:green'>Lift,<span style='color:green'>Lift,<span style='color:red'>Fail,<span style='color:red'>Fail,<span style='color:red'>Fail,<span style='color:red'>Fail,<span style='color:red'>Fail,<span style='color:green'>Lift,<span style='color:green'>Lift,<span style='color:red'>Fail","<span style='color:red'>Fail,<span style='color:red'>Fail,<span style='color:green'>Lift,<span style='color:green'>Lift,<span style='color:green'>Lift,<span style='color:green'>Lift,<span style='color:red'>Fail,<span style='color:green'>Lift,<span style='color:green'>Lift,<span style='color:green'>Lift,<span style='color:green'>Lift,<span style='color:red'>Fail","<span style='color:red'>Fail,<span style='color:green'>Lift,<span style='color:green'>Lift,<span style='color:red'>Fail,<span style='color:green'>Lift,<span style='color:green'>Lift","0,0,1,1,0,0,0,0,0,1,1,0","0,0,1,1,1,1,0,1,1,1,1,0","0,1,1,0,1,1",10,20,20,"","","","","{""box1"":""3"",""box2"":""4"",""box3"":""999"",""box4"":""999""}","",2,"round3_fail",5,1,3,3,4,NA,NA,0,0,20,NA,NA,NA,NA,NA,NA,NA,NA,NA,NA,NA,NA,NA,NA,NA,NA,NA,NA,NA,NA,1,1,3,4,0,0,20,NA,NA,"",NA,NA,NA,NA,NA,NA,NA,NA,NA,2025-11-21 01:14:39
"null","https://psyc-201.github.io/xiang2023/exp/index1.html?PROLIFIC_PID=REDACTED&STUDY_ID=691f8ca61c6b4dcbb0aeb5f4&SESSION_ID=691fba1f6ab8ca48620a9201","html-keyboard-response",13,303277,"0.0-316.0","H6i06F4Ntuz6DsY9vC3WlXz52nH8wSb/zgQg9oiwnBnOmn4jJ4Hb+G58K9pKqv/jjdJGlBt+FZecmqi9UYJXjjDRirNJzZyMYDdqRS45yHVKIOmUj3cadK3NB52dcreMhfIdOtQAHE5DU6P7ke1DTJKt8VUuLy2Q3DrEp2oO2K1Tt8T7zia79tLq+N/Pmrc66FMlMY/RNeVrKlVgdfd1R83HSf1ogHgjSypVseKPuETHhXwIPW+O4cvcRHEQVXDbtWMVdkarPQpEUJYBxb/HK8dDvlpMrxqVgp9upcvz38EG2qkSt+JTdg+EW1mlohulyb9yhDttZKisuTDum9F3gw==","691f8ca61c6b4dcbb0aeb5f4","691fba1f6ab8ca48620a9201","index1","<span style='color:red'>Fail,<span style='color:red'>Fail,<span style='color:green'>Lift,<span style='color:green'>Lift,<span style='color:red'>Fail,<span style='color:red'>Fail,<span style='color:red'>Fail,<span style='color:red'>Fail,<span style='color:red'>Fail,<span style='color:green'>Lift,<span style='color:green'>Lift,<span style='color:red'>Fail","<span style='color:red'>Fail,<span style='color:red'>Fail,<span style='color:green'>Lift,<span style='color:green'>Lift,<span style='color:green'>Lift,<span style='color:green'>Lift,<span style='color:red'>Fail,<span style='color:green'>Lift,<span style='color:green'>Lift,<span style='color:green'>Lift,<span style='color:green'>Lift,<span style='color:red'>Fail","<span style='color:red'>Fail,<span style='color:green'>Lift,<span style='color:green'>Lift,<span style='color:red'>Fail,<span style='color:green'>Lift,<span style='color:green'>Lift","0,0,1,1,0,0,0,0,0,1,1,0","0,0,1,1,1,1,0,1,1,1,1,0","0,1,1,0,1,1",10,20,20,"","","<p style='font-size:30px'><b> New Contest! </b></p>","null","","",2,"",NA,NA,NA,NA,NA,NA,NA,NA,NA,NA,NA,NA,NA,NA,NA,NA,NA,NA,NA,NA,NA,NA,NA,NA,NA,NA,NA,NA,NA,NA,NA,NA,NA,NA,NA,NA,NA,NA,NA,"",NA,NA,NA,NA,NA,NA,NA,NA,NA,2025-11-21 01:14:39
"33530","https://psyc-201.github.io/xiang2023/exp/index1.html?PROLIFIC_PID=REDACTED&STUDY_ID=691f8ca61c6b4dcbb0aeb5f4&SESSION_ID=691fba1f6ab8ca48620a9201","survey-html-form",14,336810,"0.0-317.0","H6i06F4Ntuz6DsY9vC3WlXz52nH8wSb/zgQg9oiwnBnOmn4jJ4Hb+G58K9pKqv/jjdJGlBt+FZecmqi9UYJXjjDRirNJzZyMYDdqRS45yHVKIOmUj3cadK3NB52dcreMhfIdOtQAHE5DU6P7ke1DTJKt8VUuLy2Q3DrEp2oO2K1Tt8T7zia79tLq+N/Pmrc66FMlMY/RNeVrKlVgdfd1R83HSf1ogHgjSypVseKPuETHhXwIPW+O4cvcRHEQVXDbtWMVdkarPQpEUJYBxb/HK8dDvlpMrxqVgp9upcvz38EG2qkSt+JTdg+EW1mlohulyb9yhDttZKisuTDum9F3gw==","691f8ca61c6b4dcbb0aeb5f4","691fba1f6ab8ca48620a9201","index1","<span style='color:red'>Fail,<span style='color:red'>Fail,<span style='color:green'>Lift,<span style='color:green'>Lift,<span style='color:red'>Fail,<span style='color:red'>Fail,<span style='color:red'>Fail,<span style='color:red'>Fail,<span style='color:red'>Fail,<span style='color:green'>Lift,<span style='color:green'>Lift,<span style='color:red'>Fail","<span style='color:red'>Fail,<span style='color:red'>Fail,<span style='color:green'>Lift,<span style='color:green'>Lift,<span style='color:green'>Lift,<span style='color:green'>Lift,<span style='color:red'>Fail,<span style='color:green'>Lift,<span style='color:green'>Lift,<span style='color:green'>Lift,<span style='color:green'>Lift,<span style='color:red'>Fail","<span style='color:red'>Fail,<span style='color:green'>Lift,<span style='color:green'>Lift,<span style='color:red'>Fail,<span style='color:green'>Lift,<span style='color:green'>Lift","0,0,1,1,0,0,0,0,0,1,1,0","0,0,1,1,1,1,0,1,1,1,1,0","0,1,1,0,1,1",10,20,20,"","","","","{""box1"":""4"",""box2"":""8"",""box4"":""92""}","",2,"round1_outcome",1,2,1,4,8,NA,92,0,1,10,4,8,NA,92,0,1,10,NA,NA,NA,NA,NA,NA,NA,NA,NA,NA,NA,NA,NA,NA,NA,NA,NA,NA,NA,NA,NA,NA,"",NA,NA,NA,NA,NA,NA,NA,NA,NA,2025-11-21 01:14:39
"11785","https://psyc-201.github.io/xiang2023/exp/index1.html?PROLIFIC_PID=REDACTED&STUDY_ID=691f8ca61c6b4dcbb0aeb5f4&SESSION_ID=691fba1f6ab8ca48620a9201","survey-html-form",15,348596,"0.0-318.0","H6i06F4Ntuz6DsY9vC3WlXz52nH8wSb/zgQg9oiwnBnOmn4jJ4Hb+G58K9pKqv/jjdJGlBt+FZecmqi9UYJXjjDRirNJzZyMYDdqRS45yHVKIOmUj3cadK3NB52dcreMhfIdOtQAHE5DU6P7ke1DTJKt8VUuLy2Q3DrEp2oO2K1Tt8T7zia79tLq+N/Pmrc66FMlMY/RNeVrKlVgdfd1R83HSf1ogHgjSypVseKPuETHhXwIPW+O4cvcRHEQVXDbtWMVdkarPQpEUJYBxb/HK8dDvlpMrxqVgp9upcvz38EG2qkSt+JTdg+EW1mlohulyb9yhDttZKisuTDum9F3gw==","691f8ca61c6b4dcbb0aeb5f4","691fba1f6ab8ca48620a9201","index1","<span style='color:red'>Fail,<span style='color:red'>Fail,<span style='color:green'>Lift,<span style='color:green'>Lift,<span style='color:red'>Fail,<span style='color:red'>Fail,<span style='color:red'>Fail,<span style='color:red'>Fail,<span style='color:red'>Fail,<span style='color:green'>Lift,<span style='color:green'>Lift,<span style='color:red'>Fail","<span style='color:red'>Fail,<span style='color:red'>Fail,<span style='color:green'>Lift,<span style='color:green'>Lift,<span style='color:green'>Lift,<span style='color:green'>Lift,<span style='color:red'>Fail,<span style='color:green'>Lift,<span style='color:green'>Lift,<span style='color:green'>Lift,<span style='color:green'>Lift,<span style='color:red'>Fail","<span style='color:red'>Fail,<span style='color:green'>Lift,<span style='color:green'>Lift,<span style='color:red'>Fail,<span style='color:green'>Lift,<span style='color:green'>Lift","0,0,1,1,0,0,0,0,0,1,1,0","0,0,1,1,1,1,0,1,1,1,1,0","0,1,1,0,1,1",10,20,20,"","","","","{""box1"":""30"",""box2"":""75""}","",2,"round2_ready",2,2,2,NA,NA,NA,NA,NA,NA,NA,NA,NA,NA,NA,NA,NA,NA,30,75,30,75,NA,NA,NA,NA,NA,NA,NA,NA,NA,NA,NA,NA,NA,NA,NA,NA,NA,NA,"",NA,NA,NA,NA,NA,NA,NA,NA,NA,2025-11-21 01:14:39
"19679","https://psyc-201.github.io/xiang2023/exp/index1.html?PROLIFIC_PID=REDACTED&STUDY_ID=691f8ca61c6b4dcbb0aeb5f4&SESSION_ID=691fba1f6ab8ca48620a9201","survey-html-form",16,368276,"0.0-319.0","H6i06F4Ntuz6DsY9vC3WlXz52nH8wSb/zgQg9oiwnBnOmn4jJ4Hb+G58K9pKqv/jjdJGlBt+FZecmqi9UYJXjjDRirNJzZyMYDdqRS45yHVKIOmUj3cadK3NB52dcreMhfIdOtQAHE5DU6P7ke1DTJKt8VUuLy2Q3DrEp2oO2K1Tt8T7zia79tLq+N/Pmrc66FMlMY/RNeVrKlVgdfd1R83HSf1ogHgjSypVseKPuETHhXwIPW+O4cvcRHEQVXDbtWMVdkarPQpEUJYBxb/HK8dDvlpMrxqVgp9upcvz38EG2qkSt+JTdg+EW1mlohulyb9yhDttZKisuTDum9F3gw==","691f8ca61c6b4dcbb0aeb5f4","691fba1f6ab8ca48620a9201","index1","<span style='color:red'>Fail,<span style='color:red'>Fail,<span style='color:green'>Lift,<span style='color:green'>Lift,<span style='color:red'>Fail,<span style='color:red'>Fail,<span style='color:red'>Fail,<span style='color:red'>Fail,<span style='color:red'>Fail,<span style='color:green'>Lift,<span style='color:green'>Lift,<span style='color:red'>Fail","<span style='color:red'>Fail,<span style='color:red'>Fail,<span style='color:green'>Lift,<span style='color:green'>Lift,<span style='color:green'>Lift,<span style='color:green'>Lift,<span style='color:red'>Fail,<span style='color:green'>Lift,<span style='color:green'>Lift,<span style='color:green'>Lift,<span style='color:green'>Lift,<span style='color:red'>Fail","<span style='color:red'>Fail,<span style='color:green'>Lift,<span style='color:green'>Lift,<span style='color:red'>Fail,<span style='color:green'>Lift,<span style='color:green'>Lift","0,0,1,1,0,0,0,0,0,1,1,0","0,0,1,1,1,1,0,1,1,1,1,0","0,1,1,0,1,1",10,20,20,"","","","","{""box1"":""4"",""box2"":""7"",""box3"":""66"",""box4"":""92""}","",2,"round2_outcome",3,2,2,4,7,66,92,1,1,20,NA,NA,NA,NA,NA,NA,NA,NA,NA,NA,NA,4,7,66,92,1,1,20,NA,NA,NA,NA,NA,NA,NA,NA,NA,NA,NA,"",NA,NA,NA,NA,NA,NA,NA,NA,NA,2025-11-21 01:14:39
"6900","https://psyc-201.github.io/xiang2023/exp/index1.html?PROLIFIC_PID=REDACTED&STUDY_ID=691f8ca61c6b4dcbb0aeb5f4&SESSION_ID=691fba1f6ab8ca48620a9201","survey-html-form",17,375178,"0.0-320.0","H6i06F4Ntuz6DsY9vC3WlXz52nH8wSb/zgQg9oiwnBnOmn4jJ4Hb+G58K9pKqv/jjdJGlBt+FZecmqi9UYJXjjDRirNJzZyMYDdqRS45yHVKIOmUj3cadK3NB52dcreMhfIdOtQAHE5DU6P7ke1DTJKt8VUuLy2Q3DrEp2oO2K1Tt8T7zia79tLq+N/Pmrc66FMlMY/RNeVrKlVgdfd1R83HSf1ogHgjSypVseKPuETHhXwIPW+O4cvcRHEQVXDbtWMVdkarPQpEUJYBxb/HK8dDvlpMrxqVgp9upcvz38EG2qkSt+JTdg+EW1mlohulyb9yhDttZKisuTDum9F3gw==","691f8ca61c6b4dcbb0aeb5f4","691fba1f6ab8ca48620a9201","index1","<span style='color:red'>Fail,<span style='color:red'>Fail,<span style='color:green'>Lift,<span style='color:green'>Lift,<span style='color:red'>Fail,<span style='color:red'>Fail,<span style='color:red'>Fail,<span style='color:red'>Fail,<span style='color:red'>Fail,<span style='color:green'>Lift,<span style='color:green'>Lift,<span style='color:red'>Fail","<span style='color:red'>Fail,<span style='color:red'>Fail,<span style='color:green'>Lift,<span style='color:green'>Lift,<span style='color:green'>Lift,<span style='color:green'>Lift,<span style='color:red'>Fail,<span style='color:green'>Lift,<span style='color:green'>Lift,<span style='color:green'>Lift,<span style='color:green'>Lift,<span style='color:red'>Fail","<span style='color:red'>Fail,<span style='color:green'>Lift,<span style='color:green'>Lift,<span style='color:red'>Fail,<span style='color:green'>Lift,<span style='color:green'>Lift","0,0,1,1,0,0,0,0,0,1,1,0","0,0,1,1,1,1,0,1,1,1,1,0","0,1,1,0,1,1",10,20,20,"","","","","{""box1"":""85""}","",2,"round3_ready",4,2,3,NA,NA,NA,NA,NA,NA,NA,NA,NA,NA,NA,NA,NA,NA,85,85,NA,NA,NA,NA,NA,NA,NA,NA,NA,85,85,NA,NA,NA,NA,NA,NA,NA,NA,NA,"",NA,NA,NA,NA,NA,NA,NA,NA,NA,2025-11-21 01:14:39
"17655","https://psyc-201.github.io/xiang2023/exp/index1.html?PROLIFIC_PID=REDACTED&STUDY_ID=691f8ca61c6b4dcbb0aeb5f4&SESSION_ID=691fba1f6ab8ca48620a9201","survey-html-form",18,392833,"0.0-321.0-0.0","H6i06F4Ntuz6DsY9vC3WlXz52nH8wSb/zgQg9oiwnBnOmn4jJ4Hb+G58K9pKqv/jjdJGlBt+FZecmqi9UYJXjjDRirNJzZyMYDdqRS45yHVKIOmUj3cadK3NB52dcreMhfIdOtQAHE5DU6P7ke1DTJKt8VUuLy2Q3DrEp2oO2K1Tt8T7zia79tLq+N/Pmrc66FMlMY/RNeVrKlVgdfd1R83HSf1ogHgjSypVseKPuETHhXwIPW+O4cvcRHEQVXDbtWMVdkarPQpEUJYBxb/HK8dDvlpMrxqVgp9upcvz38EG2qkSt+JTdg+EW1mlohulyb9yhDttZKisuTDum9F3gw==","691f8ca61c6b4dcbb0aeb5f4","691fba1f6ab8ca48620a9201","index1","<span style='color:red'>Fail,<span style='color:red'>Fail,<span style='color:green'>Lift,<span style='color:green'>Lift,<span style='color:red'>Fail,<span style='color:red'>Fail,<span style='color:red'>Fail,<span style='color:red'>Fail,<span style='color:red'>Fail,<span style='color:green'>Lift,<span style='color:green'>Lift,<span style='color:red'>Fail","<span style='color:red'>Fail,<span style='color:red'>Fail,<span style='color:green'>Lift,<span style='color:green'>Lift,<span style='color:green'>Lift,<span style='color:green'>Lift,<span style='color:red'>Fail,<span style='color:green'>Lift,<span style='color:green'>Lift,<span style='color:green'>Lift,<span style='color:green'>Lift,<span style='color:red'>Fail","<span style='color:red'>Fail,<span style='color:green'>Lift,<span style='color:green'>Lift,<span style='color:red'>Fail,<span style='color:green'>Lift,<span style='color:green'>Lift","0,0,1,1,0,0,0,0,0,1,1,0","0,0,1,1,1,1,0,1,1,1,1,0","0,1,1,0,1,1",10,20,20,"","","","","{""box1"":""4"",""box2"":""8"",""box3"":""70"",""box4"":""95""}","",3,"round3_lift",5,2,3,4,8,70,95,1,1,20,NA,NA,NA,NA,NA,NA,NA,NA,NA,NA,NA,NA,NA,NA,NA,NA,NA,NA,NA,NA,NA,NA,4,8,1,1,20,70,95,"",NA,NA,NA,NA,NA,NA,NA,NA,NA,2025-11-21 01:14:39
"null","https://psyc-201.github.io/xiang2023/exp/index1.html?PROLIFIC_PID=REDACTED&STUDY_ID=691f8ca61c6b4dcbb0aeb5f4&SESSION_ID=691fba1f6ab8ca48620a9201","html-keyboard-response",19,395841,"0.0-325.0","H6i06F4Ntuz6DsY9vC3WlXz52nH8wSb/zgQg9oiwnBnOmn4jJ4Hb+G58K9pKqv/jjdJGlBt+FZecmqi9UYJXjjDRirNJzZyMYDdqRS45yHVKIOmUj3cadK3NB52dcreMhfIdOtQAHE5DU6P7ke1DTJKt8VUuLy2Q3DrEp2oO2K1Tt8T7zia79tLq+N/Pmrc66FMlMY/RNeVrKlVgdfd1R83HSf1ogHgjSypVseKPuETHhXwIPW+O4cvcRHEQVXDbtWMVdkarPQpEUJYBxb/HK8dDvlpMrxqVgp9upcvz38EG2qkSt+JTdg+EW1mlohulyb9yhDttZKisuTDum9F3gw==","691f8ca61c6b4dcbb0aeb5f4","691fba1f6ab8ca48620a9201","index1","<span style='color:red'>Fail,<span style='color:red'>Fail,<span style='color:green'>Lift,<span style='color:green'>Lift,<span style='color:red'>Fail,<span style='color:red'>Fail,<span style='color:red'>Fail,<span style='color:red'>Fail,<span style='color:red'>Fail,<span style='color:green'>Lift,<span style='color:green'>Lift,<span style='color:red'>Fail","<span style='color:red'>Fail,<span style='color:red'>Fail,<span style='color:green'>Lift,<span style='color:green'>Lift,<span style='color:green'>Lift,<span style='color:green'>Lift,<span style='color:red'>Fail,<span style='color:green'>Lift,<span style='color:green'>Lift,<span style='color:green'>Lift,<span style='color:green'>Lift,<span style='color:red'>Fail","<span style='color:red'>Fail,<span style='color:green'>Lift,<span style='color:green'>Lift,<span style='color:red'>Fail,<span style='color:green'>Lift,<span style='color:green'>Lift","0,0,1,1,0,0,0,0,0,1,1,0","0,0,1,1,1,1,0,1,1,1,1,0","0,1,1,0,1,1",10,20,20,"","","<p style='font-size:30px'><b> New Contest! </b></p>","null","","",3,"",NA,NA,NA,NA,NA,NA,NA,NA,NA,NA,NA,NA,NA,NA,NA,NA,NA,NA,NA,NA,NA,NA,NA,NA,NA,NA,NA,NA,NA,NA,NA,NA,NA,NA,NA,NA,NA,NA,NA,"",NA,NA,NA,NA,NA,NA,NA,NA,NA,2025-11-21 01:14:39
"14072","https://psyc-201.github.io/xiang2023/exp/index1.html?PROLIFIC_PID=REDACTED&STUDY_ID=691f8ca61c6b4dcbb0aeb5f4&SESSION_ID=691fba1f6ab8ca48620a9201","survey-html-form",20,409916,"0.0-326.0","H6i06F4Ntuz6DsY9vC3WlXz52nH8wSb/zgQg9oiwnBnOmn4jJ4Hb+G58K9pKqv/jjdJGlBt+FZecmqi9UYJXjjDRirNJzZyMYDdqRS45yHVKIOmUj3cadK3NB52dcreMhfIdOtQAHE5DU6P7ke1DTJKt8VUuLy2Q3DrEp2oO2K1Tt8T7zia79tLq+N/Pmrc66FMlMY/RNeVrKlVgdfd1R83HSf1ogHgjSypVseKPuETHhXwIPW+O4cvcRHEQVXDbtWMVdkarPQpEUJYBxb/HK8dDvlpMrxqVgp9upcvz38EG2qkSt+JTdg+EW1mlohulyb9yhDttZKisuTDum9F3gw==","691f8ca61c6b4dcbb0aeb5f4","691fba1f6ab8ca48620a9201","index1","<span style='color:red'>Fail,<span style='color:red'>Fail,<span style='color:green'>Lift,<span style='color:green'>Lift,<span style='color:red'>Fail,<span style='color:red'>Fail,<span style='color:red'>Fail,<span style='color:red'>Fail,<span style='color:red'>Fail,<span style='color:green'>Lift,<span style='color:green'>Lift,<span style='color:red'>Fail","<span style='color:red'>Fail,<span style='color:red'>Fail,<span style='color:green'>Lift,<span style='color:green'>Lift,<span style='color:green'>Lift,<span style='color:green'>Lift,<span style='color:red'>Fail,<span style='color:green'>Lift,<span style='color:green'>Lift,<span style='color:green'>Lift,<span style='color:green'>Lift,<span style='color:red'>Fail","<span style='color:red'>Fail,<span style='color:green'>Lift,<span style='color:green'>Lift,<span style='color:red'>Fail,<span style='color:green'>Lift,<span style='color:green'>Lift","0,0,1,1,0,0,0,0,0,1,1,0","0,0,1,1,1,1,0,1,1,1,1,0","0,1,1,0,1,1",10,20,20,"","","","","{""box1"":""5"",""box2"":""5"",""box3"":""85"",""box4"":""85""}","",3,"round1_outcome",1,3,1,5,5,85,85,1,1,10,5,5,85,85,1,1,10,NA,NA,NA,NA,NA,NA,NA,NA,NA,NA,NA,NA,NA,NA,NA,NA,NA,NA,NA,NA,NA,NA,"",NA,NA,NA,NA,NA,NA,NA,NA,NA,2025-11-21 01:14:39
"7985","https://psyc-201.github.io/xiang2023/exp/index1.html?PROLIFIC_PID=REDACTED&STUDY_ID=691f8ca61c6b4dcbb0aeb5f4&SESSION_ID=691fba1f6ab8ca48620a9201","survey-html-form",21,417903,"0.0-327.0","H6i06F4Ntuz6DsY9vC3WlXz52nH8wSb/zgQg9oiwnBnOmn4jJ4Hb+G58K9pKqv/jjdJGlBt+FZecmqi9UYJXjjDRirNJzZyMYDdqRS45yHVKIOmUj3cadK3NB52dcreMhfIdOtQAHE5DU6P7ke1DTJKt8VUuLy2Q3DrEp2oO2K1Tt8T7zia79tLq+N/Pmrc66FMlMY/RNeVrKlVgdfd1R83HSf1ogHgjSypVseKPuETHhXwIPW+O4cvcRHEQVXDbtWMVdkarPQpEUJYBxb/HK8dDvlpMrxqVgp9upcvz38EG2qkSt+JTdg+EW1mlohulyb9yhDttZKisuTDum9F3gw==","691f8ca61c6b4dcbb0aeb5f4","691fba1f6ab8ca48620a9201","index1","<span style='color:red'>Fail,<span style='color:red'>Fail,<span style='color:green'>Lift,<span style='color:green'>Lift,<span style='color:red'>Fail,<span style='color:red'>Fail,<span style='color:red'>Fail,<span style='color:red'>Fail,<span style='color:red'>Fail,<span style='color:green'>Lift,<span style='color:green'>Lift,<span style='color:red'>Fail","<span style='color:red'>Fail,<span style='color:red'>Fail,<span style='color:green'>Lift,<span style='color:green'>Lift,<span style='color:green'>Lift,<span style='color:green'>Lift,<span style='color:red'>Fail,<span style='color:green'>Lift,<span style='color:green'>Lift,<span style='color:green'>Lift,<span style='color:green'>Lift,<span style='color:red'>Fail","<span style='color:red'>Fail,<span style='color:green'>Lift,<span style='color:green'>Lift,<span style='color:red'>Fail,<span style='color:green'>Lift,<span style='color:green'>Lift","0,0,1,1,0,0,0,0,0,1,1,0","0,0,1,1,1,1,0,1,1,1,1,0","0,1,1,0,1,1",10,20,20,"","","","","{""box1"":""67"",""box2"":""67""}","",3,"round2_ready",2,3,2,NA,NA,NA,NA,NA,NA,NA,NA,NA,NA,NA,NA,NA,NA,67,67,67,67,NA,NA,NA,NA,NA,NA,NA,NA,NA,NA,NA,NA,NA,NA,NA,NA,NA,NA,"",NA,NA,NA,NA,NA,NA,NA,NA,NA,2025-11-21 01:14:39
"15479","https://psyc-201.github.io/xiang2023/exp/index1.html?PROLIFIC_PID=REDACTED&STUDY_ID=691f8ca61c6b4dcbb0aeb5f4&SESSION_ID=691fba1f6ab8ca48620a9201","survey-html-form",22,433383,"0.0-328.0","H6i06F4Ntuz6DsY9vC3WlXz52nH8wSb/zgQg9oiwnBnOmn4jJ4Hb+G58K9pKqv/jjdJGlBt+FZecmqi9UYJXjjDRirNJzZyMYDdqRS45yHVKIOmUj3cadK3NB52dcreMhfIdOtQAHE5DU6P7ke1DTJKt8VUuLy2Q3DrEp2oO2K1Tt8T7zia79tLq+N/Pmrc66FMlMY/RNeVrKlVgdfd1R83HSf1ogHgjSypVseKPuETHhXwIPW+O4cvcRHEQVXDbtWMVdkarPQpEUJYBxb/HK8dDvlpMrxqVgp9upcvz38EG2qkSt+JTdg+EW1mlohulyb9yhDttZKisuTDum9F3gw==","691f8ca61c6b4dcbb0aeb5f4","691fba1f6ab8ca48620a9201","index1","<span style='color:red'>Fail,<span style='color:red'>Fail,<span style='color:green'>Lift,<span style='color:green'>Lift,<span style='color:red'>Fail,<span style='color:red'>Fail,<span style='color:red'>Fail,<span style='color:red'>Fail,<span style='color:red'>Fail,<span style='color:green'>Lift,<span style='color:green'>Lift,<span style='color:red'>Fail","<span style='color:red'>Fail,<span style='color:red'>Fail,<span style='color:green'>Lift,<span style='color:green'>Lift,<span style='color:green'>Lift,<span style='color:green'>Lift,<span style='color:red'>Fail,<span style='color:green'>Lift,<span style='color:green'>Lift,<span style='color:green'>Lift,<span style='color:green'>Lift,<span style='color:red'>Fail","<span style='color:red'>Fail,<span style='color:green'>Lift,<span style='color:green'>Lift,<span style='color:red'>Fail,<span style='color:green'>Lift,<span style='color:green'>Lift","0,0,1,1,0,0,0,0,0,1,1,0","0,0,1,1,1,1,0,1,1,1,1,0","0,1,1,0,1,1",10,20,20,"","","","","{""box1"":""6"",""box2"":""7"",""box3"":""88"",""box4"":""89""}","",3,"round2_outcome",3,3,2,6,7,88,89,1,1,20,NA,NA,NA,NA,NA,NA,NA,NA,NA,NA,NA,6,7,88,89,1,1,20,NA,NA,NA,NA,NA,NA,NA,NA,NA,NA,NA,"",NA,NA,NA,NA,NA,NA,NA,NA,NA,2025-11-21 01:14:39
"4075","https://psyc-201.github.io/xiang2023/exp/index1.html?PROLIFIC_PID=REDACTED&STUDY_ID=691f8ca61c6b4dcbb0aeb5f4&SESSION_ID=691fba1f6ab8ca48620a9201","survey-html-form",23,437459,"0.0-329.0","H6i06F4Ntuz6DsY9vC3WlXz52nH8wSb/zgQg9oiwnBnOmn4jJ4Hb+G58K9pKqv/jjdJGlBt+FZecmqi9UYJXjjDRirNJzZyMYDdqRS45yHVKIOmUj3cadK3NB52dcreMhfIdOtQAHE5DU6P7ke1DTJKt8VUuLy2Q3DrEp2oO2K1Tt8T7zia79tLq+N/Pmrc66FMlMY/RNeVrKlVgdfd1R83HSf1ogHgjSypVseKPuETHhXwIPW+O4cvcRHEQVXDbtWMVdkarPQpEUJYBxb/HK8dDvlpMrxqVgp9upcvz38EG2qkSt+JTdg+EW1mlohulyb9yhDttZKisuTDum9F3gw==","691f8ca61c6b4dcbb0aeb5f4","691fba1f6ab8ca48620a9201","index1","<span style='color:red'>Fail,<span style='color:red'>Fail,<span style='color:green'>Lift,<span style='color:green'>Lift,<span style='color:red'>Fail,<span style='color:red'>Fail,<span style='color:red'>Fail,<span style='color:red'>Fail,<span style='color:red'>Fail,<span style='color:green'>Lift,<span style='color:green'>Lift,<span style='color:red'>Fail","<span style='color:red'>Fail,<span style='color:red'>Fail,<span style='color:green'>Lift,<span style='color:green'>Lift,<span style='color:green'>Lift,<span style='color:green'>Lift,<span style='color:red'>Fail,<span style='color:green'>Lift,<span style='color:green'>Lift,<span style='color:green'>Lift,<span style='color:green'>Lift,<span style='color:red'>Fail","<span style='color:red'>Fail,<span style='color:green'>Lift,<span style='color:green'>Lift,<span style='color:red'>Fail,<span style='color:green'>Lift,<span style='color:green'>Lift","0,0,1,1,0,0,0,0,0,1,1,0","0,0,1,1,1,1,0,1,1,1,1,0","0,1,1,0,1,1",10,20,20,"","","","","{""box1"":""95""}","",3,"round3_ready",4,3,3,NA,NA,NA,NA,NA,NA,NA,NA,NA,NA,NA,NA,NA,NA,95,95,NA,NA,NA,NA,NA,NA,NA,NA,NA,95,95,NA,NA,NA,NA,NA,NA,NA,NA,NA,"",NA,NA,NA,NA,NA,NA,NA,NA,NA,2025-11-21 01:14:39
"13682","https://psyc-201.github.io/xiang2023/exp/index1.html?PROLIFIC_PID=REDACTED&STUDY_ID=691f8ca61c6b4dcbb0aeb5f4&SESSION_ID=691fba1f6ab8ca48620a9201","survey-html-form",24,451143,"0.0-330.0-0.0","H6i06F4Ntuz6DsY9vC3WlXz52nH8wSb/zgQg9oiwnBnOmn4jJ4Hb+G58K9pKqv/jjdJGlBt+FZecmqi9UYJXjjDRirNJzZyMYDdqRS45yHVKIOmUj3cadK3NB52dcreMhfIdOtQAHE5DU6P7ke1DTJKt8VUuLy2Q3DrEp2oO2K1Tt8T7zia79tLq+N/Pmrc66FMlMY/RNeVrKlVgdfd1R83HSf1ogHgjSypVseKPuETHhXwIPW+O4cvcRHEQVXDbtWMVdkarPQpEUJYBxb/HK8dDvlpMrxqVgp9upcvz38EG2qkSt+JTdg+EW1mlohulyb9yhDttZKisuTDum9F3gw==","691f8ca61c6b4dcbb0aeb5f4","691fba1f6ab8ca48620a9201","index1","<span style='color:red'>Fail,<span style='color:red'>Fail,<span style='color:green'>Lift,<span style='color:green'>Lift,<span style='color:red'>Fail,<span style='color:red'>Fail,<span style='color:red'>Fail,<span style='color:red'>Fail,<span style='color:red'>Fail,<span style='color:green'>Lift,<span style='color:green'>Lift,<span style='color:red'>Fail","<span style='color:red'>Fail,<span style='color:red'>Fail,<span style='color:green'>Lift,<span style='color:green'>Lift,<span style='color:green'>Lift,<span style='color:green'>Lift,<span style='color:red'>Fail,<span style='color:green'>Lift,<span style='color:green'>Lift,<span style='color:green'>Lift,<span style='color:green'>Lift,<span style='color:red'>Fail","<span style='color:red'>Fail,<span style='color:green'>Lift,<span style='color:green'>Lift,<span style='color:red'>Fail,<span style='color:green'>Lift,<span style='color:green'>Lift","0,0,1,1,0,0,0,0,0,1,1,0","0,0,1,1,1,1,0,1,1,1,1,0","0,1,1,0,1,1",10,20,20,"","","","","{""box1"":""6"",""box2"":""6"",""box3"":""92"",""box4"":""92""}","",4,"round3_lift",5,3,3,6,6,92,92,1,1,20,NA,NA,NA,NA,NA,NA,NA,NA,NA,NA,NA,NA,NA,NA,NA,NA,NA,NA,NA,NA,NA,NA,6,6,1,1,20,92,92,"",NA,NA,NA,NA,NA,NA,NA,NA,NA,2025-11-21 01:14:39
"null","https://psyc-201.github.io/xiang2023/exp/index1.html?PROLIFIC_PID=REDACTED&STUDY_ID=691f8ca61c6b4dcbb0aeb5f4&SESSION_ID=691fba1f6ab8ca48620a9201","html-keyboard-response",25,454151,"0.0-334.0","H6i06F4Ntuz6DsY9vC3WlXz52nH8wSb/zgQg9oiwnBnOmn4jJ4Hb+G58K9pKqv/jjdJGlBt+FZecmqi9UYJXjjDRirNJzZyMYDdqRS45yHVKIOmUj3cadK3NB52dcreMhfIdOtQAHE5DU6P7ke1DTJKt8VUuLy2Q3DrEp2oO2K1Tt8T7zia79tLq+N/Pmrc66FMlMY/RNeVrKlVgdfd1R83HSf1ogHgjSypVseKPuETHhXwIPW+O4cvcRHEQVXDbtWMVdkarPQpEUJYBxb/HK8dDvlpMrxqVgp9upcvz38EG2qkSt+JTdg+EW1mlohulyb9yhDttZKisuTDum9F3gw==","691f8ca61c6b4dcbb0aeb5f4","691fba1f6ab8ca48620a9201","index1","<span style='color:red'>Fail,<span style='color:red'>Fail,<span style='color:green'>Lift,<span style='color:green'>Lift,<span style='color:red'>Fail,<span style='color:red'>Fail,<span style='color:red'>Fail,<span style='color:red'>Fail,<span style='color:red'>Fail,<span style='color:green'>Lift,<span style='color:green'>Lift,<span style='color:red'>Fail","<span style='color:red'>Fail,<span style='color:red'>Fail,<span style='color:green'>Lift,<span style='color:green'>Lift,<span style='color:green'>Lift,<span style='color:green'>Lift,<span style='color:red'>Fail,<span style='color:green'>Lift,<span style='color:green'>Lift,<span style='color:green'>Lift,<span style='color:green'>Lift,<span style='color:red'>Fail","<span style='color:red'>Fail,<span style='color:green'>Lift,<span style='color:green'>Lift,<span style='color:red'>Fail,<span style='color:green'>Lift,<span style='color:green'>Lift","0,0,1,1,0,0,0,0,0,1,1,0","0,0,1,1,1,1,0,1,1,1,1,0","0,1,1,0,1,1",10,20,20,"","","<p style='font-size:30px'><b> New Contest! </b></p>","null","","",4,"",NA,NA,NA,NA,NA,NA,NA,NA,NA,NA,NA,NA,NA,NA,NA,NA,NA,NA,NA,NA,NA,NA,NA,NA,NA,NA,NA,NA,NA,NA,NA,NA,NA,NA,NA,NA,NA,NA,NA,"",NA,NA,NA,NA,NA,NA,NA,NA,NA,2025-11-21 01:14:39
"15709","https://psyc-201.github.io/xiang2023/exp/index1.html?PROLIFIC_PID=REDACTED&STUDY_ID=691f8ca61c6b4dcbb0aeb5f4&SESSION_ID=691fba1f6ab8ca48620a9201","survey-html-form",26,469864,"0.0-335.0","H6i06F4Ntuz6DsY9vC3WlXz52nH8wSb/zgQg9oiwnBnOmn4jJ4Hb+G58K9pKqv/jjdJGlBt+FZecmqi9UYJXjjDRirNJzZyMYDdqRS45yHVKIOmUj3cadK3NB52dcreMhfIdOtQAHE5DU6P7ke1DTJKt8VUuLy2Q3DrEp2oO2K1Tt8T7zia79tLq+N/Pmrc66FMlMY/RNeVrKlVgdfd1R83HSf1ogHgjSypVseKPuETHhXwIPW+O4cvcRHEQVXDbtWMVdkarPQpEUJYBxb/HK8dDvlpMrxqVgp9upcvz38EG2qkSt+JTdg+EW1mlohulyb9yhDttZKisuTDum9F3gw==","691f8ca61c6b4dcbb0aeb5f4","691fba1f6ab8ca48620a9201","index1","<span style='color:red'>Fail,<span style='color:red'>Fail,<span style='color:green'>Lift,<span style='color:green'>Lift,<span style='color:red'>Fail,<span style='color:red'>Fail,<span style='color:red'>Fail,<span style='color:red'>Fail,<span style='color:red'>Fail,<span style='color:green'>Lift,<span style='color:green'>Lift,<span style='color:red'>Fail","<span style='color:red'>Fail,<span style='color:red'>Fail,<span style='color:green'>Lift,<span style='color:green'>Lift,<span style='color:green'>Lift,<span style='color:green'>Lift,<span style='color:red'>Fail,<span style='color:green'>Lift,<span style='color:green'>Lift,<span style='color:green'>Lift,<span style='color:green'>Lift,<span style='color:red'>Fail","<span style='color:red'>Fail,<span style='color:green'>Lift,<span style='color:green'>Lift,<span style='color:red'>Fail,<span style='color:green'>Lift,<span style='color:green'>Lift","0,0,1,1,0,0,0,0,0,1,1,0","0,0,1,1,1,1,0,1,1,1,1,0","0,1,1,0,1,1",10,20,20,"","","","","{""box1"":""4"",""box2"":""4""}","",4,"round1_outcome",1,4,1,4,4,NA,NA,0,0,10,4,4,NA,NA,0,0,10,NA,NA,NA,NA,NA,NA,NA,NA,NA,NA,NA,NA,NA,NA,NA,NA,NA,NA,NA,NA,NA,NA,"",NA,NA,NA,NA,NA,NA,NA,NA,NA,2025-11-21 01:14:39
"16640","https://psyc-201.github.io/xiang2023/exp/index1.html?PROLIFIC_PID=REDACTED&STUDY_ID=691f8ca61c6b4dcbb0aeb5f4&SESSION_ID=691fba1f6ab8ca48620a9201","survey-html-form",27,486505,"0.0-336.0","H6i06F4Ntuz6DsY9vC3WlXz52nH8wSb/zgQg9oiwnBnOmn4jJ4Hb+G58K9pKqv/jjdJGlBt+FZecmqi9UYJXjjDRirNJzZyMYDdqRS45yHVKIOmUj3cadK3NB52dcreMhfIdOtQAHE5DU6P7ke1DTJKt8VUuLy2Q3DrEp2oO2K1Tt8T7zia79tLq+N/Pmrc66FMlMY/RNeVrKlVgdfd1R83HSf1ogHgjSypVseKPuETHhXwIPW+O4cvcRHEQVXDbtWMVdkarPQpEUJYBxb/HK8dDvlpMrxqVgp9upcvz38EG2qkSt+JTdg+EW1mlohulyb9yhDttZKisuTDum9F3gw==","691f8ca61c6b4dcbb0aeb5f4","691fba1f6ab8ca48620a9201","index1","<span style='color:red'>Fail,<span style='color:red'>Fail,<span style='color:green'>Lift,<span style='color:green'>Lift,<span style='color:red'>Fail,<span style='color:red'>Fail,<span style='color:red'>Fail,<span style='color:red'>Fail,<span style='color:red'>Fail,<span style='color:green'>Lift,<span style='color:green'>Lift,<span style='color:red'>Fail","<span style='color:red'>Fail,<span style='color:red'>Fail,<span style='color:green'>Lift,<span style='color:green'>Lift,<span style='color:green'>Lift,<span style='color:green'>Lift,<span style='color:red'>Fail,<span style='color:green'>Lift,<span style='color:green'>Lift,<span style='color:green'>Lift,<span style='color:green'>Lift,<span style='color:red'>Fail","<span style='color:red'>Fail,<span style='color:green'>Lift,<span style='color:green'>Lift,<span style='color:red'>Fail,<span style='color:green'>Lift,<span style='color:green'>Lift","0,0,1,1,0,0,0,0,0,1,1,0","0,0,1,1,1,1,0,1,1,1,1,0","0,1,1,0,1,1",10,20,20,"","","","","{""box1"":""40"",""box2"":""40""}","",4,"round2_ready",2,4,2,NA,NA,NA,NA,NA,NA,NA,NA,NA,NA,NA,NA,NA,NA,40,40,40,40,NA,NA,NA,NA,NA,NA,NA,NA,NA,NA,NA,NA,NA,NA,NA,NA,NA,NA,"",NA,NA,NA,NA,NA,NA,NA,NA,NA,2025-11-21 01:14:39
"8939","https://psyc-201.github.io/xiang2023/exp/index1.html?PROLIFIC_PID=REDACTED&STUDY_ID=691f8ca61c6b4dcbb0aeb5f4&SESSION_ID=691fba1f6ab8ca48620a9201","survey-html-form",28,495446,"0.0-337.0","H6i06F4Ntuz6DsY9vC3WlXz52nH8wSb/zgQg9oiwnBnOmn4jJ4Hb+G58K9pKqv/jjdJGlBt+FZecmqi9UYJXjjDRirNJzZyMYDdqRS45yHVKIOmUj3cadK3NB52dcreMhfIdOtQAHE5DU6P7ke1DTJKt8VUuLy2Q3DrEp2oO2K1Tt8T7zia79tLq+N/Pmrc66FMlMY/RNeVrKlVgdfd1R83HSf1ogHgjSypVseKPuETHhXwIPW+O4cvcRHEQVXDbtWMVdkarPQpEUJYBxb/HK8dDvlpMrxqVgp9upcvz38EG2qkSt+JTdg+EW1mlohulyb9yhDttZKisuTDum9F3gw==","691f8ca61c6b4dcbb0aeb5f4","691fba1f6ab8ca48620a9201","index1","<span style='color:red'>Fail,<span style='color:red'>Fail,<span style='color:green'>Lift,<span style='color:green'>Lift,<span style='color:red'>Fail,<span style='color:red'>Fail,<span style='color:red'>Fail,<span style='color:red'>Fail,<span style='color:red'>Fail,<span style='color:green'>Lift,<span style='color:green'>Lift,<span style='color:red'>Fail","<span style='color:red'>Fail,<span style='color:red'>Fail,<span style='color:green'>Lift,<span style='color:green'>Lift,<span style='color:green'>Lift,<span style='color:green'>Lift,<span style='color:red'>Fail,<span style='color:green'>Lift,<span style='color:green'>Lift,<span style='color:green'>Lift,<span style='color:green'>Lift,<span style='color:red'>Fail","<span style='color:red'>Fail,<span style='color:green'>Lift,<span style='color:green'>Lift,<span style='color:red'>Fail,<span style='color:green'>Lift,<span style='color:green'>Lift","0,0,1,1,0,0,0,0,0,1,1,0","0,0,1,1,1,1,0,1,1,1,1,0","0,1,1,0,1,1",10,20,20,"","","","","{""box1"":""3"",""box2"":""4""}","",4,"round2_outcome",3,4,2,3,4,NA,NA,0,0,20,NA,NA,NA,NA,NA,NA,NA,NA,NA,NA,NA,3,4,NA,NA,0,0,20,NA,NA,NA,NA,NA,NA,NA,NA,NA,NA,NA,"",NA,NA,NA,NA,NA,NA,NA,NA,NA,2025-11-21 01:14:39
"4935","https://psyc-201.github.io/xiang2023/exp/index1.html?PROLIFIC_PID=REDACTED&STUDY_ID=691f8ca61c6b4dcbb0aeb5f4&SESSION_ID=691fba1f6ab8ca48620a9201","survey-html-form",29,500384,"0.0-338.0","H6i06F4Ntuz6DsY9vC3WlXz52nH8wSb/zgQg9oiwnBnOmn4jJ4Hb+G58K9pKqv/jjdJGlBt+FZecmqi9UYJXjjDRirNJzZyMYDdqRS45yHVKIOmUj3cadK3NB52dcreMhfIdOtQAHE5DU6P7ke1DTJKt8VUuLy2Q3DrEp2oO2K1Tt8T7zia79tLq+N/Pmrc66FMlMY/RNeVrKlVgdfd1R83HSf1ogHgjSypVseKPuETHhXwIPW+O4cvcRHEQVXDbtWMVdkarPQpEUJYBxb/HK8dDvlpMrxqVgp9upcvz38EG2qkSt+JTdg+EW1mlohulyb9yhDttZKisuTDum9F3gw==","691f8ca61c6b4dcbb0aeb5f4","691fba1f6ab8ca48620a9201","index1","<span style='color:red'>Fail,<span style='color:red'>Fail,<span style='color:green'>Lift,<span style='color:green'>Lift,<span style='color:red'>Fail,<span style='color:red'>Fail,<span style='color:red'>Fail,<span style='color:red'>Fail,<span style='color:red'>Fail,<span style='color:green'>Lift,<span style='color:green'>Lift,<span style='color:red'>Fail","<span style='color:red'>Fail,<span style='color:red'>Fail,<span style='color:green'>Lift,<span style='color:green'>Lift,<span style='color:green'>Lift,<span style='color:green'>Lift,<span style='color:red'>Fail,<span style='color:green'>Lift,<span style='color:green'>Lift,<span style='color:green'>Lift,<span style='color:green'>Lift,<span style='color:red'>Fail","<span style='color:red'>Fail,<span style='color:green'>Lift,<span style='color:green'>Lift,<span style='color:red'>Fail,<span style='color:green'>Lift,<span style='color:green'>Lift","0,0,1,1,0,0,0,0,0,1,1,0","0,0,1,1,1,1,0,1,1,1,1,0","0,1,1,0,1,1",10,20,20,"","","","","{""box1"":""30""}","",4,"round3_ready",4,4,3,NA,NA,NA,NA,NA,NA,NA,NA,NA,NA,NA,NA,NA,NA,30,30,NA,NA,NA,NA,NA,NA,NA,NA,NA,30,30,NA,NA,NA,NA,NA,NA,NA,NA,NA,"",NA,NA,NA,NA,NA,NA,NA,NA,NA,2025-11-21 01:14:39
"9535","https://psyc-201.github.io/xiang2023/exp/index1.html?PROLIFIC_PID=REDACTED&STUDY_ID=691f8ca61c6b4dcbb0aeb5f4&SESSION_ID=691fba1f6ab8ca48620a9201","survey-html-form",30,509920,"0.0-340.0-0.0","H6i06F4Ntuz6DsY9vC3WlXz52nH8wSb/zgQg9oiwnBnOmn4jJ4Hb+G58K9pKqv/jjdJGlBt+FZecmqi9UYJXjjDRirNJzZyMYDdqRS45yHVKIOmUj3cadK3NB52dcreMhfIdOtQAHE5DU6P7ke1DTJKt8VUuLy2Q3DrEp2oO2K1Tt8T7zia79tLq+N/Pmrc66FMlMY/RNeVrKlVgdfd1R83HSf1ogHgjSypVseKPuETHhXwIPW+O4cvcRHEQVXDbtWMVdkarPQpEUJYBxb/HK8dDvlpMrxqVgp9upcvz38EG2qkSt+JTdg+EW1mlohulyb9yhDttZKisuTDum9F3gw==","691f8ca61c6b4dcbb0aeb5f4","691fba1f6ab8ca48620a9201","index1","<span style='color:red'>Fail,<span style='color:red'>Fail,<span style='color:green'>Lift,<span style='color:green'>Lift,<span style='color:red'>Fail,<span style='color:red'>Fail,<span style='color:red'>Fail,<span style='color:red'>Fail,<span style='color:red'>Fail,<span style='color:green'>Lift,<span style='color:green'>Lift,<span style='color:red'>Fail","<span style='color:red'>Fail,<span style='color:red'>Fail,<span style='color:green'>Lift,<span style='color:green'>Lift,<span style='color:green'>Lift,<span style='color:green'>Lift,<span style='color:red'>Fail,<span style='color:green'>Lift,<span style='color:green'>Lift,<span style='color:green'>Lift,<span style='color:green'>Lift,<span style='color:red'>Fail","<span style='color:red'>Fail,<span style='color:green'>Lift,<span style='color:green'>Lift,<span style='color:red'>Fail,<span style='color:green'>Lift,<span style='color:green'>Lift","0,0,1,1,0,0,0,0,0,1,1,0","0,0,1,1,1,1,0,1,1,1,1,0","0,1,1,0,1,1",10,20,20,"","","","","{""box1"":""3"",""box2"":""3"",""box3"":""999"",""box4"":""999""}","",5,"round3_fail",5,4,3,3,3,NA,NA,0,0,20,NA,NA,NA,NA,NA,NA,NA,NA,NA,NA,NA,NA,NA,NA,NA,NA,NA,NA,NA,NA,1,1,3,3,0,0,20,NA,NA,"",NA,NA,NA,NA,NA,NA,NA,NA,NA,2025-11-21 01:14:39
"null","https://psyc-201.github.io/xiang2023/exp/index1.html?PROLIFIC_PID=REDACTED&STUDY_ID=691f8ca61c6b4dcbb0aeb5f4&SESSION_ID=691fba1f6ab8ca48620a9201","html-keyboard-response",31,512932,"0.0-343.0","H6i06F4Ntuz6DsY9vC3WlXz52nH8wSb/zgQg9oiwnBnOmn4jJ4Hb+G58K9pKqv/jjdJGlBt+FZecmqi9UYJXjjDRirNJzZyMYDdqRS45yHVKIOmUj3cadK3NB52dcreMhfIdOtQAHE5DU6P7ke1DTJKt8VUuLy2Q3DrEp2oO2K1Tt8T7zia79tLq+N/Pmrc66FMlMY/RNeVrKlVgdfd1R83HSf1ogHgjSypVseKPuETHhXwIPW+O4cvcRHEQVXDbtWMVdkarPQpEUJYBxb/HK8dDvlpMrxqVgp9upcvz38EG2qkSt+JTdg+EW1mlohulyb9yhDttZKisuTDum9F3gw==","691f8ca61c6b4dcbb0aeb5f4","691fba1f6ab8ca48620a9201","index1","<span style='color:red'>Fail,<span style='color:red'>Fail,<span style='color:green'>Lift,<span style='color:green'>Lift,<span style='color:red'>Fail,<span style='color:red'>Fail,<span style='color:red'>Fail,<span style='color:red'>Fail,<span style='color:red'>Fail,<span style='color:green'>Lift,<span style='color:green'>Lift,<span style='color:red'>Fail","<span style='color:red'>Fail,<span style='color:red'>Fail,<span style='color:green'>Lift,<span style='color:green'>Lift,<span style='color:green'>Lift,<span style='color:green'>Lift,<span style='color:red'>Fail,<span style='color:green'>Lift,<span style='color:green'>Lift,<span style='color:green'>Lift,<span style='color:green'>Lift,<span style='color:red'>Fail","<span style='color:red'>Fail,<span style='color:green'>Lift,<span style='color:green'>Lift,<span style='color:red'>Fail,<span style='color:green'>Lift,<span style='color:green'>Lift","0,0,1,1,0,0,0,0,0,1,1,0","0,0,1,1,1,1,0,1,1,1,1,0","0,1,1,0,1,1",10,20,20,"","","<p style='font-size:30px'><b> New Contest! </b></p>","null","","",5,"",NA,NA,NA,NA,NA,NA,NA,NA,NA,NA,NA,NA,NA,NA,NA,NA,NA,NA,NA,NA,NA,NA,NA,NA,NA,NA,NA,NA,NA,NA,NA,NA,NA,NA,NA,NA,NA,NA,NA,"",NA,NA,NA,NA,NA,NA,NA,NA,NA,2025-11-21 01:14:39
"7450","https://psyc-201.github.io/xiang2023/exp/index1.html?PROLIFIC_PID=REDACTED&STUDY_ID=691f8ca61c6b4dcbb0aeb5f4&SESSION_ID=691fba1f6ab8ca48620a9201","survey-html-form",32,520384,"0.0-344.0","H6i06F4Ntuz6DsY9vC3WlXz52nH8wSb/zgQg9oiwnBnOmn4jJ4Hb+G58K9pKqv/jjdJGlBt+FZecmqi9UYJXjjDRirNJzZyMYDdqRS45yHVKIOmUj3cadK3NB52dcreMhfIdOtQAHE5DU6P7ke1DTJKt8VUuLy2Q3DrEp2oO2K1Tt8T7zia79tLq+N/Pmrc66FMlMY/RNeVrKlVgdfd1R83HSf1ogHgjSypVseKPuETHhXwIPW+O4cvcRHEQVXDbtWMVdkarPQpEUJYBxb/HK8dDvlpMrxqVgp9upcvz38EG2qkSt+JTdg+EW1mlohulyb9yhDttZKisuTDum9F3gw==","691f8ca61c6b4dcbb0aeb5f4","691fba1f6ab8ca48620a9201","index1","<span style='color:red'>Fail,<span style='color:red'>Fail,<span style='color:green'>Lift,<span style='color:green'>Lift,<span style='color:red'>Fail,<span style='color:red'>Fail,<span style='color:red'>Fail,<span style='color:red'>Fail,<span style='color:red'>Fail,<span style='color:green'>Lift,<span style='color:green'>Lift,<span style='color:red'>Fail","<span style='color:red'>Fail,<span style='color:red'>Fail,<span style='color:green'>Lift,<span style='color:green'>Lift,<span style='color:green'>Lift,<span style='color:green'>Lift,<span style='color:red'>Fail,<span style='color:green'>Lift,<span style='color:green'>Lift,<span style='color:green'>Lift,<span style='color:green'>Lift,<span style='color:red'>Fail","<span style='color:red'>Fail,<span style='color:green'>Lift,<span style='color:green'>Lift,<span style='color:red'>Fail,<span style='color:green'>Lift,<span style='color:green'>Lift","0,0,1,1,0,0,0,0,0,1,1,0","0,0,1,1,1,1,0,1,1,1,1,0","0,1,1,0,1,1",10,20,20,"","","","","{""box1"":""4"",""box2"":""4""}","",5,"round1_outcome",1,5,1,4,4,NA,NA,0,0,10,4,4,NA,NA,0,0,10,NA,NA,NA,NA,NA,NA,NA,NA,NA,NA,NA,NA,NA,NA,NA,NA,NA,NA,NA,NA,NA,NA,"",NA,NA,NA,NA,NA,NA,NA,NA,NA,2025-11-21 01:14:39
"11779","https://psyc-201.github.io/xiang2023/exp/index1.html?PROLIFIC_PID=REDACTED&STUDY_ID=691f8ca61c6b4dcbb0aeb5f4&SESSION_ID=691fba1f6ab8ca48620a9201","survey-html-form",33,532165,"0.0-345.0","H6i06F4Ntuz6DsY9vC3WlXz52nH8wSb/zgQg9oiwnBnOmn4jJ4Hb+G58K9pKqv/jjdJGlBt+FZecmqi9UYJXjjDRirNJzZyMYDdqRS45yHVKIOmUj3cadK3NB52dcreMhfIdOtQAHE5DU6P7ke1DTJKt8VUuLy2Q3DrEp2oO2K1Tt8T7zia79tLq+N/Pmrc66FMlMY/RNeVrKlVgdfd1R83HSf1ogHgjSypVseKPuETHhXwIPW+O4cvcRHEQVXDbtWMVdkarPQpEUJYBxb/HK8dDvlpMrxqVgp9upcvz38EG2qkSt+JTdg+EW1mlohulyb9yhDttZKisuTDum9F3gw==","691f8ca61c6b4dcbb0aeb5f4","691fba1f6ab8ca48620a9201","index1","<span style='color:red'>Fail,<span style='color:red'>Fail,<span style='color:green'>Lift,<span style='color:green'>Lift,<span style='color:red'>Fail,<span style='color:red'>Fail,<span style='color:red'>Fail,<span style='color:red'>Fail,<span style='color:red'>Fail,<span style='color:green'>Lift,<span style='color:green'>Lift,<span style='color:red'>Fail","<span style='color:red'>Fail,<span style='color:red'>Fail,<span style='color:green'>Lift,<span style='color:green'>Lift,<span style='color:green'>Lift,<span style='color:green'>Lift,<span style='color:red'>Fail,<span style='color:green'>Lift,<span style='color:green'>Lift,<span style='color:green'>Lift,<span style='color:green'>Lift,<span style='color:red'>Fail","<span style='color:red'>Fail,<span style='color:green'>Lift,<span style='color:green'>Lift,<span style='color:red'>Fail,<span style='color:green'>Lift,<span style='color:green'>Lift","0,0,1,1,0,0,0,0,0,1,1,0","0,0,1,1,1,1,0,1,1,1,1,0","0,1,1,0,1,1",10,20,20,"","","","","{""box1"":""35"",""box2"":""40""}","",5,"round2_ready",2,5,2,NA,NA,NA,NA,NA,NA,NA,NA,NA,NA,NA,NA,NA,NA,35,40,35,40,NA,NA,NA,NA,NA,NA,NA,NA,NA,NA,NA,NA,NA,NA,NA,NA,NA,NA,"",NA,NA,NA,NA,NA,NA,NA,NA,NA,2025-11-21 01:14:39
"13842","https://psyc-201.github.io/xiang2023/exp/index1.html?PROLIFIC_PID=REDACTED&STUDY_ID=691f8ca61c6b4dcbb0aeb5f4&SESSION_ID=691fba1f6ab8ca48620a9201","survey-html-form",34,546008,"0.0-346.0","H6i06F4Ntuz6DsY9vC3WlXz52nH8wSb/zgQg9oiwnBnOmn4jJ4Hb+G58K9pKqv/jjdJGlBt+FZecmqi9UYJXjjDRirNJzZyMYDdqRS45yHVKIOmUj3cadK3NB52dcreMhfIdOtQAHE5DU6P7ke1DTJKt8VUuLy2Q3DrEp2oO2K1Tt8T7zia79tLq+N/Pmrc66FMlMY/RNeVrKlVgdfd1R83HSf1ogHgjSypVseKPuETHhXwIPW+O4cvcRHEQVXDbtWMVdkarPQpEUJYBxb/HK8dDvlpMrxqVgp9upcvz38EG2qkSt+JTdg+EW1mlohulyb9yhDttZKisuTDum9F3gw==","691f8ca61c6b4dcbb0aeb5f4","691fba1f6ab8ca48620a9201","index1","<span style='color:red'>Fail,<span style='color:red'>Fail,<span style='color:green'>Lift,<span style='color:green'>Lift,<span style='color:red'>Fail,<span style='color:red'>Fail,<span style='color:red'>Fail,<span style='color:red'>Fail,<span style='color:red'>Fail,<span style='color:green'>Lift,<span style='color:green'>Lift,<span style='color:red'>Fail","<span style='color:red'>Fail,<span style='color:red'>Fail,<span style='color:green'>Lift,<span style='color:green'>Lift,<span style='color:green'>Lift,<span style='color:green'>Lift,<span style='color:red'>Fail,<span style='color:green'>Lift,<span style='color:green'>Lift,<span style='color:green'>Lift,<span style='color:green'>Lift,<span style='color:red'>Fail","<span style='color:red'>Fail,<span style='color:green'>Lift,<span style='color:green'>Lift,<span style='color:red'>Fail,<span style='color:green'>Lift,<span style='color:green'>Lift","0,0,1,1,0,0,0,0,0,1,1,0","0,0,1,1,1,1,0,1,1,1,1,0","0,1,1,0,1,1",10,20,20,"","","","","{""box1"":""5"",""box2"":""5"",""box3"":""80"",""box4"":""80""}","",5,"round2_outcome",3,5,2,5,5,80,80,1,1,20,NA,NA,NA,NA,NA,NA,NA,NA,NA,NA,NA,5,5,80,80,1,1,20,NA,NA,NA,NA,NA,NA,NA,NA,NA,NA,NA,"",NA,NA,NA,NA,NA,NA,NA,NA,NA,2025-11-21 01:14:39
"5384","https://psyc-201.github.io/xiang2023/exp/index1.html?PROLIFIC_PID=REDACTED&STUDY_ID=691f8ca61c6b4dcbb0aeb5f4&SESSION_ID=691fba1f6ab8ca48620a9201","survey-html-form",35,551395,"0.0-347.0","H6i06F4Ntuz6DsY9vC3WlXz52nH8wSb/zgQg9oiwnBnOmn4jJ4Hb+G58K9pKqv/jjdJGlBt+FZecmqi9UYJXjjDRirNJzZyMYDdqRS45yHVKIOmUj3cadK3NB52dcreMhfIdOtQAHE5DU6P7ke1DTJKt8VUuLy2Q3DrEp2oO2K1Tt8T7zia79tLq+N/Pmrc66FMlMY/RNeVrKlVgdfd1R83HSf1ogHgjSypVseKPuETHhXwIPW+O4cvcRHEQVXDbtWMVdkarPQpEUJYBxb/HK8dDvlpMrxqVgp9upcvz38EG2qkSt+JTdg+EW1mlohulyb9yhDttZKisuTDum9F3gw==","691f8ca61c6b4dcbb0aeb5f4","691fba1f6ab8ca48620a9201","index1","<span style='color:red'>Fail,<span style='color:red'>Fail,<span style='color:green'>Lift,<span style='color:green'>Lift,<span style='color:red'>Fail,<span style='color:red'>Fail,<span style='color:red'>Fail,<span style='color:red'>Fail,<span style='color:red'>Fail,<span style='color:green'>Lift,<span style='color:green'>Lift,<span style='color:red'>Fail","<span style='color:red'>Fail,<span style='color:red'>Fail,<span style='color:green'>Lift,<span style='color:green'>Lift,<span style='color:green'>Lift,<span style='color:green'>Lift,<span style='color:red'>Fail,<span style='color:green'>Lift,<span style='color:green'>Lift,<span style='color:green'>Lift,<span style='color:green'>Lift,<span style='color:red'>Fail","<span style='color:red'>Fail,<span style='color:green'>Lift,<span style='color:green'>Lift,<span style='color:red'>Fail,<span style='color:green'>Lift,<span style='color:green'>Lift","0,0,1,1,0,0,0,0,0,1,1,0","0,0,1,1,1,1,0,1,1,1,1,0","0,1,1,0,1,1",10,20,20,"","","","","{""box1"":""87""}","",5,"round3_ready",4,5,3,NA,NA,NA,NA,NA,NA,NA,NA,NA,NA,NA,NA,NA,NA,87,87,NA,NA,NA,NA,NA,NA,NA,NA,NA,87,87,NA,NA,NA,NA,NA,NA,NA,NA,NA,"",NA,NA,NA,NA,NA,NA,NA,NA,NA,2025-11-21 01:14:39
"16371","https://psyc-201.github.io/xiang2023/exp/index1.html?PROLIFIC_PID=REDACTED&STUDY_ID=691f8ca61c6b4dcbb0aeb5f4&SESSION_ID=691fba1f6ab8ca48620a9201","survey-html-form",36,567767,"0.0-348.0-0.0","H6i06F4Ntuz6DsY9vC3WlXz52nH8wSb/zgQg9oiwnBnOmn4jJ4Hb+G58K9pKqv/jjdJGlBt+FZecmqi9UYJXjjDRirNJzZyMYDdqRS45yHVKIOmUj3cadK3NB52dcreMhfIdOtQAHE5DU6P7ke1DTJKt8VUuLy2Q3DrEp2oO2K1Tt8T7zia79tLq+N/Pmrc66FMlMY/RNeVrKlVgdfd1R83HSf1ogHgjSypVseKPuETHhXwIPW+O4cvcRHEQVXDbtWMVdkarPQpEUJYBxb/HK8dDvlpMrxqVgp9upcvz38EG2qkSt+JTdg+EW1mlohulyb9yhDttZKisuTDum9F3gw==","691f8ca61c6b4dcbb0aeb5f4","691fba1f6ab8ca48620a9201","index1","<span style='color:red'>Fail,<span style='color:red'>Fail,<span style='color:green'>Lift,<span style='color:green'>Lift,<span style='color:red'>Fail,<span style='color:red'>Fail,<span style='color:red'>Fail,<span style='color:red'>Fail,<span style='color:red'>Fail,<span style='color:green'>Lift,<span style='color:green'>Lift,<span style='color:red'>Fail","<span style='color:red'>Fail,<span style='color:red'>Fail,<span style='color:green'>Lift,<span style='color:green'>Lift,<span style='color:green'>Lift,<span style='color:green'>Lift,<span style='color:red'>Fail,<span style='color:green'>Lift,<span style='color:green'>Lift,<span style='color:green'>Lift,<span style='color:green'>Lift,<span style='color:red'>Fail","<span style='color:red'>Fail,<span style='color:green'>Lift,<span style='color:green'>Lift,<span style='color:red'>Fail,<span style='color:green'>Lift,<span style='color:green'>Lift","0,0,1,1,0,0,0,0,0,1,1,0","0,0,1,1,1,1,0,1,1,1,1,0","0,1,1,0,1,1",10,20,20,"","","","","{""box1"":""5"",""box2"":""5"",""box3"":""87"",""box4"":""89""}","",6,"round3_lift",5,5,3,5,5,87,89,1,1,20,NA,NA,NA,NA,NA,NA,NA,NA,NA,NA,NA,NA,NA,NA,NA,NA,NA,NA,NA,NA,NA,NA,5,5,1,1,20,87,89,"",NA,NA,NA,NA,NA,NA,NA,NA,NA,2025-11-21 01:14:39
"null","https://psyc-201.github.io/xiang2023/exp/index1.html?PROLIFIC_PID=REDACTED&STUDY_ID=691f8ca61c6b4dcbb0aeb5f4&SESSION_ID=691fba1f6ab8ca48620a9201","html-keyboard-response",37,570775,"0.0-352.0","H6i06F4Ntuz6DsY9vC3WlXz52nH8wSb/zgQg9oiwnBnOmn4jJ4Hb+G58K9pKqv/jjdJGlBt+FZecmqi9UYJXjjDRirNJzZyMYDdqRS45yHVKIOmUj3cadK3NB52dcreMhfIdOtQAHE5DU6P7ke1DTJKt8VUuLy2Q3DrEp2oO2K1Tt8T7zia79tLq+N/Pmrc66FMlMY/RNeVrKlVgdfd1R83HSf1ogHgjSypVseKPuETHhXwIPW+O4cvcRHEQVXDbtWMVdkarPQpEUJYBxb/HK8dDvlpMrxqVgp9upcvz38EG2qkSt+JTdg+EW1mlohulyb9yhDttZKisuTDum9F3gw==","691f8ca61c6b4dcbb0aeb5f4","691fba1f6ab8ca48620a9201","index1","<span style='color:red'>Fail,<span style='color:red'>Fail,<span style='color:green'>Lift,<span style='color:green'>Lift,<span style='color:red'>Fail,<span style='color:red'>Fail,<span style='color:red'>Fail,<span style='color:red'>Fail,<span style='color:red'>Fail,<span style='color:green'>Lift,<span style='color:green'>Lift,<span style='color:red'>Fail","<span style='color:red'>Fail,<span style='color:red'>Fail,<span style='color:green'>Lift,<span style='color:green'>Lift,<span style='color:green'>Lift,<span style='color:green'>Lift,<span style='color:red'>Fail,<span style='color:green'>Lift,<span style='color:green'>Lift,<span style='color:green'>Lift,<span style='color:green'>Lift,<span style='color:red'>Fail","<span style='color:red'>Fail,<span style='color:green'>Lift,<span style='color:green'>Lift,<span style='color:red'>Fail,<span style='color:green'>Lift,<span style='color:green'>Lift","0,0,1,1,0,0,0,0,0,1,1,0","0,0,1,1,1,1,0,1,1,1,1,0","0,1,1,0,1,1",10,20,20,"","","<p style='font-size:30px'><b> New Contest! </b></p>","null","","",6,"",NA,NA,NA,NA,NA,NA,NA,NA,NA,NA,NA,NA,NA,NA,NA,NA,NA,NA,NA,NA,NA,NA,NA,NA,NA,NA,NA,NA,NA,NA,NA,NA,NA,NA,NA,NA,NA,NA,NA,"",NA,NA,NA,NA,NA,NA,NA,NA,NA,2025-11-21 01:14:39
"14616","https://psyc-201.github.io/xiang2023/exp/index1.html?PROLIFIC_PID=REDACTED&STUDY_ID=691f8ca61c6b4dcbb0aeb5f4&SESSION_ID=691fba1f6ab8ca48620a9201","survey-html-form",38,585394,"0.0-353.0","H6i06F4Ntuz6DsY9vC3WlXz52nH8wSb/zgQg9oiwnBnOmn4jJ4Hb+G58K9pKqv/jjdJGlBt+FZecmqi9UYJXjjDRirNJzZyMYDdqRS45yHVKIOmUj3cadK3NB52dcreMhfIdOtQAHE5DU6P7ke1DTJKt8VUuLy2Q3DrEp2oO2K1Tt8T7zia79tLq+N/Pmrc66FMlMY/RNeVrKlVgdfd1R83HSf1ogHgjSypVseKPuETHhXwIPW+O4cvcRHEQVXDbtWMVdkarPQpEUJYBxb/HK8dDvlpMrxqVgp9upcvz38EG2qkSt+JTdg+EW1mlohulyb9yhDttZKisuTDum9F3gw==","691f8ca61c6b4dcbb0aeb5f4","691fba1f6ab8ca48620a9201","index1","<span style='color:red'>Fail,<span style='color:red'>Fail,<span style='color:green'>Lift,<span style='color:green'>Lift,<span style='color:red'>Fail,<span style='color:red'>Fail,<span style='color:red'>Fail,<span style='color:red'>Fail,<span style='color:red'>Fail,<span style='color:green'>Lift,<span style='color:green'>Lift,<span style='color:red'>Fail","<span style='color:red'>Fail,<span style='color:red'>Fail,<span style='color:green'>Lift,<span style='color:green'>Lift,<span style='color:green'>Lift,<span style='color:green'>Lift,<span style='color:red'>Fail,<span style='color:green'>Lift,<span style='color:green'>Lift,<span style='color:green'>Lift,<span style='color:green'>Lift,<span style='color:red'>Fail","<span style='color:red'>Fail,<span style='color:green'>Lift,<span style='color:green'>Lift,<span style='color:red'>Fail,<span style='color:green'>Lift,<span style='color:green'>Lift","0,0,1,1,0,0,0,0,0,1,1,0","0,0,1,1,1,1,0,1,1,1,1,0","0,1,1,0,1,1",10,20,20,"","","","","{""box1"":""7"",""box2"":""3"",""box3"":""90""}","",6,"round1_outcome",1,6,1,7,3,90,NA,1,0,10,7,3,90,NA,1,0,10,NA,NA,NA,NA,NA,NA,NA,NA,NA,NA,NA,NA,NA,NA,NA,NA,NA,NA,NA,NA,NA,NA,"",NA,NA,NA,NA,NA,NA,NA,NA,NA,2025-11-21 01:14:39
"8629","https://psyc-201.github.io/xiang2023/exp/index1.html?PROLIFIC_PID=REDACTED&STUDY_ID=691f8ca61c6b4dcbb0aeb5f4&SESSION_ID=691fba1f6ab8ca48620a9201","survey-html-form",39,594024,"0.0-354.0","H6i06F4Ntuz6DsY9vC3WlXz52nH8wSb/zgQg9oiwnBnOmn4jJ4Hb+G58K9pKqv/jjdJGlBt+FZecmqi9UYJXjjDRirNJzZyMYDdqRS45yHVKIOmUj3cadK3NB52dcreMhfIdOtQAHE5DU6P7ke1DTJKt8VUuLy2Q3DrEp2oO2K1Tt8T7zia79tLq+N/Pmrc66FMlMY/RNeVrKlVgdfd1R83HSf1ogHgjSypVseKPuETHhXwIPW+O4cvcRHEQVXDbtWMVdkarPQpEUJYBxb/HK8dDvlpMrxqVgp9upcvz38EG2qkSt+JTdg+EW1mlohulyb9yhDttZKisuTDum9F3gw==","691f8ca61c6b4dcbb0aeb5f4","691fba1f6ab8ca48620a9201","index1","<span style='color:red'>Fail,<span style='color:red'>Fail,<span style='color:green'>Lift,<span style='color:green'>Lift,<span style='color:red'>Fail,<span style='color:red'>Fail,<span style='color:red'>Fail,<span style='color:red'>Fail,<span style='color:red'>Fail,<span style='color:green'>Lift,<span style='color:green'>Lift,<span style='color:red'>Fail","<span style='color:red'>Fail,<span style='color:red'>Fail,<span style='color:green'>Lift,<span style='color:green'>Lift,<span style='color:green'>Lift,<span style='color:green'>Lift,<span style='color:red'>Fail,<span style='color:green'>Lift,<span style='color:green'>Lift,<span style='color:green'>Lift,<span style='color:green'>Lift,<span style='color:red'>Fail","<span style='color:red'>Fail,<span style='color:green'>Lift,<span style='color:green'>Lift,<span style='color:red'>Fail,<span style='color:green'>Lift,<span style='color:green'>Lift","0,0,1,1,0,0,0,0,0,1,1,0","0,0,1,1,1,1,0,1,1,1,1,0","0,1,1,0,1,1",10,20,20,"","","","","{""box1"":""80"",""box2"":""20""}","",6,"round2_ready",2,6,2,NA,NA,NA,NA,NA,NA,NA,NA,NA,NA,NA,NA,NA,NA,80,20,80,20,NA,NA,NA,NA,NA,NA,NA,NA,NA,NA,NA,NA,NA,NA,NA,NA,NA,NA,"",NA,NA,NA,NA,NA,NA,NA,NA,NA,2025-11-21 01:14:39
"12811","https://psyc-201.github.io/xiang2023/exp/index1.html?PROLIFIC_PID=REDACTED&STUDY_ID=691f8ca61c6b4dcbb0aeb5f4&SESSION_ID=691fba1f6ab8ca48620a9201","survey-html-form",40,606837,"0.0-355.0","H6i06F4Ntuz6DsY9vC3WlXz52nH8wSb/zgQg9oiwnBnOmn4jJ4Hb+G58K9pKqv/jjdJGlBt+FZecmqi9UYJXjjDRirNJzZyMYDdqRS45yHVKIOmUj3cadK3NB52dcreMhfIdOtQAHE5DU6P7ke1DTJKt8VUuLy2Q3DrEp2oO2K1Tt8T7zia79tLq+N/Pmrc66FMlMY/RNeVrKlVgdfd1R83HSf1ogHgjSypVseKPuETHhXwIPW+O4cvcRHEQVXDbtWMVdkarPQpEUJYBxb/HK8dDvlpMrxqVgp9upcvz38EG2qkSt+JTdg+EW1mlohulyb9yhDttZKisuTDum9F3gw==","691f8ca61c6b4dcbb0aeb5f4","691fba1f6ab8ca48620a9201","index1","<span style='color:red'>Fail,<span style='color:red'>Fail,<span style='color:green'>Lift,<span style='color:green'>Lift,<span style='color:red'>Fail,<span style='color:red'>Fail,<span style='color:red'>Fail,<span style='color:red'>Fail,<span style='color:red'>Fail,<span style='color:green'>Lift,<span style='color:green'>Lift,<span style='color:red'>Fail","<span style='color:red'>Fail,<span style='color:red'>Fail,<span style='color:green'>Lift,<span style='color:green'>Lift,<span style='color:green'>Lift,<span style='color:green'>Lift,<span style='color:red'>Fail,<span style='color:green'>Lift,<span style='color:green'>Lift,<span style='color:green'>Lift,<span style='color:green'>Lift,<span style='color:red'>Fail","<span style='color:red'>Fail,<span style='color:green'>Lift,<span style='color:green'>Lift,<span style='color:red'>Fail,<span style='color:green'>Lift,<span style='color:green'>Lift","0,0,1,1,0,0,0,0,0,1,1,0","0,0,1,1,1,1,0,1,1,1,1,0","0,1,1,0,1,1",10,20,20,"","","","","{""box1"":""7"",""box2"":""3"",""box3"":""92""}","",6,"round2_outcome",3,6,2,7,3,92,NA,1,0,20,NA,NA,NA,NA,NA,NA,NA,NA,NA,NA,NA,7,3,92,NA,1,0,20,NA,NA,NA,NA,NA,NA,NA,NA,NA,NA,NA,"",NA,NA,NA,NA,NA,NA,NA,NA,NA,2025-11-21 01:14:39
"5604","https://psyc-201.github.io/xiang2023/exp/index1.html?PROLIFIC_PID=REDACTED&STUDY_ID=691f8ca61c6b4dcbb0aeb5f4&SESSION_ID=691fba1f6ab8ca48620a9201","survey-html-form",41,612442,"0.0-356.0","H6i06F4Ntuz6DsY9vC3WlXz52nH8wSb/zgQg9oiwnBnOmn4jJ4Hb+G58K9pKqv/jjdJGlBt+FZecmqi9UYJXjjDRirNJzZyMYDdqRS45yHVKIOmUj3cadK3NB52dcreMhfIdOtQAHE5DU6P7ke1DTJKt8VUuLy2Q3DrEp2oO2K1Tt8T7zia79tLq+N/Pmrc66FMlMY/RNeVrKlVgdfd1R83HSf1ogHgjSypVseKPuETHhXwIPW+O4cvcRHEQVXDbtWMVdkarPQpEUJYBxb/HK8dDvlpMrxqVgp9upcvz38EG2qkSt+JTdg+EW1mlohulyb9yhDttZKisuTDum9F3gw==","691f8ca61c6b4dcbb0aeb5f4","691fba1f6ab8ca48620a9201","index1","<span style='color:red'>Fail,<span style='color:red'>Fail,<span style='color:green'>Lift,<span style='color:green'>Lift,<span style='color:red'>Fail,<span style='color:red'>Fail,<span style='color:red'>Fail,<span style='color:red'>Fail,<span style='color:red'>Fail,<span style='color:green'>Lift,<span style='color:green'>Lift,<span style='color:red'>Fail","<span style='color:red'>Fail,<span style='color:red'>Fail,<span style='color:green'>Lift,<span style='color:green'>Lift,<span style='color:green'>Lift,<span style='color:green'>Lift,<span style='color:red'>Fail,<span style='color:green'>Lift,<span style='color:green'>Lift,<span style='color:green'>Lift,<span style='color:green'>Lift,<span style='color:red'>Fail","<span style='color:red'>Fail,<span style='color:green'>Lift,<span style='color:green'>Lift,<span style='color:red'>Fail,<span style='color:green'>Lift,<span style='color:green'>Lift","0,0,1,1,0,0,0,0,0,1,1,0","0,0,1,1,1,1,0,1,1,1,1,0","0,1,1,0,1,1",10,20,20,"","","","","{""box1"":""50""}","",6,"round3_ready",4,6,3,NA,NA,NA,NA,NA,NA,NA,NA,NA,NA,NA,NA,NA,NA,50,50,NA,NA,NA,NA,NA,NA,NA,NA,NA,50,50,NA,NA,NA,NA,NA,NA,NA,NA,NA,"",NA,NA,NA,NA,NA,NA,NA,NA,NA,2025-11-21 01:14:39
"14803","https://psyc-201.github.io/xiang2023/exp/index1.html?PROLIFIC_PID=REDACTED&STUDY_ID=691f8ca61c6b4dcbb0aeb5f4&SESSION_ID=691fba1f6ab8ca48620a9201","survey-html-form",42,627246,"0.0-357.0-0.0","H6i06F4Ntuz6DsY9vC3WlXz52nH8wSb/zgQg9oiwnBnOmn4jJ4Hb+G58K9pKqv/jjdJGlBt+FZecmqi9UYJXjjDRirNJzZyMYDdqRS45yHVKIOmUj3cadK3NB52dcreMhfIdOtQAHE5DU6P7ke1DTJKt8VUuLy2Q3DrEp2oO2K1Tt8T7zia79tLq+N/Pmrc66FMlMY/RNeVrKlVgdfd1R83HSf1ogHgjSypVseKPuETHhXwIPW+O4cvcRHEQVXDbtWMVdkarPQpEUJYBxb/HK8dDvlpMrxqVgp9upcvz38EG2qkSt+JTdg+EW1mlohulyb9yhDttZKisuTDum9F3gw==","691f8ca61c6b4dcbb0aeb5f4","691fba1f6ab8ca48620a9201","index1","<span style='color:red'>Fail,<span style='color:red'>Fail,<span style='color:green'>Lift,<span style='color:green'>Lift,<span style='color:red'>Fail,<span style='color:red'>Fail,<span style='color:red'>Fail,<span style='color:red'>Fail,<span style='color:red'>Fail,<span style='color:green'>Lift,<span style='color:green'>Lift,<span style='color:red'>Fail","<span style='color:red'>Fail,<span style='color:red'>Fail,<span style='color:green'>Lift,<span style='color:green'>Lift,<span style='color:green'>Lift,<span style='color:green'>Lift,<span style='color:red'>Fail,<span style='color:green'>Lift,<span style='color:green'>Lift,<span style='color:green'>Lift,<span style='color:green'>Lift,<span style='color:red'>Fail","<span style='color:red'>Fail,<span style='color:green'>Lift,<span style='color:green'>Lift,<span style='color:red'>Fail,<span style='color:green'>Lift,<span style='color:green'>Lift","0,0,1,1,0,0,0,0,0,1,1,0","0,0,1,1,1,1,0,1,1,1,1,0","0,1,1,0,1,1",10,20,20,"","","","","{""box1"":""7"",""box2"":""3"",""box3"":""93"",""box4"":""76""}","",6,"round3_lift",5,6,3,7,3,93,76,1,1,20,NA,NA,NA,NA,NA,NA,NA,NA,NA,NA,NA,NA,NA,NA,NA,NA,NA,NA,NA,NA,NA,NA,7,3,1,1,20,93,76,"",NA,NA,NA,NA,NA,NA,NA,NA,NA,2025-11-21 01:14:39
"44877","https://psyc-201.github.io/xiang2023/exp/index1.html?PROLIFIC_PID=REDACTED&STUDY_ID=691f8ca61c6b4dcbb0aeb5f4&SESSION_ID=691fba1f6ab8ca48620a9201","survey-text",43,672133,"0.0-361.0","H6i06F4Ntuz6DsY9vC3WlXz52nH8wSb/zgQg9oiwnBnOmn4jJ4Hb+G58K9pKqv/jjdJGlBt+FZecmqi9UYJXjjDRirNJzZyMYDdqRS45yHVKIOmUj3cadK3NB52dcreMhfIdOtQAHE5DU6P7ke1DTJKt8VUuLy2Q3DrEp2oO2K1Tt8T7zia79tLq+N/Pmrc66FMlMY/RNeVrKlVgdfd1R83HSf1ogHgjSypVseKPuETHhXwIPW+O4cvcRHEQVXDbtWMVdkarPQpEUJYBxb/HK8dDvlpMrxqVgp9upcvz38EG2qkSt+JTdg+EW1mlohulyb9yhDttZKisuTDum9F3gw==","691f8ca61c6b4dcbb0aeb5f4","691fba1f6ab8ca48620a9201","index1","<span style='color:red'>Fail,<span style='color:red'>Fail,<span style='color:green'>Lift,<span style='color:green'>Lift,<span style='color:red'>Fail,<span style='color:red'>Fail,<span style='color:red'>Fail,<span style='color:red'>Fail,<span style='color:red'>Fail,<span style='color:green'>Lift,<span style='color:green'>Lift,<span style='color:red'>Fail","<span style='color:red'>Fail,<span style='color:red'>Fail,<span style='color:green'>Lift,<span style='color:green'>Lift,<span style='color:green'>Lift,<span style='color:green'>Lift,<span style='color:red'>Fail,<span style='color:green'>Lift,<span style='color:green'>Lift,<span style='color:green'>Lift,<span style='color:green'>Lift,<span style='color:red'>Fail","<span style='color:red'>Fail,<span style='color:green'>Lift,<span style='color:green'>Lift,<span style='color:red'>Fail,<span style='color:green'>Lift,<span style='color:green'>Lift","0,0,1,1,0,0,0,0,0,1,1,0","0,0,1,1,1,1,0,1,1,1,1,0","0,1,1,0,1,1",10,20,20,"","","","","{""Q0"":""You look at both contestants and their results and guess what their strength might be based on the results, and how much effort they may have given the task. You also rate how likely they can pull off a team lift.""}","",NA,"",NA,NA,NA,NA,NA,NA,NA,NA,NA,NA,NA,NA,NA,NA,NA,NA,NA,NA,NA,NA,NA,NA,NA,NA,NA,NA,NA,NA,NA,NA,NA,NA,NA,NA,NA,NA,NA,NA,NA,"",NA,NA,NA,NA,NA,NA,NA,NA,NA,2025-11-21 01:14:39
"12778","https://psyc-201.github.io/xiang2023/exp/index1.html?PROLIFIC_PID=REDACTED&STUDY_ID=691f8ca61c6b4dcbb0aeb5f4&SESSION_ID=691fba1f6ab8ca48620a9201","survey-text",44,684914,"0.0-362.0","H6i06F4Ntuz6DsY9vC3WlXz52nH8wSb/zgQg9oiwnBnOmn4jJ4Hb+G58K9pKqv/jjdJGlBt+FZecmqi9UYJXjjDRirNJzZyMYDdqRS45yHVKIOmUj3cadK3NB52dcreMhfIdOtQAHE5DU6P7ke1DTJKt8VUuLy2Q3DrEp2oO2K1Tt8T7zia79tLq+N/Pmrc66FMlMY/RNeVrKlVgdfd1R83HSf1ogHgjSypVseKPuETHhXwIPW+O4cvcRHEQVXDbtWMVdkarPQpEUJYBxb/HK8dDvlpMrxqVgp9upcvz38EG2qkSt+JTdg+EW1mlohulyb9yhDttZKisuTDum9F3gw==","691f8ca61c6b4dcbb0aeb5f4","691fba1f6ab8ca48620a9201","index1","<span style='color:red'>Fail,<span style='color:red'>Fail,<span style='color:green'>Lift,<span style='color:green'>Lift,<span style='color:red'>Fail,<span style='color:red'>Fail,<span style='color:red'>Fail,<span style='color:red'>Fail,<span style='color:red'>Fail,<span style='color:green'>Lift,<span style='color:green'>Lift,<span style='color:red'>Fail","<span style='color:red'>Fail,<span style='color:red'>Fail,<span style='color:green'>Lift,<span style='color:green'>Lift,<span style='color:green'>Lift,<span style='color:green'>Lift,<span style='color:red'>Fail,<span style='color:green'>Lift,<span style='color:green'>Lift,<span style='color:green'>Lift,<span style='color:green'>Lift,<span style='color:red'>Fail","<span style='color:red'>Fail,<span style='color:green'>Lift,<span style='color:green'>Lift,<span style='color:red'>Fail,<span style='color:green'>Lift,<span style='color:green'>Lift","0,0,1,1,0,0,0,0,0,1,1,0","0,0,1,1,1,1,0,1,1,1,1,0","0,1,1,0,1,1",10,20,20,"","","","","{""Q0"":""""}","",NA,"",NA,NA,NA,NA,NA,NA,NA,NA,NA,NA,NA,NA,NA,NA,NA,NA,NA,NA,NA,NA,NA,NA,NA,NA,NA,NA,NA,NA,NA,NA,NA,NA,NA,NA,NA,NA,NA,NA,NA,"[{""event"":""fullscreenenter"",""trial"":1,""time"":9788}]",6,3,NA,50,1,0.5,NA,NA,NA,2025-11-21 01:14:39
"5496","https://psyc-201.github.io/xiang2023/exp/index1.html?PROLIFIC_PID=REDACTED&STUDY_ID=691f8ca61c6b4dcbb0aeb5f4&SESSION_ID=691fba1f6ab8ca48620a9201","html-button-response",45,690411,"0.0-363.0","H6i06F4Ntuz6DsY9vC3WlXz52nH8wSb/zgQg9oiwnBnOmn4jJ4Hb+G58K9pKqv/jjdJGlBt+FZecmqi9UYJXjjDRirNJzZyMYDdqRS45yHVKIOmUj3cadK3NB52dcreMhfIdOtQAHE5DU6P7ke1DTJKt8VUuLy2Q3DrEp2oO2K1Tt8T7zia79tLq+N/Pmrc66FMlMY/RNeVrKlVgdfd1R83HSf1ogHgjSypVseKPuETHhXwIPW+O4cvcRHEQVXDbtWMVdkarPQpEUJYBxb/HK8dDvlpMrxqVgp9upcvz38EG2qkSt+JTdg+EW1mlohulyb9yhDttZKisuTDum9F3gw==","691f8ca61c6b4dcbb0aeb5f4","691fba1f6ab8ca48620a9201","index1","<span style='color:red'>Fail,<span style='color:red'>Fail,<span style='color:green'>Lift,<span style='color:green'>Lift,<span style='color:red'>Fail,<span style='color:red'>Fail,<span style='color:red'>Fail,<span style='color:red'>Fail,<span style='color:red'>Fail,<span style='color:green'>Lift,<span style='color:green'>Lift,<span style='color:red'>Fail","<span style='color:red'>Fail,<span style='color:red'>Fail,<span style='color:green'>Lift,<span style='color:green'>Lift,<span style='color:green'>Lift,<span style='color:green'>Lift,<span style='color:red'>Fail,<span style='color:green'>Lift,<span style='color:green'>Lift,<span style='color:green'>Lift,<span style='color:green'>Lift,<span style='color:red'>Fail","<span style='color:red'>Fail,<span style='color:green'>Lift,<span style='color:green'>Lift,<span style='color:red'>Fail,<span style='color:green'>Lift,<span style='color:green'>Lift","0,0,1,1,0,0,0,0,0,1,1,0","0,0,1,1,1,1,0,1,1,1,1,0","0,1,1,0,1,1",10,20,20,"","","<p> We randomly picked <b>Contest 6, Round 3</b> to calculate your bonus. </p><p> The outcome of Contestant K and L on that round is <span style='color:green'>Lift</span>. </p><p> The probability you entered was 50. </p><p><b> You won a bonus of $0.50!</b></p><p> IMPORTANT: Please click 'Next' to complete the game. </p>","","","",NA,"",NA,NA,NA,NA,NA,NA,NA,NA,NA,NA,NA,NA,NA,NA,NA,NA,NA,NA,NA,NA,NA,NA,NA,NA,NA,NA,NA,NA,NA,NA,NA,NA,NA,NA,NA,NA,NA,NA,NA,"",NA,NA,NA,NA,NA,NA,0,2,1,2025-11-21 01:14:39
