"rt","url","trial_type","trial_index","time_elapsed","internal_node_id","encryptedProlificId","studyId","sessionId","expIndex","round1_outcomes","round2_outcomes","round3_outcomes","round1_o","round2_o","round3_o","round1_reward","round2_reward","round3_reward","success","view_history","stimulus","key_press","responses","question_order","button_pressed","j","Stage","stage","contest","round","strength_a","strength_b","effort_a","effort_b","outcome_a","outcome_b","reward","r1_strength_a","r1_strength_b","r1_effort_a","r1_effort_b","r1_outcome_a","r1_outcome_b","r1_reward","probability_a","probability_b","r2_prob_a","r2_prob_b","r2_strength_a","r2_strength_b","r2_effort_a","r2_effort_b","r2_outcome_a","r2_outcome_b","r2_reward","r3_prob_a","r3_prob_b","r3_strength_a","r3_strength_b","r3_effort_a","r3_effort_b","r3_outcome_a","r3_outcome_b","r3_reward","attention_check","count","screen","pick_contest","pick_round","pick_side","trial_probability","trial_outcome","bonus","attention_sum","attention","datapipe_meta.attributes.date_modified"
"27142.300000000745","https://psyc-201.github.io/xiang2023/exp/index1.html?PROLIFIC_PID=REDACTED&STUDY_ID=691f8ca61c6b4dcbb0aeb5f4&SESSION_ID=691f943fa18009026f9ac24b","external-html",0,27363,"0.0-0.0","lghQ1M63pH92EQsn5Het1sB7HR6LnUYv6AAzu624Arn/3G+OFsdK8ORVDh3lgJl1GKUZkUsNd1jO2RAB2Io9Rxv5X8XTe641g5kbICVu3EoquPb5jZQTm4OpddCqWJhYhHaxIMoRHXF2IL28XEd1a+ppqjMJpLshDd6Jn+7mbfObDvnfTIqp1x1YVvEpRkKHlj84LvwGgS22Ys4xXUoTrOEnQHFkCbexeVLB70Z0hvui4ZFHLcG9F4dlzgxGwrB+4beJbvhhSsAwtwwG1OIq5lFV79S72OKwX/QNlgTNpY2imRlpZBLb8bFEwGRRmLKqn25xUBY/hHYPQxbUFJD1oQ==","691f8ca61c6b4dcbb0aeb5f4","691f943fa18009026f9ac24b","index1","<span style='color:red'>Fail,<span style='color:red'>Fail,<span style='color:green'>Lift,<span style='color:green'>Lift,<span style='color:red'>Fail,<span style='color:red'>Fail,<span style='color:red'>Fail,<span style='color:red'>Fail,<span style='color:green'>Lift,<span style='color:red'>Fail,<span style='color:red'>Fail,<span style='color:green'>Lift","<span style='color:red'>Fail,<span style='color:red'>Fail,<span style='color:green'>Lift,<span style='color:green'>Lift,<span style='color:green'>Lift,<span style='color:green'>Lift,<span style='color:green'>Lift,<span style='color:red'>Fail,<span style='color:green'>Lift,<span style='color:green'>Lift,<span style='color:red'>Fail,<span style='color:green'>Lift","<span style='color:red'>Fail,<span style='color:green'>Lift,<span style='color:green'>Lift,<span style='color:red'>Fail,<span style='color:green'>Lift,<span style='color:green'>Lift","0,0,1,1,0,0,0,0,1,0,0,1","0,0,1,1,1,1,1,0,1,1,0,1","0,1,1,0,1,1",10,20,20,"","","","","","",NA,NA,"",NA,NA,NA,NA,NA,NA,NA,NA,NA,NA,NA,NA,NA,NA,NA,NA,NA,NA,NA,NA,NA,NA,NA,NA,NA,NA,NA,NA,NA,NA,NA,NA,NA,NA,NA,NA,NA,NA,NA,"",NA,NA,NA,NA,NA,NA,NA,NA,NA
"","https://psyc-201.github.io/xiang2023/exp/index1.html?PROLIFIC_PID=REDACTED&STUDY_ID=691f8ca61c6b4dcbb0aeb5f4&SESSION_ID=691f943fa18009026f9ac24b","fullscreen",1,30682,"0.0-1.0","lghQ1M63pH92EQsn5Het1sB7HR6LnUYv6AAzu624Arn/3G+OFsdK8ORVDh3lgJl1GKUZkUsNd1jO2RAB2Io9Rxv5X8XTe641g5kbICVu3EoquPb5jZQTm4OpddCqWJhYhHaxIMoRHXF2IL28XEd1a+ppqjMJpLshDd6Jn+7mbfObDvnfTIqp1x1YVvEpRkKHlj84LvwGgS22Ys4xXUoTrOEnQHFkCbexeVLB70Z0hvui4ZFHLcG9F4dlzgxGwrB+4beJbvhhSsAwtwwG1OIq5lFV79S72OKwX/QNlgTNpY2imRlpZBLb8bFEwGRRmLKqn25xUBY/hHYPQxbUFJD1oQ==","691f8ca61c6b4dcbb0aeb5f4","691f943fa18009026f9ac24b","index1","<span style='color:red'>Fail,<span style='color:red'>Fail,<span style='color:green'>Lift,<span style='color:green'>Lift,<span style='color:red'>Fail,<span style='color:red'>Fail,<span style='color:red'>Fail,<span style='color:red'>Fail,<span style='color:green'>Lift,<span style='color:red'>Fail,<span style='color:red'>Fail,<span style='color:green'>Lift","<span style='color:red'>Fail,<span style='color:red'>Fail,<span style='color:green'>Lift,<span style='color:green'>Lift,<span style='color:green'>Lift,<span style='color:green'>Lift,<span style='color:green'>Lift,<span style='color:red'>Fail,<span style='color:green'>Lift,<span style='color:green'>Lift,<span style='color:red'>Fail,<span style='color:green'>Lift","<span style='color:red'>Fail,<span style='color:green'>Lift,<span style='color:green'>Lift,<span style='color:red'>Fail,<span style='color:green'>Lift,<span style='color:green'>Lift","0,0,1,1,0,0,0,0,1,0,0,1","0,0,1,1,1,1,1,0,1,1,0,1","0,1,1,0,1,1",10,20,20,"true","","","","","",NA,NA,"",NA,NA,NA,NA,NA,NA,NA,NA,NA,NA,NA,NA,NA,NA,NA,NA,NA,NA,NA,NA,NA,NA,NA,NA,NA,NA,NA,NA,NA,NA,NA,NA,NA,NA,NA,NA,NA,NA,NA,"",NA,NA,NA,NA,NA,NA,NA,NA,NA
"590285.9000000022","https://psyc-201.github.io/xiang2023/exp/index1.html?PROLIFIC_PID=REDACTED&STUDY_ID=691f8ca61c6b4dcbb0aeb5f4&SESSION_ID=691f943fa18009026f9ac24b","instructions",2,620970,"0.0-2.0","lghQ1M63pH92EQsn5Het1sB7HR6LnUYv6AAzu624Arn/3G+OFsdK8ORVDh3lgJl1GKUZkUsNd1jO2RAB2Io9Rxv5X8XTe641g5kbICVu3EoquPb5jZQTm4OpddCqWJhYhHaxIMoRHXF2IL28XEd1a+ppqjMJpLshDd6Jn+7mbfObDvnfTIqp1x1YVvEpRkKHlj84LvwGgS22Ys4xXUoTrOEnQHFkCbexeVLB70Z0hvui4ZFHLcG9F4dlzgxGwrB+4beJbvhhSsAwtwwG1OIq5lFV79S72OKwX/QNlgTNpY2imRlpZBLb8bFEwGRRmLKqn25xUBY/hHYPQxbUFJD1oQ==","691f8ca61c6b4dcbb0aeb5f4","691f943fa18009026f9ac24b","index1","<span style='color:red'>Fail,<span style='color:red'>Fail,<span style='color:green'>Lift,<span style='color:green'>Lift,<span style='color:red'>Fail,<span style='color:red'>Fail,<span style='color:red'>Fail,<span style='color:red'>Fail,<span style='color:green'>Lift,<span style='color:red'>Fail,<span style='color:red'>Fail,<span style='color:green'>Lift","<span style='color:red'>Fail,<span style='color:red'>Fail,<span style='color:green'>Lift,<span style='color:green'>Lift,<span style='color:green'>Lift,<span style='color:green'>Lift,<span style='color:green'>Lift,<span style='color:red'>Fail,<span style='color:green'>Lift,<span style='color:green'>Lift,<span style='color:red'>Fail,<span style='color:green'>Lift","<span style='color:red'>Fail,<span style='color:green'>Lift,<span style='color:green'>Lift,<span style='color:red'>Fail,<span style='color:green'>Lift,<span style='color:green'>Lift","0,0,1,1,0,0,0,0,1,0,0,1","0,0,1,1,1,1,1,0,1,1,0,1","0,1,1,0,1,1",10,20,20,"","[{""page_index"":0,""viewing_time"":435003},{""page_index"":1,""viewing_time"":50463.400000002235},{""page_index"":2,""viewing_time"":9678.5},{""page_index"":3,""viewing_time"":39637.5},{""page_index"":4,""viewing_time"":22325.699999999255},{""page_index"":5,""viewing_time"":29706.199999999255},{""page_index"":6,""viewing_time"":3470}]","","","","",NA,NA,"",NA,NA,NA,NA,NA,NA,NA,NA,NA,NA,NA,NA,NA,NA,NA,NA,NA,NA,NA,NA,NA,NA,NA,NA,NA,NA,NA,NA,NA,NA,NA,NA,NA,NA,NA,NA,NA,NA,NA,"",NA,NA,NA,NA,NA,NA,NA,NA,NA
"null","https://psyc-201.github.io/xiang2023/exp/index1.html?PROLIFIC_PID=REDACTED&STUDY_ID=691f8ca61c6b4dcbb0aeb5f4&SESSION_ID=691f943fa18009026f9ac24b","html-keyboard-response",3,621973,"0.0-3.0","lghQ1M63pH92EQsn5Het1sB7HR6LnUYv6AAzu624Arn/3G+OFsdK8ORVDh3lgJl1GKUZkUsNd1jO2RAB2Io9Rxv5X8XTe641g5kbICVu3EoquPb5jZQTm4OpddCqWJhYhHaxIMoRHXF2IL28XEd1a+ppqjMJpLshDd6Jn+7mbfObDvnfTIqp1x1YVvEpRkKHlj84LvwGgS22Ys4xXUoTrOEnQHFkCbexeVLB70Z0hvui4ZFHLcG9F4dlzgxGwrB+4beJbvhhSsAwtwwG1OIq5lFV79S72OKwX/QNlgTNpY2imRlpZBLb8bFEwGRRmLKqn25xUBY/hHYPQxbUFJD1oQ==","691f8ca61c6b4dcbb0aeb5f4","691f943fa18009026f9ac24b","index1","<span style='color:red'>Fail,<span style='color:red'>Fail,<span style='color:green'>Lift,<span style='color:green'>Lift,<span style='color:red'>Fail,<span style='color:red'>Fail,<span style='color:red'>Fail,<span style='color:red'>Fail,<span style='color:green'>Lift,<span style='color:red'>Fail,<span style='color:red'>Fail,<span style='color:green'>Lift","<span style='color:red'>Fail,<span style='color:red'>Fail,<span style='color:green'>Lift,<span style='color:green'>Lift,<span style='color:green'>Lift,<span style='color:green'>Lift,<span style='color:green'>Lift,<span style='color:red'>Fail,<span style='color:green'>Lift,<span style='color:green'>Lift,<span style='color:red'>Fail,<span style='color:green'>Lift","<span style='color:red'>Fail,<span style='color:green'>Lift,<span style='color:green'>Lift,<span style='color:red'>Fail,<span style='color:green'>Lift,<span style='color:green'>Lift","0,0,1,1,0,0,0,0,1,0,0,1","0,0,1,1,1,1,1,0,1,1,0,1","0,1,1,0,1,1",10,20,20,"",""," ","null","","",NA,NA,"",NA,NA,NA,NA,NA,NA,NA,NA,NA,NA,NA,NA,NA,NA,NA,NA,NA,NA,NA,NA,NA,NA,NA,NA,NA,NA,NA,NA,NA,NA,NA,NA,NA,NA,NA,NA,NA,NA,NA,"",NA,NA,NA,NA,NA,NA,NA,NA,NA
"51470.900000002235","https://psyc-201.github.io/xiang2023/exp/index1.html?PROLIFIC_PID=REDACTED&STUDY_ID=691f8ca61c6b4dcbb0aeb5f4&SESSION_ID=691f943fa18009026f9ac24b","survey-multi-choice",4,673448,"0.0-4.0","lghQ1M63pH92EQsn5Het1sB7HR6LnUYv6AAzu624Arn/3G+OFsdK8ORVDh3lgJl1GKUZkUsNd1jO2RAB2Io9Rxv5X8XTe641g5kbICVu3EoquPb5jZQTm4OpddCqWJhYhHaxIMoRHXF2IL28XEd1a+ppqjMJpLshDd6Jn+7mbfObDvnfTIqp1x1YVvEpRkKHlj84LvwGgS22Ys4xXUoTrOEnQHFkCbexeVLB70Z0hvui4ZFHLcG9F4dlzgxGwrB+4beJbvhhSsAwtwwG1OIq5lFV79S72OKwX/QNlgTNpY2imRlpZBLb8bFEwGRRmLKqn25xUBY/hHYPQxbUFJD1oQ==","691f8ca61c6b4dcbb0aeb5f4","691f943fa18009026f9ac24b","index1","<span style='color:red'>Fail,<span style='color:red'>Fail,<span style='color:green'>Lift,<span style='color:green'>Lift,<span style='color:red'>Fail,<span style='color:red'>Fail,<span style='color:red'>Fail,<span style='color:red'>Fail,<span style='color:green'>Lift,<span style='color:red'>Fail,<span style='color:red'>Fail,<span style='color:green'>Lift","<span style='color:red'>Fail,<span style='color:red'>Fail,<span style='color:green'>Lift,<span style='color:green'>Lift,<span style='color:green'>Lift,<span style='color:green'>Lift,<span style='color:green'>Lift,<span style='color:red'>Fail,<span style='color:green'>Lift,<span style='color:green'>Lift,<span style='color:red'>Fail,<span style='color:green'>Lift","<span style='color:red'>Fail,<span style='color:green'>Lift,<span style='color:green'>Lift,<span style='color:red'>Fail,<span style='color:green'>Lift,<span style='color:green'>Lift","0,0,1,1,0,0,0,0,1,0,0,1","0,0,1,1,1,1,1,0,1,1,0,1","0,1,1,0,1,1",10,20,20,"","","","","{""Q0"":""It consists of multiple contests, each contest with three rounds."",""Q1"":""When a new contest begins."",""Q2"":""The box weight always stays the same (equivalent to strength of 5)."",""Q3"":""They will split the $20, that is $10 for each."",""Q4"":""How close my guesses are to the actual outcome.""}","[0,1,2,3,4]",NA,NA,"",NA,NA,NA,NA,NA,NA,NA,NA,NA,NA,NA,NA,NA,NA,NA,NA,NA,NA,NA,NA,NA,NA,NA,NA,NA,NA,NA,NA,NA,NA,NA,NA,NA,NA,NA,NA,NA,NA,NA,"",NA,NA,NA,NA,NA,NA,NA,NA,NA
"2057.60000000149","https://psyc-201.github.io/xiang2023/exp/index1.html?PROLIFIC_PID=REDACTED&STUDY_ID=691f8ca61c6b4dcbb0aeb5f4&SESSION_ID=691f943fa18009026f9ac24b","html-button-response",5,675510,"0.0-5.0-1.0","lghQ1M63pH92EQsn5Het1sB7HR6LnUYv6AAzu624Arn/3G+OFsdK8ORVDh3lgJl1GKUZkUsNd1jO2RAB2Io9Rxv5X8XTe641g5kbICVu3EoquPb5jZQTm4OpddCqWJhYhHaxIMoRHXF2IL28XEd1a+ppqjMJpLshDd6Jn+7mbfObDvnfTIqp1x1YVvEpRkKHlj84LvwGgS22Ys4xXUoTrOEnQHFkCbexeVLB70Z0hvui4ZFHLcG9F4dlzgxGwrB+4beJbvhhSsAwtwwG1OIq5lFV79S72OKwX/QNlgTNpY2imRlpZBLb8bFEwGRRmLKqn25xUBY/hHYPQxbUFJD1oQ==","691f8ca61c6b4dcbb0aeb5f4","691f943fa18009026f9ac24b","index1","<span style='color:red'>Fail,<span style='color:red'>Fail,<span style='color:green'>Lift,<span style='color:green'>Lift,<span style='color:red'>Fail,<span style='color:red'>Fail,<span style='color:red'>Fail,<span style='color:red'>Fail,<span style='color:green'>Lift,<span style='color:red'>Fail,<span style='color:red'>Fail,<span style='color:green'>Lift","<span style='color:red'>Fail,<span style='color:red'>Fail,<span style='color:green'>Lift,<span style='color:green'>Lift,<span style='color:green'>Lift,<span style='color:green'>Lift,<span style='color:green'>Lift,<span style='color:red'>Fail,<span style='color:green'>Lift,<span style='color:green'>Lift,<span style='color:red'>Fail,<span style='color:green'>Lift","<span style='color:red'>Fail,<span style='color:green'>Lift,<span style='color:green'>Lift,<span style='color:red'>Fail,<span style='color:green'>Lift,<span style='color:green'>Lift","0,0,1,1,0,0,0,0,1,0,0,1","0,0,1,1,1,1,1,0,1,1,0,1","0,1,1,0,1,1",10,20,20,"","","<p> Oops! You did not pass the comprehension check. <b>Please note that you have only 1 attempt(s) left.</b> </p>","","","",1,NA,"",NA,NA,NA,NA,NA,NA,NA,NA,NA,NA,NA,NA,NA,NA,NA,NA,NA,NA,NA,NA,NA,NA,NA,NA,NA,NA,NA,NA,NA,NA,NA,NA,NA,NA,NA,NA,NA,NA,NA,"",NA,NA,NA,NA,NA,NA,NA,NA,NA
"114887","https://psyc-201.github.io/xiang2023/exp/index1.html?PROLIFIC_PID=REDACTED&STUDY_ID=691f8ca61c6b4dcbb0aeb5f4&SESSION_ID=691f943fa18009026f9ac24b","instructions",6,790399,"0.0-6.0-0.0","lghQ1M63pH92EQsn5Het1sB7HR6LnUYv6AAzu624Arn/3G+OFsdK8ORVDh3lgJl1GKUZkUsNd1jO2RAB2Io9Rxv5X8XTe641g5kbICVu3EoquPb5jZQTm4OpddCqWJhYhHaxIMoRHXF2IL28XEd1a+ppqjMJpLshDd6Jn+7mbfObDvnfTIqp1x1YVvEpRkKHlj84LvwGgS22Ys4xXUoTrOEnQHFkCbexeVLB70Z0hvui4ZFHLcG9F4dlzgxGwrB+4beJbvhhSsAwtwwG1OIq5lFV79S72OKwX/QNlgTNpY2imRlpZBLb8bFEwGRRmLKqn25xUBY/hHYPQxbUFJD1oQ==","691f8ca61c6b4dcbb0aeb5f4","691f943fa18009026f9ac24b","index1","<span style='color:red'>Fail,<span style='color:red'>Fail,<span style='color:green'>Lift,<span style='color:green'>Lift,<span style='color:red'>Fail,<span style='color:red'>Fail,<span style='color:red'>Fail,<span style='color:red'>Fail,<span style='color:green'>Lift,<span style='color:red'>Fail,<span style='color:red'>Fail,<span style='color:green'>Lift","<span style='color:red'>Fail,<span style='color:red'>Fail,<span style='color:green'>Lift,<span style='color:green'>Lift,<span style='color:green'>Lift,<span style='color:green'>Lift,<span style='color:green'>Lift,<span style='color:red'>Fail,<span style='color:green'>Lift,<span style='color:green'>Lift,<span style='color:red'>Fail,<span style='color:green'>Lift","<span style='color:red'>Fail,<span style='color:green'>Lift,<span style='color:green'>Lift,<span style='color:red'>Fail,<span style='color:green'>Lift,<span style='color:green'>Lift","0,0,1,1,0,0,0,0,1,0,0,1","0,0,1,1,1,1,1,0,1,1,0,1","0,1,1,0,1,1",10,20,20,"","[{""page_index"":0,""viewing_time"":42288.39999999851},{""page_index"":1,""viewing_time"":2125.900000002235},{""page_index"":0,""viewing_time"":4075.2999999970198},{""page_index"":1,""viewing_time"":18214.800000000745},{""page_index"":2,""viewing_time"":20396.5},{""page_index"":3,""viewing_time"":10262.900000002235},{""page_index"":4,""viewing_time"":3307.199999999255},{""page_index"":5,""viewing_time"":12275.39999999851},{""page_index"":6,""viewing_time"":1939.800000000745}]","","","","",NA,NA,"",NA,NA,NA,NA,NA,NA,NA,NA,NA,NA,NA,NA,NA,NA,NA,NA,NA,NA,NA,NA,NA,NA,NA,NA,NA,NA,NA,NA,NA,NA,NA,NA,NA,NA,NA,NA,NA,NA,NA,"",NA,NA,NA,NA,NA,NA,NA,NA,NA
"null","https://psyc-201.github.io/xiang2023/exp/index1.html?PROLIFIC_PID=REDACTED&STUDY_ID=691f8ca61c6b4dcbb0aeb5f4&SESSION_ID=691f943fa18009026f9ac24b","html-keyboard-response",7,791401,"0.0-6.0-1.0","lghQ1M63pH92EQsn5Het1sB7HR6LnUYv6AAzu624Arn/3G+OFsdK8ORVDh3lgJl1GKUZkUsNd1jO2RAB2Io9Rxv5X8XTe641g5kbICVu3EoquPb5jZQTm4OpddCqWJhYhHaxIMoRHXF2IL28XEd1a+ppqjMJpLshDd6Jn+7mbfObDvnfTIqp1x1YVvEpRkKHlj84LvwGgS22Ys4xXUoTrOEnQHFkCbexeVLB70Z0hvui4ZFHLcG9F4dlzgxGwrB+4beJbvhhSsAwtwwG1OIq5lFV79S72OKwX/QNlgTNpY2imRlpZBLb8bFEwGRRmLKqn25xUBY/hHYPQxbUFJD1oQ==","691f8ca61c6b4dcbb0aeb5f4","691f943fa18009026f9ac24b","index1","<span style='color:red'>Fail,<span style='color:red'>Fail,<span style='color:green'>Lift,<span style='color:green'>Lift,<span style='color:red'>Fail,<span style='color:red'>Fail,<span style='color:red'>Fail,<span style='color:red'>Fail,<span style='color:green'>Lift,<span style='color:red'>Fail,<span style='color:red'>Fail,<span style='color:green'>Lift","<span style='color:red'>Fail,<span style='color:red'>Fail,<span style='color:green'>Lift,<span style='color:green'>Lift,<span style='color:green'>Lift,<span style='color:green'>Lift,<span style='color:green'>Lift,<span style='color:red'>Fail,<span style='color:green'>Lift,<span style='color:green'>Lift,<span style='color:red'>Fail,<span style='color:green'>Lift","<span style='color:red'>Fail,<span style='color:green'>Lift,<span style='color:green'>Lift,<span style='color:red'>Fail,<span style='color:green'>Lift,<span style='color:green'>Lift","0,0,1,1,0,0,0,0,1,0,0,1","0,0,1,1,1,1,1,0,1,1,0,1","0,1,1,0,1,1",10,20,20,"",""," ","null","","",NA,NA,"",NA,NA,NA,NA,NA,NA,NA,NA,NA,NA,NA,NA,NA,NA,NA,NA,NA,NA,NA,NA,NA,NA,NA,NA,NA,NA,NA,NA,NA,NA,NA,NA,NA,NA,NA,NA,NA,NA,NA,"",NA,NA,NA,NA,NA,NA,NA,NA,NA
"20507.900000002235","https://psyc-201.github.io/xiang2023/exp/index1.html?PROLIFIC_PID=REDACTED&STUDY_ID=691f8ca61c6b4dcbb0aeb5f4&SESSION_ID=691f943fa18009026f9ac24b","survey-multi-choice",8,811913,"0.0-7.0-0.0","lghQ1M63pH92EQsn5Het1sB7HR6LnUYv6AAzu624Arn/3G+OFsdK8ORVDh3lgJl1GKUZkUsNd1jO2RAB2Io9Rxv5X8XTe641g5kbICVu3EoquPb5jZQTm4OpddCqWJhYhHaxIMoRHXF2IL28XEd1a+ppqjMJpLshDd6Jn+7mbfObDvnfTIqp1x1YVvEpRkKHlj84LvwGgS22Ys4xXUoTrOEnQHFkCbexeVLB70Z0hvui4ZFHLcG9F4dlzgxGwrB+4beJbvhhSsAwtwwG1OIq5lFV79S72OKwX/QNlgTNpY2imRlpZBLb8bFEwGRRmLKqn25xUBY/hHYPQxbUFJD1oQ==","691f8ca61c6b4dcbb0aeb5f4","691f943fa18009026f9ac24b","index1","<span style='color:red'>Fail,<span style='color:red'>Fail,<span style='color:green'>Lift,<span style='color:green'>Lift,<span style='color:red'>Fail,<span style='color:red'>Fail,<span style='color:red'>Fail,<span style='color:red'>Fail,<span style='color:green'>Lift,<span style='color:red'>Fail,<span style='color:red'>Fail,<span style='color:green'>Lift","<span style='color:red'>Fail,<span style='color:red'>Fail,<span style='color:green'>Lift,<span style='color:green'>Lift,<span style='color:green'>Lift,<span style='color:green'>Lift,<span style='color:green'>Lift,<span style='color:red'>Fail,<span style='color:green'>Lift,<span style='color:green'>Lift,<span style='color:red'>Fail,<span style='color:green'>Lift","<span style='color:red'>Fail,<span style='color:green'>Lift,<span style='color:green'>Lift,<span style='color:red'>Fail,<span style='color:green'>Lift,<span style='color:green'>Lift","0,0,1,1,0,0,0,0,1,0,0,1","0,0,1,1,1,1,1,0,1,1,0,1","0,1,1,0,1,1",10,20,20,"","","","","{""Q0"":""It consists of multiple contests, each contest with three rounds."",""Q1"":""When a new contest begins."",""Q2"":""The box weight always stays the same (equivalent to strength of 5)."",""Q3"":""Each will get $20."",""Q4"":""How close my guesses are to the actual outcome.""}","[0,1,2,3,4]",NA,NA,"",NA,NA,NA,NA,NA,NA,NA,NA,NA,NA,NA,NA,NA,NA,NA,NA,NA,NA,NA,NA,NA,NA,NA,NA,NA,NA,NA,NA,NA,NA,NA,NA,NA,NA,NA,NA,NA,NA,NA,"",NA,NA,NA,NA,NA,NA,NA,NA,NA
"9885.699999999255","https://psyc-201.github.io/xiang2023/exp/index1.html?PROLIFIC_PID=REDACTED&STUDY_ID=691f8ca61c6b4dcbb0aeb5f4&SESSION_ID=691f943fa18009026f9ac24b","instructions",9,821809,"0.0-305.0","lghQ1M63pH92EQsn5Het1sB7HR6LnUYv6AAzu624Arn/3G+OFsdK8ORVDh3lgJl1GKUZkUsNd1jO2RAB2Io9Rxv5X8XTe641g5kbICVu3EoquPb5jZQTm4OpddCqWJhYhHaxIMoRHXF2IL28XEd1a+ppqjMJpLshDd6Jn+7mbfObDvnfTIqp1x1YVvEpRkKHlj84LvwGgS22Ys4xXUoTrOEnQHFkCbexeVLB70Z0hvui4ZFHLcG9F4dlzgxGwrB+4beJbvhhSsAwtwwG1OIq5lFV79S72OKwX/QNlgTNpY2imRlpZBLb8bFEwGRRmLKqn25xUBY/hHYPQxbUFJD1oQ==","691f8ca61c6b4dcbb0aeb5f4","691f943fa18009026f9ac24b","index1","<span style='color:red'>Fail,<span style='color:red'>Fail,<span style='color:green'>Lift,<span style='color:green'>Lift,<span style='color:red'>Fail,<span style='color:red'>Fail,<span style='color:red'>Fail,<span style='color:red'>Fail,<span style='color:green'>Lift,<span style='color:red'>Fail,<span style='color:red'>Fail,<span style='color:green'>Lift","<span style='color:red'>Fail,<span style='color:red'>Fail,<span style='color:green'>Lift,<span style='color:green'>Lift,<span style='color:green'>Lift,<span style='color:green'>Lift,<span style='color:green'>Lift,<span style='color:red'>Fail,<span style='color:green'>Lift,<span style='color:green'>Lift,<span style='color:red'>Fail,<span style='color:green'>Lift","<span style='color:red'>Fail,<span style='color:green'>Lift,<span style='color:green'>Lift,<span style='color:red'>Fail,<span style='color:green'>Lift,<span style='color:green'>Lift","0,0,1,1,0,0,0,0,1,0,0,1","0,0,1,1,1,1,1,0,1,1,0,1","0,1,1,0,1,1",10,20,20,"","[{""page_index"":0,""viewing_time"":6170.5},{""page_index"":1,""viewing_time"":3714.800000000745}]","","","","",NA,NA,"",NA,NA,NA,NA,NA,NA,NA,NA,NA,NA,NA,NA,NA,NA,NA,NA,NA,NA,NA,NA,NA,NA,NA,NA,NA,NA,NA,NA,NA,NA,NA,NA,NA,NA,NA,NA,NA,NA,NA,"",NA,NA,NA,NA,NA,NA,NA,NA,NA
"null","https://psyc-201.github.io/xiang2023/exp/index1.html?PROLIFIC_PID=REDACTED&STUDY_ID=691f8ca61c6b4dcbb0aeb5f4&SESSION_ID=691f943fa18009026f9ac24b","html-keyboard-response",10,822811,"0.0-306.0","lghQ1M63pH92EQsn5Het1sB7HR6LnUYv6AAzu624Arn/3G+OFsdK8ORVDh3lgJl1GKUZkUsNd1jO2RAB2Io9Rxv5X8XTe641g5kbICVu3EoquPb5jZQTm4OpddCqWJhYhHaxIMoRHXF2IL28XEd1a+ppqjMJpLshDd6Jn+7mbfObDvnfTIqp1x1YVvEpRkKHlj84LvwGgS22Ys4xXUoTrOEnQHFkCbexeVLB70Z0hvui4ZFHLcG9F4dlzgxGwrB+4beJbvhhSsAwtwwG1OIq5lFV79S72OKwX/QNlgTNpY2imRlpZBLb8bFEwGRRmLKqn25xUBY/hHYPQxbUFJD1oQ==","691f8ca61c6b4dcbb0aeb5f4","691f943fa18009026f9ac24b","index1","<span style='color:red'>Fail,<span style='color:red'>Fail,<span style='color:green'>Lift,<span style='color:green'>Lift,<span style='color:red'>Fail,<span style='color:red'>Fail,<span style='color:red'>Fail,<span style='color:red'>Fail,<span style='color:green'>Lift,<span style='color:red'>Fail,<span style='color:red'>Fail,<span style='color:green'>Lift","<span style='color:red'>Fail,<span style='color:red'>Fail,<span style='color:green'>Lift,<span style='color:green'>Lift,<span style='color:green'>Lift,<span style='color:green'>Lift,<span style='color:green'>Lift,<span style='color:red'>Fail,<span style='color:green'>Lift,<span style='color:green'>Lift,<span style='color:red'>Fail,<span style='color:green'>Lift","<span style='color:red'>Fail,<span style='color:green'>Lift,<span style='color:green'>Lift,<span style='color:red'>Fail,<span style='color:green'>Lift,<span style='color:green'>Lift","0,0,1,1,0,0,0,0,1,0,0,1","0,0,1,1,1,1,1,0,1,1,0,1","0,1,1,0,1,1",10,20,20,"",""," ","null","","",NA,1,"",NA,NA,NA,NA,NA,NA,NA,NA,NA,NA,NA,NA,NA,NA,NA,NA,NA,NA,NA,NA,NA,NA,NA,NA,NA,NA,NA,NA,NA,NA,NA,NA,NA,NA,NA,NA,NA,NA,NA,"",NA,NA,NA,NA,NA,NA,NA,NA,NA
"null","https://psyc-201.github.io/xiang2023/exp/index1.html?PROLIFIC_PID=REDACTED&STUDY_ID=691f8ca61c6b4dcbb0aeb5f4&SESSION_ID=691f943fa18009026f9ac24b","html-keyboard-response",11,825813,"0.0-307.0","lghQ1M63pH92EQsn5Het1sB7HR6LnUYv6AAzu624Arn/3G+OFsdK8ORVDh3lgJl1GKUZkUsNd1jO2RAB2Io9Rxv5X8XTe641g5kbICVu3EoquPb5jZQTm4OpddCqWJhYhHaxIMoRHXF2IL28XEd1a+ppqjMJpLshDd6Jn+7mbfObDvnfTIqp1x1YVvEpRkKHlj84LvwGgS22Ys4xXUoTrOEnQHFkCbexeVLB70Z0hvui4ZFHLcG9F4dlzgxGwrB+4beJbvhhSsAwtwwG1OIq5lFV79S72OKwX/QNlgTNpY2imRlpZBLb8bFEwGRRmLKqn25xUBY/hHYPQxbUFJD1oQ==","691f8ca61c6b4dcbb0aeb5f4","691f943fa18009026f9ac24b","index1","<span style='color:red'>Fail,<span style='color:red'>Fail,<span style='color:green'>Lift,<span style='color:green'>Lift,<span style='color:red'>Fail,<span style='color:red'>Fail,<span style='color:red'>Fail,<span style='color:red'>Fail,<span style='color:green'>Lift,<span style='color:red'>Fail,<span style='color:red'>Fail,<span style='color:green'>Lift","<span style='color:red'>Fail,<span style='color:red'>Fail,<span style='color:green'>Lift,<span style='color:green'>Lift,<span style='color:green'>Lift,<span style='color:green'>Lift,<span style='color:green'>Lift,<span style='color:red'>Fail,<span style='color:green'>Lift,<span style='color:green'>Lift,<span style='color:red'>Fail,<span style='color:green'>Lift","<span style='color:red'>Fail,<span style='color:green'>Lift,<span style='color:green'>Lift,<span style='color:red'>Fail,<span style='color:green'>Lift,<span style='color:green'>Lift","0,0,1,1,0,0,0,0,1,0,0,1","0,0,1,1,1,1,1,0,1,1,0,1","0,1,1,0,1,1",10,20,20,"","","<p style='font-size:30px'><b> New Contest! </b></p>","null","","",NA,1,"",NA,NA,NA,NA,NA,NA,NA,NA,NA,NA,NA,NA,NA,NA,NA,NA,NA,NA,NA,NA,NA,NA,NA,NA,NA,NA,NA,NA,NA,NA,NA,NA,NA,NA,NA,NA,NA,NA,NA,"",NA,NA,NA,NA,NA,NA,NA,NA,NA
"48320.199999999255","https://psyc-201.github.io/xiang2023/exp/index1.html?PROLIFIC_PID=REDACTED&STUDY_ID=691f8ca61c6b4dcbb0aeb5f4&SESSION_ID=691f943fa18009026f9ac24b","survey-html-form",12,874138,"0.0-308.0","lghQ1M63pH92EQsn5Het1sB7HR6LnUYv6AAzu624Arn/3G+OFsdK8ORVDh3lgJl1GKUZkUsNd1jO2RAB2Io9Rxv5X8XTe641g5kbICVu3EoquPb5jZQTm4OpddCqWJhYhHaxIMoRHXF2IL28XEd1a+ppqjMJpLshDd6Jn+7mbfObDvnfTIqp1x1YVvEpRkKHlj84LvwGgS22Ys4xXUoTrOEnQHFkCbexeVLB70Z0hvui4ZFHLcG9F4dlzgxGwrB+4beJbvhhSsAwtwwG1OIq5lFV79S72OKwX/QNlgTNpY2imRlpZBLb8bFEwGRRmLKqn25xUBY/hHYPQxbUFJD1oQ==","691f8ca61c6b4dcbb0aeb5f4","691f943fa18009026f9ac24b","index1","<span style='color:red'>Fail,<span style='color:red'>Fail,<span style='color:green'>Lift,<span style='color:green'>Lift,<span style='color:red'>Fail,<span style='color:red'>Fail,<span style='color:red'>Fail,<span style='color:red'>Fail,<span style='color:green'>Lift,<span style='color:red'>Fail,<span style='color:red'>Fail,<span style='color:green'>Lift","<span style='color:red'>Fail,<span style='color:red'>Fail,<span style='color:green'>Lift,<span style='color:green'>Lift,<span style='color:green'>Lift,<span style='color:green'>Lift,<span style='color:green'>Lift,<span style='color:red'>Fail,<span style='color:green'>Lift,<span style='color:green'>Lift,<span style='color:red'>Fail,<span style='color:green'>Lift","<span style='color:red'>Fail,<span style='color:green'>Lift,<span style='color:green'>Lift,<span style='color:red'>Fail,<span style='color:green'>Lift,<span style='color:green'>Lift","0,0,1,1,0,0,0,0,1,0,0,1","0,0,1,1,1,1,1,0,1,1,0,1","0,1,1,0,1,1",10,20,20,"","","","","{""box1"":""7"",""box2"":""3"",""box3"":""80""}","",NA,1,"round1_outcome",1,1,1,7,3,80,NA,1,0,10,7,3,80,NA,1,0,10,NA,NA,NA,NA,NA,NA,NA,NA,NA,NA,NA,NA,NA,NA,NA,NA,NA,NA,NA,NA,NA,NA,"",NA,NA,NA,NA,NA,NA,NA,NA,NA
"18160.699999999255","https://psyc-201.github.io/xiang2023/exp/index1.html?PROLIFIC_PID=REDACTED&STUDY_ID=691f8ca61c6b4dcbb0aeb5f4&SESSION_ID=691f943fa18009026f9ac24b","survey-html-form",13,892303,"0.0-309.0","lghQ1M63pH92EQsn5Het1sB7HR6LnUYv6AAzu624Arn/3G+OFsdK8ORVDh3lgJl1GKUZkUsNd1jO2RAB2Io9Rxv5X8XTe641g5kbICVu3EoquPb5jZQTm4OpddCqWJhYhHaxIMoRHXF2IL28XEd1a+ppqjMJpLshDd6Jn+7mbfObDvnfTIqp1x1YVvEpRkKHlj84LvwGgS22Ys4xXUoTrOEnQHFkCbexeVLB70Z0hvui4ZFHLcG9F4dlzgxGwrB+4beJbvhhSsAwtwwG1OIq5lFV79S72OKwX/QNlgTNpY2imRlpZBLb8bFEwGRRmLKqn25xUBY/hHYPQxbUFJD1oQ==","691f8ca61c6b4dcbb0aeb5f4","691f943fa18009026f9ac24b","index1","<span style='color:red'>Fail,<span style='color:red'>Fail,<span style='color:green'>Lift,<span style='color:green'>Lift,<span style='color:red'>Fail,<span style='color:red'>Fail,<span style='color:red'>Fail,<span style='color:red'>Fail,<span style='color:green'>Lift,<span style='color:red'>Fail,<span style='color:red'>Fail,<span style='color:green'>Lift","<span style='color:red'>Fail,<span style='color:red'>Fail,<span style='color:green'>Lift,<span style='color:green'>Lift,<span style='color:green'>Lift,<span style='color:green'>Lift,<span style='color:green'>Lift,<span style='color:red'>Fail,<span style='color:green'>Lift,<span style='color:green'>Lift,<span style='color:red'>Fail,<span style='color:green'>Lift","<span style='color:red'>Fail,<span style='color:green'>Lift,<span style='color:green'>Lift,<span style='color:red'>Fail,<span style='color:green'>Lift,<span style='color:green'>Lift","0,0,1,1,0,0,0,0,1,0,0,1","0,0,1,1,1,1,1,0,1,1,0,1","0,1,1,0,1,1",10,20,20,"","","","","{""box1"":""90"",""box2"":""50""}","",NA,1,"round2_ready",2,1,2,NA,NA,NA,NA,NA,NA,NA,NA,NA,NA,NA,NA,NA,NA,90,50,90,50,NA,NA,NA,NA,NA,NA,NA,NA,NA,NA,NA,NA,NA,NA,NA,NA,NA,NA,"",NA,NA,NA,NA,NA,NA,NA,NA,NA
"55332.800000000745","https://psyc-201.github.io/xiang2023/exp/index1.html?PROLIFIC_PID=REDACTED&STUDY_ID=691f8ca61c6b4dcbb0aeb5f4&SESSION_ID=691f943fa18009026f9ac24b","survey-html-form",14,947641,"0.0-310.0","lghQ1M63pH92EQsn5Het1sB7HR6LnUYv6AAzu624Arn/3G+OFsdK8ORVDh3lgJl1GKUZkUsNd1jO2RAB2Io9Rxv5X8XTe641g5kbICVu3EoquPb5jZQTm4OpddCqWJhYhHaxIMoRHXF2IL28XEd1a+ppqjMJpLshDd6Jn+7mbfObDvnfTIqp1x1YVvEpRkKHlj84LvwGgS22Ys4xXUoTrOEnQHFkCbexeVLB70Z0hvui4ZFHLcG9F4dlzgxGwrB+4beJbvhhSsAwtwwG1OIq5lFV79S72OKwX/QNlgTNpY2imRlpZBLb8bFEwGRRmLKqn25xUBY/hHYPQxbUFJD1oQ==","691f8ca61c6b4dcbb0aeb5f4","691f943fa18009026f9ac24b","index1","<span style='color:red'>Fail,<span style='color:red'>Fail,<span style='color:green'>Lift,<span style='color:green'>Lift,<span style='color:red'>Fail,<span style='color:red'>Fail,<span style='color:red'>Fail,<span style='color:red'>Fail,<span style='color:green'>Lift,<span style='color:red'>Fail,<span style='color:red'>Fail,<span style='color:green'>Lift","<span style='color:red'>Fail,<span style='color:red'>Fail,<span style='color:green'>Lift,<span style='color:green'>Lift,<span style='color:green'>Lift,<span style='color:green'>Lift,<span style='color:green'>Lift,<span style='color:red'>Fail,<span style='color:green'>Lift,<span style='color:green'>Lift,<span style='color:red'>Fail,<span style='color:green'>Lift","<span style='color:red'>Fail,<span style='color:green'>Lift,<span style='color:green'>Lift,<span style='color:red'>Fail,<span style='color:green'>Lift,<span style='color:green'>Lift","0,0,1,1,0,0,0,0,1,0,0,1","0,0,1,1,1,1,1,0,1,1,0,1","0,1,1,0,1,1",10,20,20,"","","","","{""box1"":""7"",""box2"":""5"",""box3"":""80"",""box4"":""100""}","",NA,1,"round2_outcome",3,1,2,7,5,80,100,1,1,20,NA,NA,NA,NA,NA,NA,NA,NA,NA,NA,NA,7,5,80,100,1,1,20,NA,NA,NA,NA,NA,NA,NA,NA,NA,NA,NA,"",NA,NA,NA,NA,NA,NA,NA,NA,NA
"13076.199999999255","https://psyc-201.github.io/xiang2023/exp/index1.html?PROLIFIC_PID=REDACTED&STUDY_ID=691f8ca61c6b4dcbb0aeb5f4&SESSION_ID=691f943fa18009026f9ac24b","survey-html-form",15,960721,"0.0-311.0","lghQ1M63pH92EQsn5Het1sB7HR6LnUYv6AAzu624Arn/3G+OFsdK8ORVDh3lgJl1GKUZkUsNd1jO2RAB2Io9Rxv5X8XTe641g5kbICVu3EoquPb5jZQTm4OpddCqWJhYhHaxIMoRHXF2IL28XEd1a+ppqjMJpLshDd6Jn+7mbfObDvnfTIqp1x1YVvEpRkKHlj84LvwGgS22Ys4xXUoTrOEnQHFkCbexeVLB70Z0hvui4ZFHLcG9F4dlzgxGwrB+4beJbvhhSsAwtwwG1OIq5lFV79S72OKwX/QNlgTNpY2imRlpZBLb8bFEwGRRmLKqn25xUBY/hHYPQxbUFJD1oQ==","691f8ca61c6b4dcbb0aeb5f4","691f943fa18009026f9ac24b","index1","<span style='color:red'>Fail,<span style='color:red'>Fail,<span style='color:green'>Lift,<span style='color:green'>Lift,<span style='color:red'>Fail,<span style='color:red'>Fail,<span style='color:red'>Fail,<span style='color:red'>Fail,<span style='color:green'>Lift,<span style='color:red'>Fail,<span style='color:red'>Fail,<span style='color:green'>Lift","<span style='color:red'>Fail,<span style='color:red'>Fail,<span style='color:green'>Lift,<span style='color:green'>Lift,<span style='color:green'>Lift,<span style='color:green'>Lift,<span style='color:green'>Lift,<span style='color:red'>Fail,<span style='color:green'>Lift,<span style='color:green'>Lift,<span style='color:red'>Fail,<span style='color:green'>Lift","<span style='color:red'>Fail,<span style='color:green'>Lift,<span style='color:green'>Lift,<span style='color:red'>Fail,<span style='color:green'>Lift,<span style='color:green'>Lift","0,0,1,1,0,0,0,0,1,0,0,1","0,0,1,1,1,1,1,0,1,1,0,1","0,1,1,0,1,1",10,20,20,"","","","","{""box1"":""85""}","",NA,1,"round3_ready",4,1,3,NA,NA,NA,NA,NA,NA,NA,NA,NA,NA,NA,NA,NA,NA,85,85,NA,NA,NA,NA,NA,NA,NA,NA,NA,85,85,NA,NA,NA,NA,NA,NA,NA,NA,NA,"",NA,NA,NA,NA,NA,NA,NA,NA,NA
"22143.699999999255","https://psyc-201.github.io/xiang2023/exp/index1.html?PROLIFIC_PID=REDACTED&STUDY_ID=691f8ca61c6b4dcbb0aeb5f4&SESSION_ID=691f943fa18009026f9ac24b","survey-html-form",16,982873,"0.0-312.0-0.0","lghQ1M63pH92EQsn5Het1sB7HR6LnUYv6AAzu624Arn/3G+OFsdK8ORVDh3lgJl1GKUZkUsNd1jO2RAB2Io9Rxv5X8XTe641g5kbICVu3EoquPb5jZQTm4OpddCqWJhYhHaxIMoRHXF2IL28XEd1a+ppqjMJpLshDd6Jn+7mbfObDvnfTIqp1x1YVvEpRkKHlj84LvwGgS22Ys4xXUoTrOEnQHFkCbexeVLB70Z0hvui4ZFHLcG9F4dlzgxGwrB+4beJbvhhSsAwtwwG1OIq5lFV79S72OKwX/QNlgTNpY2imRlpZBLb8bFEwGRRmLKqn25xUBY/hHYPQxbUFJD1oQ==","691f8ca61c6b4dcbb0aeb5f4","691f943fa18009026f9ac24b","index1","<span style='color:red'>Fail,<span style='color:red'>Fail,<span style='color:green'>Lift,<span style='color:green'>Lift,<span style='color:red'>Fail,<span style='color:red'>Fail,<span style='color:red'>Fail,<span style='color:red'>Fail,<span style='color:green'>Lift,<span style='color:red'>Fail,<span style='color:red'>Fail,<span style='color:green'>Lift","<span style='color:red'>Fail,<span style='color:red'>Fail,<span style='color:green'>Lift,<span style='color:green'>Lift,<span style='color:green'>Lift,<span style='color:green'>Lift,<span style='color:green'>Lift,<span style='color:red'>Fail,<span style='color:green'>Lift,<span style='color:green'>Lift,<span style='color:red'>Fail,<span style='color:green'>Lift","<span style='color:red'>Fail,<span style='color:green'>Lift,<span style='color:green'>Lift,<span style='color:red'>Fail,<span style='color:green'>Lift,<span style='color:green'>Lift","0,0,1,1,0,0,0,0,1,0,0,1","0,0,1,1,1,1,1,0,1,1,0,1","0,1,1,0,1,1",10,20,20,"","","","","{""box1"":""8"",""box2"":""5"",""box3"":""85"",""box4"":""99""}","",NA,2,"round3_lift",5,1,3,8,5,85,99,1,1,20,NA,NA,NA,NA,NA,NA,NA,NA,NA,NA,NA,NA,NA,NA,NA,NA,NA,NA,NA,NA,8,5,85,99,1,1,20,NA,NA,"",NA,NA,NA,NA,NA,NA,NA,NA,NA
"null","https://psyc-201.github.io/xiang2023/exp/index1.html?PROLIFIC_PID=REDACTED&STUDY_ID=691f8ca61c6b4dcbb0aeb5f4&SESSION_ID=691f943fa18009026f9ac24b","html-keyboard-response",17,985877,"0.0-316.0","lghQ1M63pH92EQsn5Het1sB7HR6LnUYv6AAzu624Arn/3G+OFsdK8ORVDh3lgJl1GKUZkUsNd1jO2RAB2Io9Rxv5X8XTe641g5kbICVu3EoquPb5jZQTm4OpddCqWJhYhHaxIMoRHXF2IL28XEd1a+ppqjMJpLshDd6Jn+7mbfObDvnfTIqp1x1YVvEpRkKHlj84LvwGgS22Ys4xXUoTrOEnQHFkCbexeVLB70Z0hvui4ZFHLcG9F4dlzgxGwrB+4beJbvhhSsAwtwwG1OIq5lFV79S72OKwX/QNlgTNpY2imRlpZBLb8bFEwGRRmLKqn25xUBY/hHYPQxbUFJD1oQ==","691f8ca61c6b4dcbb0aeb5f4","691f943fa18009026f9ac24b","index1","<span style='color:red'>Fail,<span style='color:red'>Fail,<span style='color:green'>Lift,<span style='color:green'>Lift,<span style='color:red'>Fail,<span style='color:red'>Fail,<span style='color:red'>Fail,<span style='color:red'>Fail,<span style='color:green'>Lift,<span style='color:red'>Fail,<span style='color:red'>Fail,<span style='color:green'>Lift","<span style='color:red'>Fail,<span style='color:red'>Fail,<span style='color:green'>Lift,<span style='color:green'>Lift,<span style='color:green'>Lift,<span style='color:green'>Lift,<span style='color:green'>Lift,<span style='color:red'>Fail,<span style='color:green'>Lift,<span style='color:green'>Lift,<span style='color:red'>Fail,<span style='color:green'>Lift","<span style='color:red'>Fail,<span style='color:green'>Lift,<span style='color:green'>Lift,<span style='color:red'>Fail,<span style='color:green'>Lift,<span style='color:green'>Lift","0,0,1,1,0,0,0,0,1,0,0,1","0,0,1,1,1,1,1,0,1,1,0,1","0,1,1,0,1,1",10,20,20,"","","<p style='font-size:30px'><b> New Contest! </b></p>","null","","",NA,2,"",NA,NA,NA,NA,NA,NA,NA,NA,NA,NA,NA,NA,NA,NA,NA,NA,NA,NA,NA,NA,NA,NA,NA,NA,NA,NA,NA,NA,NA,NA,NA,NA,NA,NA,NA,NA,NA,NA,NA,"",NA,NA,NA,NA,NA,NA,NA,NA,NA
"10004.699999999255","https://psyc-201.github.io/xiang2023/exp/index1.html?PROLIFIC_PID=REDACTED&STUDY_ID=691f8ca61c6b4dcbb0aeb5f4&SESSION_ID=691f943fa18009026f9ac24b","survey-html-form",18,995886,"0.0-317.0","lghQ1M63pH92EQsn5Het1sB7HR6LnUYv6AAzu624Arn/3G+OFsdK8ORVDh3lgJl1GKUZkUsNd1jO2RAB2Io9Rxv5X8XTe641g5kbICVu3EoquPb5jZQTm4OpddCqWJhYhHaxIMoRHXF2IL28XEd1a+ppqjMJpLshDd6Jn+7mbfObDvnfTIqp1x1YVvEpRkKHlj84LvwGgS22Ys4xXUoTrOEnQHFkCbexeVLB70Z0hvui4ZFHLcG9F4dlzgxGwrB+4beJbvhhSsAwtwwG1OIq5lFV79S72OKwX/QNlgTNpY2imRlpZBLb8bFEwGRRmLKqn25xUBY/hHYPQxbUFJD1oQ==","691f8ca61c6b4dcbb0aeb5f4","691f943fa18009026f9ac24b","index1","<span style='color:red'>Fail,<span style='color:red'>Fail,<span style='color:green'>Lift,<span style='color:green'>Lift,<span style='color:red'>Fail,<span style='color:red'>Fail,<span style='color:red'>Fail,<span style='color:red'>Fail,<span style='color:green'>Lift,<span style='color:red'>Fail,<span style='color:red'>Fail,<span style='color:green'>Lift","<span style='color:red'>Fail,<span style='color:red'>Fail,<span style='color:green'>Lift,<span style='color:green'>Lift,<span style='color:green'>Lift,<span style='color:green'>Lift,<span style='color:green'>Lift,<span style='color:red'>Fail,<span style='color:green'>Lift,<span style='color:green'>Lift,<span style='color:red'>Fail,<span style='color:green'>Lift","<span style='color:red'>Fail,<span style='color:green'>Lift,<span style='color:green'>Lift,<span style='color:red'>Fail,<span style='color:green'>Lift,<span style='color:green'>Lift","0,0,1,1,0,0,0,0,1,0,0,1","0,0,1,1,1,1,1,0,1,1,0,1","0,1,1,0,1,1",10,20,20,"","","","","{""box1"":""3"",""box2"":""3""}","",NA,2,"round1_outcome",1,2,1,3,3,NA,NA,0,0,10,3,3,NA,NA,0,0,10,NA,NA,NA,NA,NA,NA,NA,NA,NA,NA,NA,NA,NA,NA,NA,NA,NA,NA,NA,NA,NA,NA,"",NA,NA,NA,NA,NA,NA,NA,NA,NA
"17387.599999997765","https://psyc-201.github.io/xiang2023/exp/index1.html?PROLIFIC_PID=REDACTED&STUDY_ID=691f8ca61c6b4dcbb0aeb5f4&SESSION_ID=691f943fa18009026f9ac24b","survey-html-form",19,1013278,"0.0-318.0","lghQ1M63pH92EQsn5Het1sB7HR6LnUYv6AAzu624Arn/3G+OFsdK8ORVDh3lgJl1GKUZkUsNd1jO2RAB2Io9Rxv5X8XTe641g5kbICVu3EoquPb5jZQTm4OpddCqWJhYhHaxIMoRHXF2IL28XEd1a+ppqjMJpLshDd6Jn+7mbfObDvnfTIqp1x1YVvEpRkKHlj84LvwGgS22Ys4xXUoTrOEnQHFkCbexeVLB70Z0hvui4ZFHLcG9F4dlzgxGwrB+4beJbvhhSsAwtwwG1OIq5lFV79S72OKwX/QNlgTNpY2imRlpZBLb8bFEwGRRmLKqn25xUBY/hHYPQxbUFJD1oQ==","691f8ca61c6b4dcbb0aeb5f4","691f943fa18009026f9ac24b","index1","<span style='color:red'>Fail,<span style='color:red'>Fail,<span style='color:green'>Lift,<span style='color:green'>Lift,<span style='color:red'>Fail,<span style='color:red'>Fail,<span style='color:red'>Fail,<span style='color:red'>Fail,<span style='color:green'>Lift,<span style='color:red'>Fail,<span style='color:red'>Fail,<span style='color:green'>Lift","<span style='color:red'>Fail,<span style='color:red'>Fail,<span style='color:green'>Lift,<span style='color:green'>Lift,<span style='color:green'>Lift,<span style='color:green'>Lift,<span style='color:green'>Lift,<span style='color:red'>Fail,<span style='color:green'>Lift,<span style='color:green'>Lift,<span style='color:red'>Fail,<span style='color:green'>Lift","<span style='color:red'>Fail,<span style='color:green'>Lift,<span style='color:green'>Lift,<span style='color:red'>Fail,<span style='color:green'>Lift,<span style='color:green'>Lift","0,0,1,1,0,0,0,0,1,0,0,1","0,0,1,1,1,1,1,0,1,1,0,1","0,1,1,0,1,1",10,20,20,"","","","","{""box1"":""30"",""box2"":""30""}","",NA,2,"round2_ready",2,2,2,NA,NA,NA,NA,NA,NA,NA,NA,NA,NA,NA,NA,NA,NA,30,30,30,30,NA,NA,NA,NA,NA,NA,NA,NA,NA,NA,NA,NA,NA,NA,NA,NA,NA,NA,"",NA,NA,NA,NA,NA,NA,NA,NA,NA
"23294","https://psyc-201.github.io/xiang2023/exp/index1.html?PROLIFIC_PID=REDACTED&STUDY_ID=691f8ca61c6b4dcbb0aeb5f4&SESSION_ID=691f943fa18009026f9ac24b","survey-html-form",20,1036577,"0.0-319.0","lghQ1M63pH92EQsn5Het1sB7HR6LnUYv6AAzu624Arn/3G+OFsdK8ORVDh3lgJl1GKUZkUsNd1jO2RAB2Io9Rxv5X8XTe641g5kbICVu3EoquPb5jZQTm4OpddCqWJhYhHaxIMoRHXF2IL28XEd1a+ppqjMJpLshDd6Jn+7mbfObDvnfTIqp1x1YVvEpRkKHlj84LvwGgS22Ys4xXUoTrOEnQHFkCbexeVLB70Z0hvui4ZFHLcG9F4dlzgxGwrB+4beJbvhhSsAwtwwG1OIq5lFV79S72OKwX/QNlgTNpY2imRlpZBLb8bFEwGRRmLKqn25xUBY/hHYPQxbUFJD1oQ==","691f8ca61c6b4dcbb0aeb5f4","691f943fa18009026f9ac24b","index1","<span style='color:red'>Fail,<span style='color:red'>Fail,<span style='color:green'>Lift,<span style='color:green'>Lift,<span style='color:red'>Fail,<span style='color:red'>Fail,<span style='color:red'>Fail,<span style='color:red'>Fail,<span style='color:green'>Lift,<span style='color:red'>Fail,<span style='color:red'>Fail,<span style='color:green'>Lift","<span style='color:red'>Fail,<span style='color:red'>Fail,<span style='color:green'>Lift,<span style='color:green'>Lift,<span style='color:green'>Lift,<span style='color:green'>Lift,<span style='color:green'>Lift,<span style='color:red'>Fail,<span style='color:green'>Lift,<span style='color:green'>Lift,<span style='color:red'>Fail,<span style='color:green'>Lift","<span style='color:red'>Fail,<span style='color:green'>Lift,<span style='color:green'>Lift,<span style='color:red'>Fail,<span style='color:green'>Lift,<span style='color:green'>Lift","0,0,1,1,0,0,0,0,1,0,0,1","0,0,1,1,1,1,1,0,1,1,0,1","0,1,1,0,1,1",10,20,20,"","","","","{""box1"":""6"",""box2"":""6"",""box3"":""100"",""box4"":""100""}","",NA,2,"round2_outcome",3,2,2,6,6,100,100,1,1,20,NA,NA,NA,NA,NA,NA,NA,NA,NA,NA,NA,6,6,100,100,1,1,20,NA,NA,NA,NA,NA,NA,NA,NA,NA,NA,NA,"",NA,NA,NA,NA,NA,NA,NA,NA,NA
"15540.800000000745","https://psyc-201.github.io/xiang2023/exp/index1.html?PROLIFIC_PID=REDACTED&STUDY_ID=691f8ca61c6b4dcbb0aeb5f4&SESSION_ID=691f943fa18009026f9ac24b","survey-html-form",21,1052126,"0.0-320.0","lghQ1M63pH92EQsn5Het1sB7HR6LnUYv6AAzu624Arn/3G+OFsdK8ORVDh3lgJl1GKUZkUsNd1jO2RAB2Io9Rxv5X8XTe641g5kbICVu3EoquPb5jZQTm4OpddCqWJhYhHaxIMoRHXF2IL28XEd1a+ppqjMJpLshDd6Jn+7mbfObDvnfTIqp1x1YVvEpRkKHlj84LvwGgS22Ys4xXUoTrOEnQHFkCbexeVLB70Z0hvui4ZFHLcG9F4dlzgxGwrB+4beJbvhhSsAwtwwG1OIq5lFV79S72OKwX/QNlgTNpY2imRlpZBLb8bFEwGRRmLKqn25xUBY/hHYPQxbUFJD1oQ==","691f8ca61c6b4dcbb0aeb5f4","691f943fa18009026f9ac24b","index1","<span style='color:red'>Fail,<span style='color:red'>Fail,<span style='color:green'>Lift,<span style='color:green'>Lift,<span style='color:red'>Fail,<span style='color:red'>Fail,<span style='color:red'>Fail,<span style='color:red'>Fail,<span style='color:green'>Lift,<span style='color:red'>Fail,<span style='color:red'>Fail,<span style='color:green'>Lift","<span style='color:red'>Fail,<span style='color:red'>Fail,<span style='color:green'>Lift,<span style='color:green'>Lift,<span style='color:green'>Lift,<span style='color:green'>Lift,<span style='color:green'>Lift,<span style='color:red'>Fail,<span style='color:green'>Lift,<span style='color:green'>Lift,<span style='color:red'>Fail,<span style='color:green'>Lift","<span style='color:red'>Fail,<span style='color:green'>Lift,<span style='color:green'>Lift,<span style='color:red'>Fail,<span style='color:green'>Lift,<span style='color:green'>Lift","0,0,1,1,0,0,0,0,1,0,0,1","0,0,1,1,1,1,1,0,1,1,0,1","0,1,1,0,1,1",10,20,20,"","","","","{""box1"":""80""}","",NA,2,"round3_ready",4,2,3,NA,NA,NA,NA,NA,NA,NA,NA,NA,NA,NA,NA,NA,NA,80,80,NA,NA,NA,NA,NA,NA,NA,NA,NA,80,80,NA,NA,NA,NA,NA,NA,NA,NA,NA,"",NA,NA,NA,NA,NA,NA,NA,NA,NA
"26039","https://psyc-201.github.io/xiang2023/exp/index1.html?PROLIFIC_PID=REDACTED&STUDY_ID=691f8ca61c6b4dcbb0aeb5f4&SESSION_ID=691f943fa18009026f9ac24b","survey-html-form",22,1078169,"0.0-321.0-0.0","lghQ1M63pH92EQsn5Het1sB7HR6LnUYv6AAzu624Arn/3G+OFsdK8ORVDh3lgJl1GKUZkUsNd1jO2RAB2Io9Rxv5X8XTe641g5kbICVu3EoquPb5jZQTm4OpddCqWJhYhHaxIMoRHXF2IL28XEd1a+ppqjMJpLshDd6Jn+7mbfObDvnfTIqp1x1YVvEpRkKHlj84LvwGgS22Ys4xXUoTrOEnQHFkCbexeVLB70Z0hvui4ZFHLcG9F4dlzgxGwrB+4beJbvhhSsAwtwwG1OIq5lFV79S72OKwX/QNlgTNpY2imRlpZBLb8bFEwGRRmLKqn25xUBY/hHYPQxbUFJD1oQ==","691f8ca61c6b4dcbb0aeb5f4","691f943fa18009026f9ac24b","index1","<span style='color:red'>Fail,<span style='color:red'>Fail,<span style='color:green'>Lift,<span style='color:green'>Lift,<span style='color:red'>Fail,<span style='color:red'>Fail,<span style='color:red'>Fail,<span style='color:red'>Fail,<span style='color:green'>Lift,<span style='color:red'>Fail,<span style='color:red'>Fail,<span style='color:green'>Lift","<span style='color:red'>Fail,<span style='color:red'>Fail,<span style='color:green'>Lift,<span style='color:green'>Lift,<span style='color:green'>Lift,<span style='color:green'>Lift,<span style='color:green'>Lift,<span style='color:red'>Fail,<span style='color:green'>Lift,<span style='color:green'>Lift,<span style='color:red'>Fail,<span style='color:green'>Lift","<span style='color:red'>Fail,<span style='color:green'>Lift,<span style='color:green'>Lift,<span style='color:red'>Fail,<span style='color:green'>Lift,<span style='color:green'>Lift","0,0,1,1,0,0,0,0,1,0,0,1","0,0,1,1,1,1,1,0,1,1,0,1","0,1,1,0,1,1",10,20,20,"","","","","{""box1"":""7"",""box2"":""7"",""box3"":""60"",""box4"":""60""}","",NA,3,"round3_lift",5,2,3,7,7,60,60,1,1,20,NA,NA,NA,NA,NA,NA,NA,NA,NA,NA,NA,NA,NA,NA,NA,NA,NA,NA,NA,NA,7,7,60,60,1,1,20,NA,NA,"",NA,NA,NA,NA,NA,NA,NA,NA,NA
"null","https://psyc-201.github.io/xiang2023/exp/index1.html?PROLIFIC_PID=REDACTED&STUDY_ID=691f8ca61c6b4dcbb0aeb5f4&SESSION_ID=691f943fa18009026f9ac24b","html-keyboard-response",23,1081172,"0.0-325.0","lghQ1M63pH92EQsn5Het1sB7HR6LnUYv6AAzu624Arn/3G+OFsdK8ORVDh3lgJl1GKUZkUsNd1jO2RAB2Io9Rxv5X8XTe641g5kbICVu3EoquPb5jZQTm4OpddCqWJhYhHaxIMoRHXF2IL28XEd1a+ppqjMJpLshDd6Jn+7mbfObDvnfTIqp1x1YVvEpRkKHlj84LvwGgS22Ys4xXUoTrOEnQHFkCbexeVLB70Z0hvui4ZFHLcG9F4dlzgxGwrB+4beJbvhhSsAwtwwG1OIq5lFV79S72OKwX/QNlgTNpY2imRlpZBLb8bFEwGRRmLKqn25xUBY/hHYPQxbUFJD1oQ==","691f8ca61c6b4dcbb0aeb5f4","691f943fa18009026f9ac24b","index1","<span style='color:red'>Fail,<span style='color:red'>Fail,<span style='color:green'>Lift,<span style='color:green'>Lift,<span style='color:red'>Fail,<span style='color:red'>Fail,<span style='color:red'>Fail,<span style='color:red'>Fail,<span style='color:green'>Lift,<span style='color:red'>Fail,<span style='color:red'>Fail,<span style='color:green'>Lift","<span style='color:red'>Fail,<span style='color:red'>Fail,<span style='color:green'>Lift,<span style='color:green'>Lift,<span style='color:green'>Lift,<span style='color:green'>Lift,<span style='color:green'>Lift,<span style='color:red'>Fail,<span style='color:green'>Lift,<span style='color:green'>Lift,<span style='color:red'>Fail,<span style='color:green'>Lift","<span style='color:red'>Fail,<span style='color:green'>Lift,<span style='color:green'>Lift,<span style='color:red'>Fail,<span style='color:green'>Lift,<span style='color:green'>Lift","0,0,1,1,0,0,0,0,1,0,0,1","0,0,1,1,1,1,1,0,1,1,0,1","0,1,1,0,1,1",10,20,20,"","","<p style='font-size:30px'><b> New Contest! </b></p>","null","","",NA,3,"",NA,NA,NA,NA,NA,NA,NA,NA,NA,NA,NA,NA,NA,NA,NA,NA,NA,NA,NA,NA,NA,NA,NA,NA,NA,NA,NA,NA,NA,NA,NA,NA,NA,NA,NA,NA,NA,NA,NA,"",NA,NA,NA,NA,NA,NA,NA,NA,NA
"12561.900000002235","https://psyc-201.github.io/xiang2023/exp/index1.html?PROLIFIC_PID=REDACTED&STUDY_ID=691f8ca61c6b4dcbb0aeb5f4&SESSION_ID=691f943fa18009026f9ac24b","survey-html-form",24,1093738,"0.0-326.0","lghQ1M63pH92EQsn5Het1sB7HR6LnUYv6AAzu624Arn/3G+OFsdK8ORVDh3lgJl1GKUZkUsNd1jO2RAB2Io9Rxv5X8XTe641g5kbICVu3EoquPb5jZQTm4OpddCqWJhYhHaxIMoRHXF2IL28XEd1a+ppqjMJpLshDd6Jn+7mbfObDvnfTIqp1x1YVvEpRkKHlj84LvwGgS22Ys4xXUoTrOEnQHFkCbexeVLB70Z0hvui4ZFHLcG9F4dlzgxGwrB+4beJbvhhSsAwtwwG1OIq5lFV79S72OKwX/QNlgTNpY2imRlpZBLb8bFEwGRRmLKqn25xUBY/hHYPQxbUFJD1oQ==","691f8ca61c6b4dcbb0aeb5f4","691f943fa18009026f9ac24b","index1","<span style='color:red'>Fail,<span style='color:red'>Fail,<span style='color:green'>Lift,<span style='color:green'>Lift,<span style='color:red'>Fail,<span style='color:red'>Fail,<span style='color:red'>Fail,<span style='color:red'>Fail,<span style='color:green'>Lift,<span style='color:red'>Fail,<span style='color:red'>Fail,<span style='color:green'>Lift","<span style='color:red'>Fail,<span style='color:red'>Fail,<span style='color:green'>Lift,<span style='color:green'>Lift,<span style='color:green'>Lift,<span style='color:green'>Lift,<span style='color:green'>Lift,<span style='color:red'>Fail,<span style='color:green'>Lift,<span style='color:green'>Lift,<span style='color:red'>Fail,<span style='color:green'>Lift","<span style='color:red'>Fail,<span style='color:green'>Lift,<span style='color:green'>Lift,<span style='color:red'>Fail,<span style='color:green'>Lift,<span style='color:green'>Lift","0,0,1,1,0,0,0,0,1,0,0,1","0,0,1,1,1,1,1,0,1,1,0,1","0,1,1,0,1,1",10,20,20,"","","","","{""box1"":""4"",""box2"":""4""}","",NA,3,"round1_outcome",1,3,1,4,4,NA,NA,0,0,10,4,4,NA,NA,0,0,10,NA,NA,NA,NA,NA,NA,NA,NA,NA,NA,NA,NA,NA,NA,NA,NA,NA,NA,NA,NA,NA,NA,"",NA,NA,NA,NA,NA,NA,NA,NA,NA
"11020","https://psyc-201.github.io/xiang2023/exp/index1.html?PROLIFIC_PID=REDACTED&STUDY_ID=691f8ca61c6b4dcbb0aeb5f4&SESSION_ID=691f943fa18009026f9ac24b","survey-html-form",25,1104763,"0.0-327.0","lghQ1M63pH92EQsn5Het1sB7HR6LnUYv6AAzu624Arn/3G+OFsdK8ORVDh3lgJl1GKUZkUsNd1jO2RAB2Io9Rxv5X8XTe641g5kbICVu3EoquPb5jZQTm4OpddCqWJhYhHaxIMoRHXF2IL28XEd1a+ppqjMJpLshDd6Jn+7mbfObDvnfTIqp1x1YVvEpRkKHlj84LvwGgS22Ys4xXUoTrOEnQHFkCbexeVLB70Z0hvui4ZFHLcG9F4dlzgxGwrB+4beJbvhhSsAwtwwG1OIq5lFV79S72OKwX/QNlgTNpY2imRlpZBLb8bFEwGRRmLKqn25xUBY/hHYPQxbUFJD1oQ==","691f8ca61c6b4dcbb0aeb5f4","691f943fa18009026f9ac24b","index1","<span style='color:red'>Fail,<span style='color:red'>Fail,<span style='color:green'>Lift,<span style='color:green'>Lift,<span style='color:red'>Fail,<span style='color:red'>Fail,<span style='color:red'>Fail,<span style='color:red'>Fail,<span style='color:green'>Lift,<span style='color:red'>Fail,<span style='color:red'>Fail,<span style='color:green'>Lift","<span style='color:red'>Fail,<span style='color:red'>Fail,<span style='color:green'>Lift,<span style='color:green'>Lift,<span style='color:green'>Lift,<span style='color:green'>Lift,<span style='color:green'>Lift,<span style='color:red'>Fail,<span style='color:green'>Lift,<span style='color:green'>Lift,<span style='color:red'>Fail,<span style='color:green'>Lift","<span style='color:red'>Fail,<span style='color:green'>Lift,<span style='color:green'>Lift,<span style='color:red'>Fail,<span style='color:green'>Lift,<span style='color:green'>Lift","0,0,1,1,0,0,0,0,1,0,0,1","0,0,1,1,1,1,1,0,1,1,0,1","0,1,1,0,1,1",10,20,20,"","","","","{""box1"":""50"",""box2"":""50""}","",NA,3,"round2_ready",2,3,2,NA,NA,NA,NA,NA,NA,NA,NA,NA,NA,NA,NA,NA,NA,50,50,50,50,NA,NA,NA,NA,NA,NA,NA,NA,NA,NA,NA,NA,NA,NA,NA,NA,NA,NA,"",NA,NA,NA,NA,NA,NA,NA,NA,NA
"30247.39999999851","https://psyc-201.github.io/xiang2023/exp/index1.html?PROLIFIC_PID=REDACTED&STUDY_ID=691f8ca61c6b4dcbb0aeb5f4&SESSION_ID=691f943fa18009026f9ac24b","survey-html-form",26,1135016,"0.0-328.0","lghQ1M63pH92EQsn5Het1sB7HR6LnUYv6AAzu624Arn/3G+OFsdK8ORVDh3lgJl1GKUZkUsNd1jO2RAB2Io9Rxv5X8XTe641g5kbICVu3EoquPb5jZQTm4OpddCqWJhYhHaxIMoRHXF2IL28XEd1a+ppqjMJpLshDd6Jn+7mbfObDvnfTIqp1x1YVvEpRkKHlj84LvwGgS22Ys4xXUoTrOEnQHFkCbexeVLB70Z0hvui4ZFHLcG9F4dlzgxGwrB+4beJbvhhSsAwtwwG1OIq5lFV79S72OKwX/QNlgTNpY2imRlpZBLb8bFEwGRRmLKqn25xUBY/hHYPQxbUFJD1oQ==","691f8ca61c6b4dcbb0aeb5f4","691f943fa18009026f9ac24b","index1","<span style='color:red'>Fail,<span style='color:red'>Fail,<span style='color:green'>Lift,<span style='color:green'>Lift,<span style='color:red'>Fail,<span style='color:red'>Fail,<span style='color:red'>Fail,<span style='color:red'>Fail,<span style='color:green'>Lift,<span style='color:red'>Fail,<span style='color:red'>Fail,<span style='color:green'>Lift","<span style='color:red'>Fail,<span style='color:red'>Fail,<span style='color:green'>Lift,<span style='color:green'>Lift,<span style='color:green'>Lift,<span style='color:green'>Lift,<span style='color:green'>Lift,<span style='color:red'>Fail,<span style='color:green'>Lift,<span style='color:green'>Lift,<span style='color:red'>Fail,<span style='color:green'>Lift","<span style='color:red'>Fail,<span style='color:green'>Lift,<span style='color:green'>Lift,<span style='color:red'>Fail,<span style='color:green'>Lift,<span style='color:green'>Lift","0,0,1,1,0,0,0,0,1,0,0,1","0,0,1,1,1,1,1,0,1,1,0,1","0,1,1,0,1,1",10,20,20,"","","","","{""box1"":""7"",""box2"":""3"",""box3"":""85""}","",NA,3,"round2_outcome",3,3,2,7,3,85,NA,1,0,20,NA,NA,NA,NA,NA,NA,NA,NA,NA,NA,NA,7,3,85,NA,1,0,20,NA,NA,NA,NA,NA,NA,NA,NA,NA,NA,NA,"",NA,NA,NA,NA,NA,NA,NA,NA,NA
"8286.099999997765","https://psyc-201.github.io/xiang2023/exp/index1.html?PROLIFIC_PID=REDACTED&STUDY_ID=691f8ca61c6b4dcbb0aeb5f4&SESSION_ID=691f943fa18009026f9ac24b","survey-html-form",27,1143308,"0.0-329.0","lghQ1M63pH92EQsn5Het1sB7HR6LnUYv6AAzu624Arn/3G+OFsdK8ORVDh3lgJl1GKUZkUsNd1jO2RAB2Io9Rxv5X8XTe641g5kbICVu3EoquPb5jZQTm4OpddCqWJhYhHaxIMoRHXF2IL28XEd1a+ppqjMJpLshDd6Jn+7mbfObDvnfTIqp1x1YVvEpRkKHlj84LvwGgS22Ys4xXUoTrOEnQHFkCbexeVLB70Z0hvui4ZFHLcG9F4dlzgxGwrB+4beJbvhhSsAwtwwG1OIq5lFV79S72OKwX/QNlgTNpY2imRlpZBLb8bFEwGRRmLKqn25xUBY/hHYPQxbUFJD1oQ==","691f8ca61c6b4dcbb0aeb5f4","691f943fa18009026f9ac24b","index1","<span style='color:red'>Fail,<span style='color:red'>Fail,<span style='color:green'>Lift,<span style='color:green'>Lift,<span style='color:red'>Fail,<span style='color:red'>Fail,<span style='color:red'>Fail,<span style='color:red'>Fail,<span style='color:green'>Lift,<span style='color:red'>Fail,<span style='color:red'>Fail,<span style='color:green'>Lift","<span style='color:red'>Fail,<span style='color:red'>Fail,<span style='color:green'>Lift,<span style='color:green'>Lift,<span style='color:green'>Lift,<span style='color:green'>Lift,<span style='color:green'>Lift,<span style='color:red'>Fail,<span style='color:green'>Lift,<span style='color:green'>Lift,<span style='color:red'>Fail,<span style='color:green'>Lift","<span style='color:red'>Fail,<span style='color:green'>Lift,<span style='color:green'>Lift,<span style='color:red'>Fail,<span style='color:green'>Lift,<span style='color:green'>Lift","0,0,1,1,0,0,0,0,1,0,0,1","0,0,1,1,1,1,1,0,1,1,0,1","0,1,1,0,1,1",10,20,20,"","","","","{""box1"":""68""}","",NA,3,"round3_ready",4,3,3,NA,NA,NA,NA,NA,NA,NA,NA,NA,NA,NA,NA,NA,NA,68,68,NA,NA,NA,NA,NA,NA,NA,NA,NA,68,68,NA,NA,NA,NA,NA,NA,NA,NA,NA,"",NA,NA,NA,NA,NA,NA,NA,NA,NA
"17463.60000000149","https://psyc-201.github.io/xiang2023/exp/index1.html?PROLIFIC_PID=REDACTED&STUDY_ID=691f8ca61c6b4dcbb0aeb5f4&SESSION_ID=691f943fa18009026f9ac24b","survey-html-form",28,1160778,"0.0-331.0-0.0","lghQ1M63pH92EQsn5Het1sB7HR6LnUYv6AAzu624Arn/3G+OFsdK8ORVDh3lgJl1GKUZkUsNd1jO2RAB2Io9Rxv5X8XTe641g5kbICVu3EoquPb5jZQTm4OpddCqWJhYhHaxIMoRHXF2IL28XEd1a+ppqjMJpLshDd6Jn+7mbfObDvnfTIqp1x1YVvEpRkKHlj84LvwGgS22Ys4xXUoTrOEnQHFkCbexeVLB70Z0hvui4ZFHLcG9F4dlzgxGwrB+4beJbvhhSsAwtwwG1OIq5lFV79S72OKwX/QNlgTNpY2imRlpZBLb8bFEwGRRmLKqn25xUBY/hHYPQxbUFJD1oQ==","691f8ca61c6b4dcbb0aeb5f4","691f943fa18009026f9ac24b","index1","<span style='color:red'>Fail,<span style='color:red'>Fail,<span style='color:green'>Lift,<span style='color:green'>Lift,<span style='color:red'>Fail,<span style='color:red'>Fail,<span style='color:red'>Fail,<span style='color:red'>Fail,<span style='color:green'>Lift,<span style='color:red'>Fail,<span style='color:red'>Fail,<span style='color:green'>Lift","<span style='color:red'>Fail,<span style='color:red'>Fail,<span style='color:green'>Lift,<span style='color:green'>Lift,<span style='color:green'>Lift,<span style='color:green'>Lift,<span style='color:green'>Lift,<span style='color:red'>Fail,<span style='color:green'>Lift,<span style='color:green'>Lift,<span style='color:red'>Fail,<span style='color:green'>Lift","<span style='color:red'>Fail,<span style='color:green'>Lift,<span style='color:green'>Lift,<span style='color:red'>Fail,<span style='color:green'>Lift,<span style='color:green'>Lift","0,0,1,1,0,0,0,0,1,0,0,1","0,0,1,1,1,1,1,0,1,1,0,1","0,1,1,0,1,1",10,20,20,"","","","","{""box1"":""6"",""box2"":""3"",""box3"":""999"",""box4"":""999""}","",NA,4,"round3_fail",5,3,3,6,3,NA,NA,0,0,20,NA,NA,NA,NA,NA,NA,NA,NA,NA,NA,NA,NA,NA,NA,NA,NA,NA,NA,NA,NA,6,3,NA,NA,0,0,20,1,1,"",NA,NA,NA,NA,NA,NA,NA,NA,NA
"null","https://psyc-201.github.io/xiang2023/exp/index1.html?PROLIFIC_PID=REDACTED&STUDY_ID=691f8ca61c6b4dcbb0aeb5f4&SESSION_ID=691f943fa18009026f9ac24b","html-keyboard-response",29,1163781,"0.0-334.0","lghQ1M63pH92EQsn5Het1sB7HR6LnUYv6AAzu624Arn/3G+OFsdK8ORVDh3lgJl1GKUZkUsNd1jO2RAB2Io9Rxv5X8XTe641g5kbICVu3EoquPb5jZQTm4OpddCqWJhYhHaxIMoRHXF2IL28XEd1a+ppqjMJpLshDd6Jn+7mbfObDvnfTIqp1x1YVvEpRkKHlj84LvwGgS22Ys4xXUoTrOEnQHFkCbexeVLB70Z0hvui4ZFHLcG9F4dlzgxGwrB+4beJbvhhSsAwtwwG1OIq5lFV79S72OKwX/QNlgTNpY2imRlpZBLb8bFEwGRRmLKqn25xUBY/hHYPQxbUFJD1oQ==","691f8ca61c6b4dcbb0aeb5f4","691f943fa18009026f9ac24b","index1","<span style='color:red'>Fail,<span style='color:red'>Fail,<span style='color:green'>Lift,<span style='color:green'>Lift,<span style='color:red'>Fail,<span style='color:red'>Fail,<span style='color:red'>Fail,<span style='color:red'>Fail,<span style='color:green'>Lift,<span style='color:red'>Fail,<span style='color:red'>Fail,<span style='color:green'>Lift","<span style='color:red'>Fail,<span style='color:red'>Fail,<span style='color:green'>Lift,<span style='color:green'>Lift,<span style='color:green'>Lift,<span style='color:green'>Lift,<span style='color:green'>Lift,<span style='color:red'>Fail,<span style='color:green'>Lift,<span style='color:green'>Lift,<span style='color:red'>Fail,<span style='color:green'>Lift","<span style='color:red'>Fail,<span style='color:green'>Lift,<span style='color:green'>Lift,<span style='color:red'>Fail,<span style='color:green'>Lift,<span style='color:green'>Lift","0,0,1,1,0,0,0,0,1,0,0,1","0,0,1,1,1,1,1,0,1,1,0,1","0,1,1,0,1,1",10,20,20,"","","<p style='font-size:30px'><b> New Contest! </b></p>","null","","",NA,4,"",NA,NA,NA,NA,NA,NA,NA,NA,NA,NA,NA,NA,NA,NA,NA,NA,NA,NA,NA,NA,NA,NA,NA,NA,NA,NA,NA,NA,NA,NA,NA,NA,NA,NA,NA,NA,NA,NA,NA,"",NA,NA,NA,NA,NA,NA,NA,NA,NA
"22586.60000000149","https://psyc-201.github.io/xiang2023/exp/index1.html?PROLIFIC_PID=REDACTED&STUDY_ID=691f8ca61c6b4dcbb0aeb5f4&SESSION_ID=691f943fa18009026f9ac24b","survey-html-form",30,1186371,"0.0-335.0","lghQ1M63pH92EQsn5Het1sB7HR6LnUYv6AAzu624Arn/3G+OFsdK8ORVDh3lgJl1GKUZkUsNd1jO2RAB2Io9Rxv5X8XTe641g5kbICVu3EoquPb5jZQTm4OpddCqWJhYhHaxIMoRHXF2IL28XEd1a+ppqjMJpLshDd6Jn+7mbfObDvnfTIqp1x1YVvEpRkKHlj84LvwGgS22Ys4xXUoTrOEnQHFkCbexeVLB70Z0hvui4ZFHLcG9F4dlzgxGwrB+4beJbvhhSsAwtwwG1OIq5lFV79S72OKwX/QNlgTNpY2imRlpZBLb8bFEwGRRmLKqn25xUBY/hHYPQxbUFJD1oQ==","691f8ca61c6b4dcbb0aeb5f4","691f943fa18009026f9ac24b","index1","<span style='color:red'>Fail,<span style='color:red'>Fail,<span style='color:green'>Lift,<span style='color:green'>Lift,<span style='color:red'>Fail,<span style='color:red'>Fail,<span style='color:red'>Fail,<span style='color:red'>Fail,<span style='color:green'>Lift,<span style='color:red'>Fail,<span style='color:red'>Fail,<span style='color:green'>Lift","<span style='color:red'>Fail,<span style='color:red'>Fail,<span style='color:green'>Lift,<span style='color:green'>Lift,<span style='color:green'>Lift,<span style='color:green'>Lift,<span style='color:green'>Lift,<span style='color:red'>Fail,<span style='color:green'>Lift,<span style='color:green'>Lift,<span style='color:red'>Fail,<span style='color:green'>Lift","<span style='color:red'>Fail,<span style='color:green'>Lift,<span style='color:green'>Lift,<span style='color:red'>Fail,<span style='color:green'>Lift,<span style='color:green'>Lift","0,0,1,1,0,0,0,0,1,0,0,1","0,0,1,1,1,1,1,0,1,1,0,1","0,1,1,0,1,1",10,20,20,"","","","","{""box1"":""5"",""box2"":""7"",""box4"":""75""}","",NA,4,"round1_outcome",1,4,1,5,7,NA,75,0,1,10,5,7,NA,75,0,1,10,NA,NA,NA,NA,NA,NA,NA,NA,NA,NA,NA,NA,NA,NA,NA,NA,NA,NA,NA,NA,NA,NA,"",NA,NA,NA,NA,NA,NA,NA,NA,NA
"7984.800000000745","https://psyc-201.github.io/xiang2023/exp/index1.html?PROLIFIC_PID=REDACTED&STUDY_ID=691f8ca61c6b4dcbb0aeb5f4&SESSION_ID=691f943fa18009026f9ac24b","survey-html-form",31,1194360,"0.0-336.0","lghQ1M63pH92EQsn5Het1sB7HR6LnUYv6AAzu624Arn/3G+OFsdK8ORVDh3lgJl1GKUZkUsNd1jO2RAB2Io9Rxv5X8XTe641g5kbICVu3EoquPb5jZQTm4OpddCqWJhYhHaxIMoRHXF2IL28XEd1a+ppqjMJpLshDd6Jn+7mbfObDvnfTIqp1x1YVvEpRkKHlj84LvwGgS22Ys4xXUoTrOEnQHFkCbexeVLB70Z0hvui4ZFHLcG9F4dlzgxGwrB+4beJbvhhSsAwtwwG1OIq5lFV79S72OKwX/QNlgTNpY2imRlpZBLb8bFEwGRRmLKqn25xUBY/hHYPQxbUFJD1oQ==","691f8ca61c6b4dcbb0aeb5f4","691f943fa18009026f9ac24b","index1","<span style='color:red'>Fail,<span style='color:red'>Fail,<span style='color:green'>Lift,<span style='color:green'>Lift,<span style='color:red'>Fail,<span style='color:red'>Fail,<span style='color:red'>Fail,<span style='color:red'>Fail,<span style='color:green'>Lift,<span style='color:red'>Fail,<span style='color:red'>Fail,<span style='color:green'>Lift","<span style='color:red'>Fail,<span style='color:red'>Fail,<span style='color:green'>Lift,<span style='color:green'>Lift,<span style='color:green'>Lift,<span style='color:green'>Lift,<span style='color:green'>Lift,<span style='color:red'>Fail,<span style='color:green'>Lift,<span style='color:green'>Lift,<span style='color:red'>Fail,<span style='color:green'>Lift","<span style='color:red'>Fail,<span style='color:green'>Lift,<span style='color:green'>Lift,<span style='color:red'>Fail,<span style='color:green'>Lift,<span style='color:green'>Lift","0,0,1,1,0,0,0,0,1,0,0,1","0,0,1,1,1,1,1,0,1,1,0,1","0,1,1,0,1,1",10,20,20,"","","","","{""box1"":""50"",""box2"":""90""}","",NA,4,"round2_ready",2,4,2,NA,NA,NA,NA,NA,NA,NA,NA,NA,NA,NA,NA,NA,NA,50,90,50,90,NA,NA,NA,NA,NA,NA,NA,NA,NA,NA,NA,NA,NA,NA,NA,NA,NA,NA,"",NA,NA,NA,NA,NA,NA,NA,NA,NA
"17316.5","https://psyc-201.github.io/xiang2023/exp/index1.html?PROLIFIC_PID=REDACTED&STUDY_ID=691f8ca61c6b4dcbb0aeb5f4&SESSION_ID=691f943fa18009026f9ac24b","survey-html-form",32,1211685,"0.0-337.0","lghQ1M63pH92EQsn5Het1sB7HR6LnUYv6AAzu624Arn/3G+OFsdK8ORVDh3lgJl1GKUZkUsNd1jO2RAB2Io9Rxv5X8XTe641g5kbICVu3EoquPb5jZQTm4OpddCqWJhYhHaxIMoRHXF2IL28XEd1a+ppqjMJpLshDd6Jn+7mbfObDvnfTIqp1x1YVvEpRkKHlj84LvwGgS22Ys4xXUoTrOEnQHFkCbexeVLB70Z0hvui4ZFHLcG9F4dlzgxGwrB+4beJbvhhSsAwtwwG1OIq5lFV79S72OKwX/QNlgTNpY2imRlpZBLb8bFEwGRRmLKqn25xUBY/hHYPQxbUFJD1oQ==","691f8ca61c6b4dcbb0aeb5f4","691f943fa18009026f9ac24b","index1","<span style='color:red'>Fail,<span style='color:red'>Fail,<span style='color:green'>Lift,<span style='color:green'>Lift,<span style='color:red'>Fail,<span style='color:red'>Fail,<span style='color:red'>Fail,<span style='color:red'>Fail,<span style='color:green'>Lift,<span style='color:red'>Fail,<span style='color:red'>Fail,<span style='color:green'>Lift","<span style='color:red'>Fail,<span style='color:red'>Fail,<span style='color:green'>Lift,<span style='color:green'>Lift,<span style='color:green'>Lift,<span style='color:green'>Lift,<span style='color:green'>Lift,<span style='color:red'>Fail,<span style='color:green'>Lift,<span style='color:green'>Lift,<span style='color:red'>Fail,<span style='color:green'>Lift","<span style='color:red'>Fail,<span style='color:green'>Lift,<span style='color:green'>Lift,<span style='color:red'>Fail,<span style='color:green'>Lift,<span style='color:green'>Lift","0,0,1,1,0,0,0,0,1,0,0,1","0,0,1,1,1,1,1,0,1,1,0,1","0,1,1,0,1,1",10,20,20,"","","","","{""box1"":""2"",""box2"":""8"",""box4"":""95""}","",NA,4,"round2_outcome",3,4,2,2,8,NA,95,0,1,20,NA,NA,NA,NA,NA,NA,NA,NA,NA,NA,NA,2,8,NA,95,0,1,20,NA,NA,NA,NA,NA,NA,NA,NA,NA,NA,NA,"",NA,NA,NA,NA,NA,NA,NA,NA,NA
"6137.599999997765","https://psyc-201.github.io/xiang2023/exp/index1.html?PROLIFIC_PID=REDACTED&STUDY_ID=691f8ca61c6b4dcbb0aeb5f4&SESSION_ID=691f943fa18009026f9ac24b","survey-html-form",33,1217826,"0.0-338.0","lghQ1M63pH92EQsn5Het1sB7HR6LnUYv6AAzu624Arn/3G+OFsdK8ORVDh3lgJl1GKUZkUsNd1jO2RAB2Io9Rxv5X8XTe641g5kbICVu3EoquPb5jZQTm4OpddCqWJhYhHaxIMoRHXF2IL28XEd1a+ppqjMJpLshDd6Jn+7mbfObDvnfTIqp1x1YVvEpRkKHlj84LvwGgS22Ys4xXUoTrOEnQHFkCbexeVLB70Z0hvui4ZFHLcG9F4dlzgxGwrB+4beJbvhhSsAwtwwG1OIq5lFV79S72OKwX/QNlgTNpY2imRlpZBLb8bFEwGRRmLKqn25xUBY/hHYPQxbUFJD1oQ==","691f8ca61c6b4dcbb0aeb5f4","691f943fa18009026f9ac24b","index1","<span style='color:red'>Fail,<span style='color:red'>Fail,<span style='color:green'>Lift,<span style='color:green'>Lift,<span style='color:red'>Fail,<span style='color:red'>Fail,<span style='color:red'>Fail,<span style='color:red'>Fail,<span style='color:green'>Lift,<span style='color:red'>Fail,<span style='color:red'>Fail,<span style='color:green'>Lift","<span style='color:red'>Fail,<span style='color:red'>Fail,<span style='color:green'>Lift,<span style='color:green'>Lift,<span style='color:green'>Lift,<span style='color:green'>Lift,<span style='color:green'>Lift,<span style='color:red'>Fail,<span style='color:green'>Lift,<span style='color:green'>Lift,<span style='color:red'>Fail,<span style='color:green'>Lift","<span style='color:red'>Fail,<span style='color:green'>Lift,<span style='color:green'>Lift,<span style='color:red'>Fail,<span style='color:green'>Lift,<span style='color:green'>Lift","0,0,1,1,0,0,0,0,1,0,0,1","0,0,1,1,1,1,1,0,1,1,0,1","0,1,1,0,1,1",10,20,20,"","","","","{""box1"":""80""}","",NA,4,"round3_ready",4,4,3,NA,NA,NA,NA,NA,NA,NA,NA,NA,NA,NA,NA,NA,NA,80,80,NA,NA,NA,NA,NA,NA,NA,NA,NA,80,80,NA,NA,NA,NA,NA,NA,NA,NA,NA,"",NA,NA,NA,NA,NA,NA,NA,NA,NA
"34433.300000000745","https://psyc-201.github.io/xiang2023/exp/index1.html?PROLIFIC_PID=REDACTED&STUDY_ID=691f8ca61c6b4dcbb0aeb5f4&SESSION_ID=691f943fa18009026f9ac24b","survey-html-form",34,1252264,"0.0-339.0-0.0","lghQ1M63pH92EQsn5Het1sB7HR6LnUYv6AAzu624Arn/3G+OFsdK8ORVDh3lgJl1GKUZkUsNd1jO2RAB2Io9Rxv5X8XTe641g5kbICVu3EoquPb5jZQTm4OpddCqWJhYhHaxIMoRHXF2IL28XEd1a+ppqjMJpLshDd6Jn+7mbfObDvnfTIqp1x1YVvEpRkKHlj84LvwGgS22Ys4xXUoTrOEnQHFkCbexeVLB70Z0hvui4ZFHLcG9F4dlzgxGwrB+4beJbvhhSsAwtwwG1OIq5lFV79S72OKwX/QNlgTNpY2imRlpZBLb8bFEwGRRmLKqn25xUBY/hHYPQxbUFJD1oQ==","691f8ca61c6b4dcbb0aeb5f4","691f943fa18009026f9ac24b","index1","<span style='color:red'>Fail,<span style='color:red'>Fail,<span style='color:green'>Lift,<span style='color:green'>Lift,<span style='color:red'>Fail,<span style='color:red'>Fail,<span style='color:red'>Fail,<span style='color:red'>Fail,<span style='color:green'>Lift,<span style='color:red'>Fail,<span style='color:red'>Fail,<span style='color:green'>Lift","<span style='color:red'>Fail,<span style='color:red'>Fail,<span style='color:green'>Lift,<span style='color:green'>Lift,<span style='color:green'>Lift,<span style='color:green'>Lift,<span style='color:green'>Lift,<span style='color:red'>Fail,<span style='color:green'>Lift,<span style='color:green'>Lift,<span style='color:red'>Fail,<span style='color:green'>Lift","<span style='color:red'>Fail,<span style='color:green'>Lift,<span style='color:green'>Lift,<span style='color:red'>Fail,<span style='color:green'>Lift,<span style='color:green'>Lift","0,0,1,1,0,0,0,0,1,0,0,1","0,0,1,1,1,1,1,0,1,1,0,1","0,1,1,0,1,1",10,20,20,"","","","","{""box1"":""2"",""box2"":""8"",""box3"":""100"",""box4"":""95""}","",NA,5,"round3_lift",5,4,3,2,8,100,95,1,1,20,NA,NA,NA,NA,NA,NA,NA,NA,NA,NA,NA,NA,NA,NA,NA,NA,NA,NA,NA,NA,2,8,100,95,1,1,20,NA,NA,"",NA,NA,NA,NA,NA,NA,NA,NA,NA
"null","https://psyc-201.github.io/xiang2023/exp/index1.html?PROLIFIC_PID=REDACTED&STUDY_ID=691f8ca61c6b4dcbb0aeb5f4&SESSION_ID=691f943fa18009026f9ac24b","html-keyboard-response",35,1255267,"0.0-343.0","lghQ1M63pH92EQsn5Het1sB7HR6LnUYv6AAzu624Arn/3G+OFsdK8ORVDh3lgJl1GKUZkUsNd1jO2RAB2Io9Rxv5X8XTe641g5kbICVu3EoquPb5jZQTm4OpddCqWJhYhHaxIMoRHXF2IL28XEd1a+ppqjMJpLshDd6Jn+7mbfObDvnfTIqp1x1YVvEpRkKHlj84LvwGgS22Ys4xXUoTrOEnQHFkCbexeVLB70Z0hvui4ZFHLcG9F4dlzgxGwrB+4beJbvhhSsAwtwwG1OIq5lFV79S72OKwX/QNlgTNpY2imRlpZBLb8bFEwGRRmLKqn25xUBY/hHYPQxbUFJD1oQ==","691f8ca61c6b4dcbb0aeb5f4","691f943fa18009026f9ac24b","index1","<span style='color:red'>Fail,<span style='color:red'>Fail,<span style='color:green'>Lift,<span style='color:green'>Lift,<span style='color:red'>Fail,<span style='color:red'>Fail,<span style='color:red'>Fail,<span style='color:red'>Fail,<span style='color:green'>Lift,<span style='color:red'>Fail,<span style='color:red'>Fail,<span style='color:green'>Lift","<span style='color:red'>Fail,<span style='color:red'>Fail,<span style='color:green'>Lift,<span style='color:green'>Lift,<span style='color:green'>Lift,<span style='color:green'>Lift,<span style='color:green'>Lift,<span style='color:red'>Fail,<span style='color:green'>Lift,<span style='color:green'>Lift,<span style='color:red'>Fail,<span style='color:green'>Lift","<span style='color:red'>Fail,<span style='color:green'>Lift,<span style='color:green'>Lift,<span style='color:red'>Fail,<span style='color:green'>Lift,<span style='color:green'>Lift","0,0,1,1,0,0,0,0,1,0,0,1","0,0,1,1,1,1,1,0,1,1,0,1","0,1,1,0,1,1",10,20,20,"","","<p style='font-size:30px'><b> New Contest! </b></p>","null","","",NA,5,"",NA,NA,NA,NA,NA,NA,NA,NA,NA,NA,NA,NA,NA,NA,NA,NA,NA,NA,NA,NA,NA,NA,NA,NA,NA,NA,NA,NA,NA,NA,NA,NA,NA,NA,NA,NA,NA,NA,NA,"",NA,NA,NA,NA,NA,NA,NA,NA,NA
"34657.39999999851","https://psyc-201.github.io/xiang2023/exp/index1.html?PROLIFIC_PID=REDACTED&STUDY_ID=691f8ca61c6b4dcbb0aeb5f4&SESSION_ID=691f943fa18009026f9ac24b","survey-html-form",36,1289928,"0.0-344.0","lghQ1M63pH92EQsn5Het1sB7HR6LnUYv6AAzu624Arn/3G+OFsdK8ORVDh3lgJl1GKUZkUsNd1jO2RAB2Io9Rxv5X8XTe641g5kbICVu3EoquPb5jZQTm4OpddCqWJhYhHaxIMoRHXF2IL28XEd1a+ppqjMJpLshDd6Jn+7mbfObDvnfTIqp1x1YVvEpRkKHlj84LvwGgS22Ys4xXUoTrOEnQHFkCbexeVLB70Z0hvui4ZFHLcG9F4dlzgxGwrB+4beJbvhhSsAwtwwG1OIq5lFV79S72OKwX/QNlgTNpY2imRlpZBLb8bFEwGRRmLKqn25xUBY/hHYPQxbUFJD1oQ==","691f8ca61c6b4dcbb0aeb5f4","691f943fa18009026f9ac24b","index1","<span style='color:red'>Fail,<span style='color:red'>Fail,<span style='color:green'>Lift,<span style='color:green'>Lift,<span style='color:red'>Fail,<span style='color:red'>Fail,<span style='color:red'>Fail,<span style='color:red'>Fail,<span style='color:green'>Lift,<span style='color:red'>Fail,<span style='color:red'>Fail,<span style='color:green'>Lift","<span style='color:red'>Fail,<span style='color:red'>Fail,<span style='color:green'>Lift,<span style='color:green'>Lift,<span style='color:green'>Lift,<span style='color:green'>Lift,<span style='color:green'>Lift,<span style='color:red'>Fail,<span style='color:green'>Lift,<span style='color:green'>Lift,<span style='color:red'>Fail,<span style='color:green'>Lift","<span style='color:red'>Fail,<span style='color:green'>Lift,<span style='color:green'>Lift,<span style='color:red'>Fail,<span style='color:green'>Lift,<span style='color:green'>Lift","0,0,1,1,0,0,0,0,1,0,0,1","0,0,1,1,1,1,1,0,1,1,0,1","0,1,1,0,1,1",10,20,20,"","","","","{""box1"":""7"",""box2"":""7"",""box3"":""90"",""box4"":""90""}","",NA,5,"round1_outcome",1,5,1,7,7,90,90,1,1,10,7,7,90,90,1,1,10,NA,NA,NA,NA,NA,NA,NA,NA,NA,NA,NA,NA,NA,NA,NA,NA,NA,NA,NA,NA,NA,NA,"",NA,NA,NA,NA,NA,NA,NA,NA,NA
"6609.5","https://psyc-201.github.io/xiang2023/exp/index1.html?PROLIFIC_PID=REDACTED&STUDY_ID=691f8ca61c6b4dcbb0aeb5f4&SESSION_ID=691f943fa18009026f9ac24b","survey-html-form",37,1296543,"0.0-345.0","lghQ1M63pH92EQsn5Het1sB7HR6LnUYv6AAzu624Arn/3G+OFsdK8ORVDh3lgJl1GKUZkUsNd1jO2RAB2Io9Rxv5X8XTe641g5kbICVu3EoquPb5jZQTm4OpddCqWJhYhHaxIMoRHXF2IL28XEd1a+ppqjMJpLshDd6Jn+7mbfObDvnfTIqp1x1YVvEpRkKHlj84LvwGgS22Ys4xXUoTrOEnQHFkCbexeVLB70Z0hvui4ZFHLcG9F4dlzgxGwrB+4beJbvhhSsAwtwwG1OIq5lFV79S72OKwX/QNlgTNpY2imRlpZBLb8bFEwGRRmLKqn25xUBY/hHYPQxbUFJD1oQ==","691f8ca61c6b4dcbb0aeb5f4","691f943fa18009026f9ac24b","index1","<span style='color:red'>Fail,<span style='color:red'>Fail,<span style='color:green'>Lift,<span style='color:green'>Lift,<span style='color:red'>Fail,<span style='color:red'>Fail,<span style='color:red'>Fail,<span style='color:red'>Fail,<span style='color:green'>Lift,<span style='color:red'>Fail,<span style='color:red'>Fail,<span style='color:green'>Lift","<span style='color:red'>Fail,<span style='color:red'>Fail,<span style='color:green'>Lift,<span style='color:green'>Lift,<span style='color:green'>Lift,<span style='color:green'>Lift,<span style='color:green'>Lift,<span style='color:red'>Fail,<span style='color:green'>Lift,<span style='color:green'>Lift,<span style='color:red'>Fail,<span style='color:green'>Lift","<span style='color:red'>Fail,<span style='color:green'>Lift,<span style='color:green'>Lift,<span style='color:red'>Fail,<span style='color:green'>Lift,<span style='color:green'>Lift","0,0,1,1,0,0,0,0,1,0,0,1","0,0,1,1,1,1,1,0,1,1,0,1","0,1,1,0,1,1",10,20,20,"","","","","{""box1"":""100"",""box2"":""100""}","",NA,5,"round2_ready",2,5,2,NA,NA,NA,NA,NA,NA,NA,NA,NA,NA,NA,NA,NA,NA,100,100,100,100,NA,NA,NA,NA,NA,NA,NA,NA,NA,NA,NA,NA,NA,NA,NA,NA,NA,NA,"",NA,NA,NA,NA,NA,NA,NA,NA,NA
"10211","https://psyc-201.github.io/xiang2023/exp/index1.html?PROLIFIC_PID=REDACTED&STUDY_ID=691f8ca61c6b4dcbb0aeb5f4&SESSION_ID=691f943fa18009026f9ac24b","survey-html-form",38,1306760,"0.0-346.0","lghQ1M63pH92EQsn5Het1sB7HR6LnUYv6AAzu624Arn/3G+OFsdK8ORVDh3lgJl1GKUZkUsNd1jO2RAB2Io9Rxv5X8XTe641g5kbICVu3EoquPb5jZQTm4OpddCqWJhYhHaxIMoRHXF2IL28XEd1a+ppqjMJpLshDd6Jn+7mbfObDvnfTIqp1x1YVvEpRkKHlj84LvwGgS22Ys4xXUoTrOEnQHFkCbexeVLB70Z0hvui4ZFHLcG9F4dlzgxGwrB+4beJbvhhSsAwtwwG1OIq5lFV79S72OKwX/QNlgTNpY2imRlpZBLb8bFEwGRRmLKqn25xUBY/hHYPQxbUFJD1oQ==","691f8ca61c6b4dcbb0aeb5f4","691f943fa18009026f9ac24b","index1","<span style='color:red'>Fail,<span style='color:red'>Fail,<span style='color:green'>Lift,<span style='color:green'>Lift,<span style='color:red'>Fail,<span style='color:red'>Fail,<span style='color:red'>Fail,<span style='color:red'>Fail,<span style='color:green'>Lift,<span style='color:red'>Fail,<span style='color:red'>Fail,<span style='color:green'>Lift","<span style='color:red'>Fail,<span style='color:red'>Fail,<span style='color:green'>Lift,<span style='color:green'>Lift,<span style='color:green'>Lift,<span style='color:green'>Lift,<span style='color:green'>Lift,<span style='color:red'>Fail,<span style='color:green'>Lift,<span style='color:green'>Lift,<span style='color:red'>Fail,<span style='color:green'>Lift","<span style='color:red'>Fail,<span style='color:green'>Lift,<span style='color:green'>Lift,<span style='color:red'>Fail,<span style='color:green'>Lift,<span style='color:green'>Lift","0,0,1,1,0,0,0,0,1,0,0,1","0,0,1,1,1,1,1,0,1,1,0,1","0,1,1,0,1,1",10,20,20,"","","","","{""box1"":""8"",""box2"":""8"",""box3"":""80"",""box4"":""80""}","",NA,5,"round2_outcome",3,5,2,8,8,80,80,1,1,20,NA,NA,NA,NA,NA,NA,NA,NA,NA,NA,NA,8,8,80,80,1,1,20,NA,NA,NA,NA,NA,NA,NA,NA,NA,NA,NA,"",NA,NA,NA,NA,NA,NA,NA,NA,NA
"4471.699999999255","https://psyc-201.github.io/xiang2023/exp/index1.html?PROLIFIC_PID=REDACTED&STUDY_ID=691f8ca61c6b4dcbb0aeb5f4&SESSION_ID=691f943fa18009026f9ac24b","survey-html-form",39,1311236,"0.0-347.0","lghQ1M63pH92EQsn5Het1sB7HR6LnUYv6AAzu624Arn/3G+OFsdK8ORVDh3lgJl1GKUZkUsNd1jO2RAB2Io9Rxv5X8XTe641g5kbICVu3EoquPb5jZQTm4OpddCqWJhYhHaxIMoRHXF2IL28XEd1a+ppqjMJpLshDd6Jn+7mbfObDvnfTIqp1x1YVvEpRkKHlj84LvwGgS22Ys4xXUoTrOEnQHFkCbexeVLB70Z0hvui4ZFHLcG9F4dlzgxGwrB+4beJbvhhSsAwtwwG1OIq5lFV79S72OKwX/QNlgTNpY2imRlpZBLb8bFEwGRRmLKqn25xUBY/hHYPQxbUFJD1oQ==","691f8ca61c6b4dcbb0aeb5f4","691f943fa18009026f9ac24b","index1","<span style='color:red'>Fail,<span style='color:red'>Fail,<span style='color:green'>Lift,<span style='color:green'>Lift,<span style='color:red'>Fail,<span style='color:red'>Fail,<span style='color:red'>Fail,<span style='color:red'>Fail,<span style='color:green'>Lift,<span style='color:red'>Fail,<span style='color:red'>Fail,<span style='color:green'>Lift","<span style='color:red'>Fail,<span style='color:red'>Fail,<span style='color:green'>Lift,<span style='color:green'>Lift,<span style='color:green'>Lift,<span style='color:green'>Lift,<span style='color:green'>Lift,<span style='color:red'>Fail,<span style='color:green'>Lift,<span style='color:green'>Lift,<span style='color:red'>Fail,<span style='color:green'>Lift","<span style='color:red'>Fail,<span style='color:green'>Lift,<span style='color:green'>Lift,<span style='color:red'>Fail,<span style='color:green'>Lift,<span style='color:green'>Lift","0,0,1,1,0,0,0,0,1,0,0,1","0,0,1,1,1,1,1,0,1,1,0,1","0,1,1,0,1,1",10,20,20,"","","","","{""box1"":""100""}","",NA,5,"round3_ready",4,5,3,NA,NA,NA,NA,NA,NA,NA,NA,NA,NA,NA,NA,NA,NA,100,100,NA,NA,NA,NA,NA,NA,NA,NA,NA,100,100,NA,NA,NA,NA,NA,NA,NA,NA,NA,"",NA,NA,NA,NA,NA,NA,NA,NA,NA
"10895.800000000745","https://psyc-201.github.io/xiang2023/exp/index1.html?PROLIFIC_PID=REDACTED&STUDY_ID=691f8ca61c6b4dcbb0aeb5f4&SESSION_ID=691f943fa18009026f9ac24b","survey-html-form",40,1322140,"0.0-348.0-0.0","lghQ1M63pH92EQsn5Het1sB7HR6LnUYv6AAzu624Arn/3G+OFsdK8ORVDh3lgJl1GKUZkUsNd1jO2RAB2Io9Rxv5X8XTe641g5kbICVu3EoquPb5jZQTm4OpddCqWJhYhHaxIMoRHXF2IL28XEd1a+ppqjMJpLshDd6Jn+7mbfObDvnfTIqp1x1YVvEpRkKHlj84LvwGgS22Ys4xXUoTrOEnQHFkCbexeVLB70Z0hvui4ZFHLcG9F4dlzgxGwrB+4beJbvhhSsAwtwwG1OIq5lFV79S72OKwX/QNlgTNpY2imRlpZBLb8bFEwGRRmLKqn25xUBY/hHYPQxbUFJD1oQ==","691f8ca61c6b4dcbb0aeb5f4","691f943fa18009026f9ac24b","index1","<span style='color:red'>Fail,<span style='color:red'>Fail,<span style='color:green'>Lift,<span style='color:green'>Lift,<span style='color:red'>Fail,<span style='color:red'>Fail,<span style='color:red'>Fail,<span style='color:red'>Fail,<span style='color:green'>Lift,<span style='color:red'>Fail,<span style='color:red'>Fail,<span style='color:green'>Lift","<span style='color:red'>Fail,<span style='color:red'>Fail,<span style='color:green'>Lift,<span style='color:green'>Lift,<span style='color:green'>Lift,<span style='color:green'>Lift,<span style='color:green'>Lift,<span style='color:red'>Fail,<span style='color:green'>Lift,<span style='color:green'>Lift,<span style='color:red'>Fail,<span style='color:green'>Lift","<span style='color:red'>Fail,<span style='color:green'>Lift,<span style='color:green'>Lift,<span style='color:red'>Fail,<span style='color:green'>Lift,<span style='color:green'>Lift","0,0,1,1,0,0,0,0,1,0,0,1","0,0,1,1,1,1,1,0,1,1,0,1","0,1,1,0,1,1",10,20,20,"","","","","{""box1"":""8"",""box2"":""8"",""box3"":""80"",""box4"":""80""}","",NA,6,"round3_lift",5,5,3,8,8,80,80,1,1,20,NA,NA,NA,NA,NA,NA,NA,NA,NA,NA,NA,NA,NA,NA,NA,NA,NA,NA,NA,NA,8,8,80,80,1,1,20,NA,NA,"",NA,NA,NA,NA,NA,NA,NA,NA,NA
"null","https://psyc-201.github.io/xiang2023/exp/index1.html?PROLIFIC_PID=REDACTED&STUDY_ID=691f8ca61c6b4dcbb0aeb5f4&SESSION_ID=691f943fa18009026f9ac24b","html-keyboard-response",41,1325142,"0.0-352.0","lghQ1M63pH92EQsn5Het1sB7HR6LnUYv6AAzu624Arn/3G+OFsdK8ORVDh3lgJl1GKUZkUsNd1jO2RAB2Io9Rxv5X8XTe641g5kbICVu3EoquPb5jZQTm4OpddCqWJhYhHaxIMoRHXF2IL28XEd1a+ppqjMJpLshDd6Jn+7mbfObDvnfTIqp1x1YVvEpRkKHlj84LvwGgS22Ys4xXUoTrOEnQHFkCbexeVLB70Z0hvui4ZFHLcG9F4dlzgxGwrB+4beJbvhhSsAwtwwG1OIq5lFV79S72OKwX/QNlgTNpY2imRlpZBLb8bFEwGRRmLKqn25xUBY/hHYPQxbUFJD1oQ==","691f8ca61c6b4dcbb0aeb5f4","691f943fa18009026f9ac24b","index1","<span style='color:red'>Fail,<span style='color:red'>Fail,<span style='color:green'>Lift,<span style='color:green'>Lift,<span style='color:red'>Fail,<span style='color:red'>Fail,<span style='color:red'>Fail,<span style='color:red'>Fail,<span style='color:green'>Lift,<span style='color:red'>Fail,<span style='color:red'>Fail,<span style='color:green'>Lift","<span style='color:red'>Fail,<span style='color:red'>Fail,<span style='color:green'>Lift,<span style='color:green'>Lift,<span style='color:green'>Lift,<span style='color:green'>Lift,<span style='color:green'>Lift,<span style='color:red'>Fail,<span style='color:green'>Lift,<span style='color:green'>Lift,<span style='color:red'>Fail,<span style='color:green'>Lift","<span style='color:red'>Fail,<span style='color:green'>Lift,<span style='color:green'>Lift,<span style='color:red'>Fail,<span style='color:green'>Lift,<span style='color:green'>Lift","0,0,1,1,0,0,0,0,1,0,0,1","0,0,1,1,1,1,1,0,1,1,0,1","0,1,1,0,1,1",10,20,20,"","","<p style='font-size:30px'><b> New Contest! </b></p>","null","","",NA,6,"",NA,NA,NA,NA,NA,NA,NA,NA,NA,NA,NA,NA,NA,NA,NA,NA,NA,NA,NA,NA,NA,NA,NA,NA,NA,NA,NA,NA,NA,NA,NA,NA,NA,NA,NA,NA,NA,NA,NA,"",NA,NA,NA,NA,NA,NA,NA,NA,NA
"10120.10000000149","https://psyc-201.github.io/xiang2023/exp/index1.html?PROLIFIC_PID=REDACTED&STUDY_ID=691f8ca61c6b4dcbb0aeb5f4&SESSION_ID=691f943fa18009026f9ac24b","survey-html-form",42,1335266,"0.0-353.0","lghQ1M63pH92EQsn5Het1sB7HR6LnUYv6AAzu624Arn/3G+OFsdK8ORVDh3lgJl1GKUZkUsNd1jO2RAB2Io9Rxv5X8XTe641g5kbICVu3EoquPb5jZQTm4OpddCqWJhYhHaxIMoRHXF2IL28XEd1a+ppqjMJpLshDd6Jn+7mbfObDvnfTIqp1x1YVvEpRkKHlj84LvwGgS22Ys4xXUoTrOEnQHFkCbexeVLB70Z0hvui4ZFHLcG9F4dlzgxGwrB+4beJbvhhSsAwtwwG1OIq5lFV79S72OKwX/QNlgTNpY2imRlpZBLb8bFEwGRRmLKqn25xUBY/hHYPQxbUFJD1oQ==","691f8ca61c6b4dcbb0aeb5f4","691f943fa18009026f9ac24b","index1","<span style='color:red'>Fail,<span style='color:red'>Fail,<span style='color:green'>Lift,<span style='color:green'>Lift,<span style='color:red'>Fail,<span style='color:red'>Fail,<span style='color:red'>Fail,<span style='color:red'>Fail,<span style='color:green'>Lift,<span style='color:red'>Fail,<span style='color:red'>Fail,<span style='color:green'>Lift","<span style='color:red'>Fail,<span style='color:red'>Fail,<span style='color:green'>Lift,<span style='color:green'>Lift,<span style='color:green'>Lift,<span style='color:green'>Lift,<span style='color:green'>Lift,<span style='color:red'>Fail,<span style='color:green'>Lift,<span style='color:green'>Lift,<span style='color:red'>Fail,<span style='color:green'>Lift","<span style='color:red'>Fail,<span style='color:green'>Lift,<span style='color:green'>Lift,<span style='color:red'>Fail,<span style='color:green'>Lift,<span style='color:green'>Lift","0,0,1,1,0,0,0,0,1,0,0,1","0,0,1,1,1,1,1,0,1,1,0,1","0,1,1,0,1,1",10,20,20,"","","","","{""box1"":""4"",""box2"":""4""}","",NA,6,"round1_outcome",1,6,1,4,4,NA,NA,0,0,10,4,4,NA,NA,0,0,10,NA,NA,NA,NA,NA,NA,NA,NA,NA,NA,NA,NA,NA,NA,NA,NA,NA,NA,NA,NA,NA,NA,"",NA,NA,NA,NA,NA,NA,NA,NA,NA
"4540.699999999255","https://psyc-201.github.io/xiang2023/exp/index1.html?PROLIFIC_PID=REDACTED&STUDY_ID=691f8ca61c6b4dcbb0aeb5f4&SESSION_ID=691f943fa18009026f9ac24b","survey-html-form",43,1339811,"0.0-354.0","lghQ1M63pH92EQsn5Het1sB7HR6LnUYv6AAzu624Arn/3G+OFsdK8ORVDh3lgJl1GKUZkUsNd1jO2RAB2Io9Rxv5X8XTe641g5kbICVu3EoquPb5jZQTm4OpddCqWJhYhHaxIMoRHXF2IL28XEd1a+ppqjMJpLshDd6Jn+7mbfObDvnfTIqp1x1YVvEpRkKHlj84LvwGgS22Ys4xXUoTrOEnQHFkCbexeVLB70Z0hvui4ZFHLcG9F4dlzgxGwrB+4beJbvhhSsAwtwwG1OIq5lFV79S72OKwX/QNlgTNpY2imRlpZBLb8bFEwGRRmLKqn25xUBY/hHYPQxbUFJD1oQ==","691f8ca61c6b4dcbb0aeb5f4","691f943fa18009026f9ac24b","index1","<span style='color:red'>Fail,<span style='color:red'>Fail,<span style='color:green'>Lift,<span style='color:green'>Lift,<span style='color:red'>Fail,<span style='color:red'>Fail,<span style='color:red'>Fail,<span style='color:red'>Fail,<span style='color:green'>Lift,<span style='color:red'>Fail,<span style='color:red'>Fail,<span style='color:green'>Lift","<span style='color:red'>Fail,<span style='color:red'>Fail,<span style='color:green'>Lift,<span style='color:green'>Lift,<span style='color:green'>Lift,<span style='color:green'>Lift,<span style='color:green'>Lift,<span style='color:red'>Fail,<span style='color:green'>Lift,<span style='color:green'>Lift,<span style='color:red'>Fail,<span style='color:green'>Lift","<span style='color:red'>Fail,<span style='color:green'>Lift,<span style='color:green'>Lift,<span style='color:red'>Fail,<span style='color:green'>Lift,<span style='color:green'>Lift","0,0,1,1,0,0,0,0,1,0,0,1","0,0,1,1,1,1,1,0,1,1,0,1","0,1,1,0,1,1",10,20,20,"","","","","{""box1"":""50"",""box2"":""50""}","",NA,6,"round2_ready",2,6,2,NA,NA,NA,NA,NA,NA,NA,NA,NA,NA,NA,NA,NA,NA,50,50,50,50,NA,NA,NA,NA,NA,NA,NA,NA,NA,NA,NA,NA,NA,NA,NA,NA,NA,NA,"",NA,NA,NA,NA,NA,NA,NA,NA,NA
"5383.599999997765","https://psyc-201.github.io/xiang2023/exp/index1.html?PROLIFIC_PID=REDACTED&STUDY_ID=691f8ca61c6b4dcbb0aeb5f4&SESSION_ID=691f943fa18009026f9ac24b","survey-html-form",44,1345199,"0.0-355.0","lghQ1M63pH92EQsn5Het1sB7HR6LnUYv6AAzu624Arn/3G+OFsdK8ORVDh3lgJl1GKUZkUsNd1jO2RAB2Io9Rxv5X8XTe641g5kbICVu3EoquPb5jZQTm4OpddCqWJhYhHaxIMoRHXF2IL28XEd1a+ppqjMJpLshDd6Jn+7mbfObDvnfTIqp1x1YVvEpRkKHlj84LvwGgS22Ys4xXUoTrOEnQHFkCbexeVLB70Z0hvui4ZFHLcG9F4dlzgxGwrB+4beJbvhhSsAwtwwG1OIq5lFV79S72OKwX/QNlgTNpY2imRlpZBLb8bFEwGRRmLKqn25xUBY/hHYPQxbUFJD1oQ==","691f8ca61c6b4dcbb0aeb5f4","691f943fa18009026f9ac24b","index1","<span style='color:red'>Fail,<span style='color:red'>Fail,<span style='color:green'>Lift,<span style='color:green'>Lift,<span style='color:red'>Fail,<span style='color:red'>Fail,<span style='color:red'>Fail,<span style='color:red'>Fail,<span style='color:green'>Lift,<span style='color:red'>Fail,<span style='color:red'>Fail,<span style='color:green'>Lift","<span style='color:red'>Fail,<span style='color:red'>Fail,<span style='color:green'>Lift,<span style='color:green'>Lift,<span style='color:green'>Lift,<span style='color:green'>Lift,<span style='color:green'>Lift,<span style='color:red'>Fail,<span style='color:green'>Lift,<span style='color:green'>Lift,<span style='color:red'>Fail,<span style='color:green'>Lift","<span style='color:red'>Fail,<span style='color:green'>Lift,<span style='color:green'>Lift,<span style='color:red'>Fail,<span style='color:green'>Lift,<span style='color:green'>Lift","0,0,1,1,0,0,0,0,1,0,0,1","0,0,1,1,1,1,1,0,1,1,0,1","0,1,1,0,1,1",10,20,20,"","","","","{""box1"":""3"",""box2"":""3""}","",NA,6,"round2_outcome",3,6,2,3,3,NA,NA,0,0,20,NA,NA,NA,NA,NA,NA,NA,NA,NA,NA,NA,3,3,NA,NA,0,0,20,NA,NA,NA,NA,NA,NA,NA,NA,NA,NA,NA,"",NA,NA,NA,NA,NA,NA,NA,NA,NA
"5170.79999999702","https://psyc-201.github.io/xiang2023/exp/index1.html?PROLIFIC_PID=REDACTED&STUDY_ID=691f8ca61c6b4dcbb0aeb5f4&SESSION_ID=691f943fa18009026f9ac24b","survey-html-form",45,1350374,"0.0-356.0","lghQ1M63pH92EQsn5Het1sB7HR6LnUYv6AAzu624Arn/3G+OFsdK8ORVDh3lgJl1GKUZkUsNd1jO2RAB2Io9Rxv5X8XTe641g5kbICVu3EoquPb5jZQTm4OpddCqWJhYhHaxIMoRHXF2IL28XEd1a+ppqjMJpLshDd6Jn+7mbfObDvnfTIqp1x1YVvEpRkKHlj84LvwGgS22Ys4xXUoTrOEnQHFkCbexeVLB70Z0hvui4ZFHLcG9F4dlzgxGwrB+4beJbvhhSsAwtwwG1OIq5lFV79S72OKwX/QNlgTNpY2imRlpZBLb8bFEwGRRmLKqn25xUBY/hHYPQxbUFJD1oQ==","691f8ca61c6b4dcbb0aeb5f4","691f943fa18009026f9ac24b","index1","<span style='color:red'>Fail,<span style='color:red'>Fail,<span style='color:green'>Lift,<span style='color:green'>Lift,<span style='color:red'>Fail,<span style='color:red'>Fail,<span style='color:red'>Fail,<span style='color:red'>Fail,<span style='color:green'>Lift,<span style='color:red'>Fail,<span style='color:red'>Fail,<span style='color:green'>Lift","<span style='color:red'>Fail,<span style='color:red'>Fail,<span style='color:green'>Lift,<span style='color:green'>Lift,<span style='color:green'>Lift,<span style='color:green'>Lift,<span style='color:green'>Lift,<span style='color:red'>Fail,<span style='color:green'>Lift,<span style='color:green'>Lift,<span style='color:red'>Fail,<span style='color:green'>Lift","<span style='color:red'>Fail,<span style='color:green'>Lift,<span style='color:green'>Lift,<span style='color:red'>Fail,<span style='color:green'>Lift,<span style='color:green'>Lift","0,0,1,1,0,0,0,0,1,0,0,1","0,0,1,1,1,1,1,0,1,1,0,1","0,1,1,0,1,1",10,20,20,"","","","","{""box1"":""60""}","",NA,6,"round3_ready",4,6,3,NA,NA,NA,NA,NA,NA,NA,NA,NA,NA,NA,NA,NA,NA,60,60,NA,NA,NA,NA,NA,NA,NA,NA,NA,60,60,NA,NA,NA,NA,NA,NA,NA,NA,NA,"",NA,NA,NA,NA,NA,NA,NA,NA,NA
"5560","https://psyc-201.github.io/xiang2023/exp/index1.html?PROLIFIC_PID=REDACTED&STUDY_ID=691f8ca61c6b4dcbb0aeb5f4&SESSION_ID=691f943fa18009026f9ac24b","survey-html-form",46,1355944,"0.0-358.0-0.0","lghQ1M63pH92EQsn5Het1sB7HR6LnUYv6AAzu624Arn/3G+OFsdK8ORVDh3lgJl1GKUZkUsNd1jO2RAB2Io9Rxv5X8XTe641g5kbICVu3EoquPb5jZQTm4OpddCqWJhYhHaxIMoRHXF2IL28XEd1a+ppqjMJpLshDd6Jn+7mbfObDvnfTIqp1x1YVvEpRkKHlj84LvwGgS22Ys4xXUoTrOEnQHFkCbexeVLB70Z0hvui4ZFHLcG9F4dlzgxGwrB+4beJbvhhSsAwtwwG1OIq5lFV79S72OKwX/QNlgTNpY2imRlpZBLb8bFEwGRRmLKqn25xUBY/hHYPQxbUFJD1oQ==","691f8ca61c6b4dcbb0aeb5f4","691f943fa18009026f9ac24b","index1","<span style='color:red'>Fail,<span style='color:red'>Fail,<span style='color:green'>Lift,<span style='color:green'>Lift,<span style='color:red'>Fail,<span style='color:red'>Fail,<span style='color:red'>Fail,<span style='color:red'>Fail,<span style='color:green'>Lift,<span style='color:red'>Fail,<span style='color:red'>Fail,<span style='color:green'>Lift","<span style='color:red'>Fail,<span style='color:red'>Fail,<span style='color:green'>Lift,<span style='color:green'>Lift,<span style='color:green'>Lift,<span style='color:green'>Lift,<span style='color:green'>Lift,<span style='color:red'>Fail,<span style='color:green'>Lift,<span style='color:green'>Lift,<span style='color:red'>Fail,<span style='color:green'>Lift","<span style='color:red'>Fail,<span style='color:green'>Lift,<span style='color:green'>Lift,<span style='color:red'>Fail,<span style='color:green'>Lift,<span style='color:green'>Lift","0,0,1,1,0,0,0,0,1,0,0,1","0,0,1,1,1,1,1,0,1,1,0,1","0,1,1,0,1,1",10,20,20,"","","","","{""box1"":""2"",""box2"":""2"",""box3"":""999"",""box4"":""999""}","",NA,6,"round3_fail",5,6,3,2,2,NA,NA,0,0,20,NA,NA,NA,NA,NA,NA,NA,NA,NA,NA,NA,NA,NA,NA,NA,NA,NA,NA,NA,NA,2,2,NA,NA,0,0,20,1,1,"",NA,NA,NA,NA,NA,NA,NA,NA,NA
"68768.10000000149","https://psyc-201.github.io/xiang2023/exp/index1.html?PROLIFIC_PID=REDACTED&STUDY_ID=691f8ca61c6b4dcbb0aeb5f4&SESSION_ID=691f943fa18009026f9ac24b","survey-text",47,1424719,"0.0-361.0","lghQ1M63pH92EQsn5Het1sB7HR6LnUYv6AAzu624Arn/3G+OFsdK8ORVDh3lgJl1GKUZkUsNd1jO2RAB2Io9Rxv5X8XTe641g5kbICVu3EoquPb5jZQTm4OpddCqWJhYhHaxIMoRHXF2IL28XEd1a+ppqjMJpLshDd6Jn+7mbfObDvnfTIqp1x1YVvEpRkKHlj84LvwGgS22Ys4xXUoTrOEnQHFkCbexeVLB70Z0hvui4ZFHLcG9F4dlzgxGwrB+4beJbvhhSsAwtwwG1OIq5lFV79S72OKwX/QNlgTNpY2imRlpZBLb8bFEwGRRmLKqn25xUBY/hHYPQxbUFJD1oQ==","691f8ca61c6b4dcbb0aeb5f4","691f943fa18009026f9ac24b","index1","<span style='color:red'>Fail,<span style='color:red'>Fail,<span style='color:green'>Lift,<span style='color:green'>Lift,<span style='color:red'>Fail,<span style='color:red'>Fail,<span style='color:red'>Fail,<span style='color:red'>Fail,<span style='color:green'>Lift,<span style='color:red'>Fail,<span style='color:red'>Fail,<span style='color:green'>Lift","<span style='color:red'>Fail,<span style='color:red'>Fail,<span style='color:green'>Lift,<span style='color:green'>Lift,<span style='color:green'>Lift,<span style='color:green'>Lift,<span style='color:green'>Lift,<span style='color:red'>Fail,<span style='color:green'>Lift,<span style='color:green'>Lift,<span style='color:red'>Fail,<span style='color:green'>Lift","<span style='color:red'>Fail,<span style='color:green'>Lift,<span style='color:green'>Lift,<span style='color:red'>Fail,<span style='color:green'>Lift,<span style='color:green'>Lift","0,0,1,1,0,0,0,0,1,0,0,1","0,0,1,1,1,1,1,0,1,1,0,1","0,1,1,0,1,1",10,20,20,"","","","","{""Q0"":""I made guesses on strength level of contestants based on boxes they could lift and based on the prize amount of the boxes they could lift""}","",NA,NA,"",NA,NA,NA,NA,NA,NA,NA,NA,NA,NA,NA,NA,NA,NA,NA,NA,NA,NA,NA,NA,NA,NA,NA,NA,NA,NA,NA,NA,NA,NA,NA,NA,NA,NA,NA,NA,NA,NA,NA,"",NA,NA,NA,NA,NA,NA,NA,NA,NA
"6849.60000000149","https://psyc-201.github.io/xiang2023/exp/index1.html?PROLIFIC_PID=REDACTED&STUDY_ID=691f8ca61c6b4dcbb0aeb5f4&SESSION_ID=691f943fa18009026f9ac24b","survey-text",48,1431576,"0.0-362.0","lghQ1M63pH92EQsn5Het1sB7HR6LnUYv6AAzu624Arn/3G+OFsdK8ORVDh3lgJl1GKUZkUsNd1jO2RAB2Io9Rxv5X8XTe641g5kbICVu3EoquPb5jZQTm4OpddCqWJhYhHaxIMoRHXF2IL28XEd1a+ppqjMJpLshDd6Jn+7mbfObDvnfTIqp1x1YVvEpRkKHlj84LvwGgS22Ys4xXUoTrOEnQHFkCbexeVLB70Z0hvui4ZFHLcG9F4dlzgxGwrB+4beJbvhhSsAwtwwG1OIq5lFV79S72OKwX/QNlgTNpY2imRlpZBLb8bFEwGRRmLKqn25xUBY/hHYPQxbUFJD1oQ==","691f8ca61c6b4dcbb0aeb5f4","691f943fa18009026f9ac24b","index1","<span style='color:red'>Fail,<span style='color:red'>Fail,<span style='color:green'>Lift,<span style='color:green'>Lift,<span style='color:red'>Fail,<span style='color:red'>Fail,<span style='color:red'>Fail,<span style='color:red'>Fail,<span style='color:green'>Lift,<span style='color:red'>Fail,<span style='color:red'>Fail,<span style='color:green'>Lift","<span style='color:red'>Fail,<span style='color:red'>Fail,<span style='color:green'>Lift,<span style='color:green'>Lift,<span style='color:green'>Lift,<span style='color:green'>Lift,<span style='color:green'>Lift,<span style='color:red'>Fail,<span style='color:green'>Lift,<span style='color:green'>Lift,<span style='color:red'>Fail,<span style='color:green'>Lift","<span style='color:red'>Fail,<span style='color:green'>Lift,<span style='color:green'>Lift,<span style='color:red'>Fail,<span style='color:green'>Lift,<span style='color:green'>Lift","0,0,1,1,0,0,0,0,1,0,0,1","0,0,1,1,1,1,1,0,1,1,0,1","0,1,1,0,1,1",10,20,20,"","","","","{""Q0"":""none""}","",NA,NA,"",NA,NA,NA,NA,NA,NA,NA,NA,NA,NA,NA,NA,NA,NA,NA,NA,NA,NA,NA,NA,NA,NA,NA,NA,NA,NA,NA,NA,NA,NA,NA,NA,NA,NA,NA,NA,NA,NA,NA,"[{""event"":""focus"",""trial"":0,""time"":22939},{""event"":""fullscreenenter"",""trial"":1,""time"":29723},{""event"":""fullscreenexit"",""trial"":2,""time"":54829},{""event"":""blur"",""trial"":2,""time"":56450},{""event"":""focus"",""trial"":2,""time"":463262},{""event"":""blur"",""trial"":2,""time"":468927},{""event"":""focus"",""trial"":2,""time"":471380},{""event"":""blur"",""trial"":2,""time"":528578},{""event"":""focus"",""trial"":2,""time"":530024},{""event"":""blur"",""trial"":2,""time"":570265},{""event"":""focus"",""trial"":2,""time"":571578},{""event"":""blur"",""trial"":2,""time"":591881},{""event"":""focus"",""trial"":2,""time"":593428}]",1,3,NA,85,1,0.85,NA,NA,NA
"3991.89999999851","https://psyc-201.github.io/xiang2023/exp/index1.html?PROLIFIC_PID=REDACTED&STUDY_ID=691f8ca61c6b4dcbb0aeb5f4&SESSION_ID=691f943fa18009026f9ac24b","html-button-response",49,1435572,"0.0-363.0","lghQ1M63pH92EQsn5Het1sB7HR6LnUYv6AAzu624Arn/3G+OFsdK8ORVDh3lgJl1GKUZkUsNd1jO2RAB2Io9Rxv5X8XTe641g5kbICVu3EoquPb5jZQTm4OpddCqWJhYhHaxIMoRHXF2IL28XEd1a+ppqjMJpLshDd6Jn+7mbfObDvnfTIqp1x1YVvEpRkKHlj84LvwGgS22Ys4xXUoTrOEnQHFkCbexeVLB70Z0hvui4ZFHLcG9F4dlzgxGwrB+4beJbvhhSsAwtwwG1OIq5lFV79S72OKwX/QNlgTNpY2imRlpZBLb8bFEwGRRmLKqn25xUBY/hHYPQxbUFJD1oQ==","691f8ca61c6b4dcbb0aeb5f4","691f943fa18009026f9ac24b","index1","<span style='color:red'>Fail,<span style='color:red'>Fail,<span style='color:green'>Lift,<span style='color:green'>Lift,<span style='color:red'>Fail,<span style='color:red'>Fail,<span style='color:red'>Fail,<span style='color:red'>Fail,<span style='color:green'>Lift,<span style='color:red'>Fail,<span style='color:red'>Fail,<span style='color:green'>Lift","<span style='color:red'>Fail,<span style='color:red'>Fail,<span style='color:green'>Lift,<span style='color:green'>Lift,<span style='color:green'>Lift,<span style='color:green'>Lift,<span style='color:green'>Lift,<span style='color:red'>Fail,<span style='color:green'>Lift,<span style='color:green'>Lift,<span style='color:red'>Fail,<span style='color:green'>Lift","<span style='color:red'>Fail,<span style='color:green'>Lift,<span style='color:green'>Lift,<span style='color:red'>Fail,<span style='color:green'>Lift,<span style='color:green'>Lift","0,0,1,1,0,0,0,0,1,0,0,1","0,0,1,1,1,1,1,0,1,1,0,1","0,1,1,0,1,1",10,20,20,"","","<p> We randomly picked <b>Contest 1, Round 3</b> to calculate your bonus. </p><p> The outcome of Contestant A and B on that round is <span style='color:green'>Lift</span>. </p><p> The probability you entered was 85. </p><p><b> You won a bonus of $0.85!</b></p><p> IMPORTANT: Please click 'Next' to complete the game. </p>","","","",0,NA,"",NA,NA,NA,NA,NA,NA,NA,NA,NA,NA,NA,NA,NA,NA,NA,NA,NA,NA,NA,NA,NA,NA,NA,NA,NA,NA,NA,NA,NA,NA,NA,NA,NA,NA,NA,NA,NA,NA,NA,"",NA,NA,NA,NA,NA,NA,2,1,NA
