"rt","url","trial_type","trial_index","time_elapsed","internal_node_id","encryptedProlificId","studyId","sessionId","expIndex","round1_outcomes","round2_outcomes","round3_outcomes","round1_o","round2_o","round3_o","round1_reward","round2_reward","round3_reward","success","view_history","stimulus","key_press","responses","question_order","button_pressed","j","Stage","stage","contest","round","strength_a","strength_b","effort_a","effort_b","outcome_a","outcome_b","reward","r1_strength_a","r1_strength_b","r1_effort_a","r1_effort_b","r1_outcome_a","r1_outcome_b","r1_reward","probability_a","probability_b","r2_prob_a","r2_prob_b","r2_strength_a","r2_strength_b","r2_effort_a","r2_effort_b","r2_outcome_a","r2_outcome_b","r2_reward","r3_prob_a","r3_prob_b","attention_check","count","r3_strength_a","r3_strength_b","r3_outcome_a","r3_outcome_b","r3_reward","r3_effort_a","r3_effort_b","screen","pick_contest","pick_round","pick_side","trial_probability","trial_outcome","bonus","attention_sum","attention","datapipe_meta.attributes.date_modified"
"4924.599999964237","https://psyc-201.github.io/xiang2023/exp/index1.html?PROLIFIC_PID=REDACTED&STUDY_ID=691f8ca61c6b4dcbb0aeb5f4&SESSION_ID=691fb4b3ae1a5d337997c9c2","external-html",0,5019,"0.0-0.0","mpg80/HbJ7+yFYv9pXWENPkDDnI4FgA0DOYjPZ11/C5zrmARfUBHLp3RXowj8q5Q1lf0Ph/kAUa344ez0/RYytf8R1o530xuNmeCLcSQWsRpNjHopn6D070gWzV2qd1ZxRcyaSK7FXQTeQyah40wsdbyL1klxLgse5VDXLR9vJ+yaom1PvVxBhWK0dTDBrj4WlDlR6773mp/gfESLxglPPUW+2bX+kwb/per1+rOtXEhfFBFpw2z83a0ZQSWTZ59vskSUHxSZPCYBB3u5IzVd/n7ncm/NbEHiUKr+4s6DlMtjZDQGPftLo1lltcSu3bNjm7SEM6afmfvGor4ZNyDhg==","691f8ca61c6b4dcbb0aeb5f4","691fb4b3ae1a5d337997c9c2","index1","<span style='color:red'>Fail,<span style='color:red'>Fail,<span style='color:green'>Lift,<span style='color:green'>Lift,<span style='color:red'>Fail,<span style='color:red'>Fail,<span style='color:red'>Fail,<span style='color:red'>Fail,<span style='color:red'>Fail,<span style='color:green'>Lift,<span style='color:red'>Fail,<span style='color:green'>Lift","<span style='color:red'>Fail,<span style='color:red'>Fail,<span style='color:green'>Lift,<span style='color:green'>Lift,<span style='color:green'>Lift,<span style='color:green'>Lift,<span style='color:red'>Fail,<span style='color:green'>Lift,<span style='color:green'>Lift,<span style='color:green'>Lift,<span style='color:red'>Fail,<span style='color:green'>Lift","<span style='color:red'>Fail,<span style='color:green'>Lift,<span style='color:green'>Lift,<span style='color:red'>Fail,<span style='color:green'>Lift,<span style='color:green'>Lift","0,0,1,1,0,0,0,0,0,1,0,1","0,0,1,1,1,1,0,1,1,1,0,1","0,1,1,0,1,1",10,20,20,"","","","","","",NA,NA,"",NA,NA,NA,NA,NA,NA,NA,NA,NA,NA,NA,NA,NA,NA,NA,NA,NA,NA,NA,NA,NA,NA,NA,NA,NA,NA,NA,NA,NA,NA,NA,NA,NA,NA,NA,NA,NA,NA,NA,"",NA,NA,NA,NA,NA,NA,NA,NA,2025-11-21 00:47:16
"","https://psyc-201.github.io/xiang2023/exp/index1.html?PROLIFIC_PID=REDACTED&STUDY_ID=691f8ca61c6b4dcbb0aeb5f4&SESSION_ID=691fb4b3ae1a5d337997c9c2","fullscreen",1,7469,"0.0-1.0","mpg80/HbJ7+yFYv9pXWENPkDDnI4FgA0DOYjPZ11/C5zrmARfUBHLp3RXowj8q5Q1lf0Ph/kAUa344ez0/RYytf8R1o530xuNmeCLcSQWsRpNjHopn6D070gWzV2qd1ZxRcyaSK7FXQTeQyah40wsdbyL1klxLgse5VDXLR9vJ+yaom1PvVxBhWK0dTDBrj4WlDlR6773mp/gfESLxglPPUW+2bX+kwb/per1+rOtXEhfFBFpw2z83a0ZQSWTZ59vskSUHxSZPCYBB3u5IzVd/n7ncm/NbEHiUKr+4s6DlMtjZDQGPftLo1lltcSu3bNjm7SEM6afmfvGor4ZNyDhg==","691f8ca61c6b4dcbb0aeb5f4","691fb4b3ae1a5d337997c9c2","index1","<span style='color:red'>Fail,<span style='color:red'>Fail,<span style='color:green'>Lift,<span style='color:green'>Lift,<span style='color:red'>Fail,<span style='color:red'>Fail,<span style='color:red'>Fail,<span style='color:red'>Fail,<span style='color:red'>Fail,<span style='color:green'>Lift,<span style='color:red'>Fail,<span style='color:green'>Lift","<span style='color:red'>Fail,<span style='color:red'>Fail,<span style='color:green'>Lift,<span style='color:green'>Lift,<span style='color:green'>Lift,<span style='color:green'>Lift,<span style='color:red'>Fail,<span style='color:green'>Lift,<span style='color:green'>Lift,<span style='color:green'>Lift,<span style='color:red'>Fail,<span style='color:green'>Lift","<span style='color:red'>Fail,<span style='color:green'>Lift,<span style='color:green'>Lift,<span style='color:red'>Fail,<span style='color:green'>Lift,<span style='color:green'>Lift","0,0,1,1,0,0,0,0,0,1,0,1","0,0,1,1,1,1,0,1,1,1,0,1","0,1,1,0,1,1",10,20,20,"true","","","","","",NA,NA,"",NA,NA,NA,NA,NA,NA,NA,NA,NA,NA,NA,NA,NA,NA,NA,NA,NA,NA,NA,NA,NA,NA,NA,NA,NA,NA,NA,NA,NA,NA,NA,NA,NA,NA,NA,NA,NA,NA,NA,"",NA,NA,NA,NA,NA,NA,NA,NA,2025-11-21 00:47:16
"43961","https://psyc-201.github.io/xiang2023/exp/index1.html?PROLIFIC_PID=REDACTED&STUDY_ID=691f8ca61c6b4dcbb0aeb5f4&SESSION_ID=691fb4b3ae1a5d337997c9c2","instructions",2,51432,"0.0-2.0","mpg80/HbJ7+yFYv9pXWENPkDDnI4FgA0DOYjPZ11/C5zrmARfUBHLp3RXowj8q5Q1lf0Ph/kAUa344ez0/RYytf8R1o530xuNmeCLcSQWsRpNjHopn6D070gWzV2qd1ZxRcyaSK7FXQTeQyah40wsdbyL1klxLgse5VDXLR9vJ+yaom1PvVxBhWK0dTDBrj4WlDlR6773mp/gfESLxglPPUW+2bX+kwb/per1+rOtXEhfFBFpw2z83a0ZQSWTZ59vskSUHxSZPCYBB3u5IzVd/n7ncm/NbEHiUKr+4s6DlMtjZDQGPftLo1lltcSu3bNjm7SEM6afmfvGor4ZNyDhg==","691f8ca61c6b4dcbb0aeb5f4","691fb4b3ae1a5d337997c9c2","index1","<span style='color:red'>Fail,<span style='color:red'>Fail,<span style='color:green'>Lift,<span style='color:green'>Lift,<span style='color:red'>Fail,<span style='color:red'>Fail,<span style='color:red'>Fail,<span style='color:red'>Fail,<span style='color:red'>Fail,<span style='color:green'>Lift,<span style='color:red'>Fail,<span style='color:green'>Lift","<span style='color:red'>Fail,<span style='color:red'>Fail,<span style='color:green'>Lift,<span style='color:green'>Lift,<span style='color:green'>Lift,<span style='color:green'>Lift,<span style='color:red'>Fail,<span style='color:green'>Lift,<span style='color:green'>Lift,<span style='color:green'>Lift,<span style='color:red'>Fail,<span style='color:green'>Lift","<span style='color:red'>Fail,<span style='color:green'>Lift,<span style='color:green'>Lift,<span style='color:red'>Fail,<span style='color:green'>Lift,<span style='color:green'>Lift","0,0,1,1,0,0,0,0,0,1,0,1","0,0,1,1,1,1,0,1,1,1,0,1","0,1,1,0,1,1",10,20,20,"","[{""page_index"":0,""viewing_time"":6511.699999988079},{""page_index"":1,""viewing_time"":9232.300000011921},{""page_index"":2,""viewing_time"":4565.800000011921},{""page_index"":3,""viewing_time"":7302.899999976158},{""page_index"":4,""viewing_time"":3465.2000000476837},{""page_index"":5,""viewing_time"":7417.5},{""page_index"":6,""viewing_time"":5465.199999988079}]","","","","",NA,NA,"",NA,NA,NA,NA,NA,NA,NA,NA,NA,NA,NA,NA,NA,NA,NA,NA,NA,NA,NA,NA,NA,NA,NA,NA,NA,NA,NA,NA,NA,NA,NA,NA,NA,NA,NA,NA,NA,NA,NA,"",NA,NA,NA,NA,NA,NA,NA,NA,2025-11-21 00:47:16
"null","https://psyc-201.github.io/xiang2023/exp/index1.html?PROLIFIC_PID=REDACTED&STUDY_ID=691f8ca61c6b4dcbb0aeb5f4&SESSION_ID=691fb4b3ae1a5d337997c9c2","html-keyboard-response",3,52447,"0.0-3.0","mpg80/HbJ7+yFYv9pXWENPkDDnI4FgA0DOYjPZ11/C5zrmARfUBHLp3RXowj8q5Q1lf0Ph/kAUa344ez0/RYytf8R1o530xuNmeCLcSQWsRpNjHopn6D070gWzV2qd1ZxRcyaSK7FXQTeQyah40wsdbyL1klxLgse5VDXLR9vJ+yaom1PvVxBhWK0dTDBrj4WlDlR6773mp/gfESLxglPPUW+2bX+kwb/per1+rOtXEhfFBFpw2z83a0ZQSWTZ59vskSUHxSZPCYBB3u5IzVd/n7ncm/NbEHiUKr+4s6DlMtjZDQGPftLo1lltcSu3bNjm7SEM6afmfvGor4ZNyDhg==","691f8ca61c6b4dcbb0aeb5f4","691fb4b3ae1a5d337997c9c2","index1","<span style='color:red'>Fail,<span style='color:red'>Fail,<span style='color:green'>Lift,<span style='color:green'>Lift,<span style='color:red'>Fail,<span style='color:red'>Fail,<span style='color:red'>Fail,<span style='color:red'>Fail,<span style='color:red'>Fail,<span style='color:green'>Lift,<span style='color:red'>Fail,<span style='color:green'>Lift","<span style='color:red'>Fail,<span style='color:red'>Fail,<span style='color:green'>Lift,<span style='color:green'>Lift,<span style='color:green'>Lift,<span style='color:green'>Lift,<span style='color:red'>Fail,<span style='color:green'>Lift,<span style='color:green'>Lift,<span style='color:green'>Lift,<span style='color:red'>Fail,<span style='color:green'>Lift","<span style='color:red'>Fail,<span style='color:green'>Lift,<span style='color:green'>Lift,<span style='color:red'>Fail,<span style='color:green'>Lift,<span style='color:green'>Lift","0,0,1,1,0,0,0,0,0,1,0,1","0,0,1,1,1,1,0,1,1,1,0,1","0,1,1,0,1,1",10,20,20,"",""," ","null","","",NA,NA,"",NA,NA,NA,NA,NA,NA,NA,NA,NA,NA,NA,NA,NA,NA,NA,NA,NA,NA,NA,NA,NA,NA,NA,NA,NA,NA,NA,NA,NA,NA,NA,NA,NA,NA,NA,NA,NA,NA,NA,"",NA,NA,NA,NA,NA,NA,NA,NA,2025-11-21 00:47:16
"30818.80000001192","https://psyc-201.github.io/xiang2023/exp/index1.html?PROLIFIC_PID=REDACTED&STUDY_ID=691f8ca61c6b4dcbb0aeb5f4&SESSION_ID=691fb4b3ae1a5d337997c9c2","survey-multi-choice",4,83267,"0.0-4.0","mpg80/HbJ7+yFYv9pXWENPkDDnI4FgA0DOYjPZ11/C5zrmARfUBHLp3RXowj8q5Q1lf0Ph/kAUa344ez0/RYytf8R1o530xuNmeCLcSQWsRpNjHopn6D070gWzV2qd1ZxRcyaSK7FXQTeQyah40wsdbyL1klxLgse5VDXLR9vJ+yaom1PvVxBhWK0dTDBrj4WlDlR6773mp/gfESLxglPPUW+2bX+kwb/per1+rOtXEhfFBFpw2z83a0ZQSWTZ59vskSUHxSZPCYBB3u5IzVd/n7ncm/NbEHiUKr+4s6DlMtjZDQGPftLo1lltcSu3bNjm7SEM6afmfvGor4ZNyDhg==","691f8ca61c6b4dcbb0aeb5f4","691fb4b3ae1a5d337997c9c2","index1","<span style='color:red'>Fail,<span style='color:red'>Fail,<span style='color:green'>Lift,<span style='color:green'>Lift,<span style='color:red'>Fail,<span style='color:red'>Fail,<span style='color:red'>Fail,<span style='color:red'>Fail,<span style='color:red'>Fail,<span style='color:green'>Lift,<span style='color:red'>Fail,<span style='color:green'>Lift","<span style='color:red'>Fail,<span style='color:red'>Fail,<span style='color:green'>Lift,<span style='color:green'>Lift,<span style='color:green'>Lift,<span style='color:green'>Lift,<span style='color:red'>Fail,<span style='color:green'>Lift,<span style='color:green'>Lift,<span style='color:green'>Lift,<span style='color:red'>Fail,<span style='color:green'>Lift","<span style='color:red'>Fail,<span style='color:green'>Lift,<span style='color:green'>Lift,<span style='color:red'>Fail,<span style='color:green'>Lift,<span style='color:green'>Lift","0,0,1,1,0,0,0,0,0,1,0,1","0,0,1,1,1,1,0,1,1,1,0,1","0,1,1,0,1,1",10,20,20,"","","","","{""Q0"":""It consists of multiple contests, each contest with three rounds."",""Q1"":""When a new round starts."",""Q2"":""The box weight always stays the same (equivalent to strength of 5)."",""Q3"":""Each will get $20."",""Q4"":""There is no bonus payment at all.""}","[0,1,2,3,4]",NA,NA,"",NA,NA,NA,NA,NA,NA,NA,NA,NA,NA,NA,NA,NA,NA,NA,NA,NA,NA,NA,NA,NA,NA,NA,NA,NA,NA,NA,NA,NA,NA,NA,NA,NA,NA,NA,NA,NA,NA,NA,"",NA,NA,NA,NA,NA,NA,NA,NA,2025-11-21 00:47:16
"2794.899999976158","https://psyc-201.github.io/xiang2023/exp/index1.html?PROLIFIC_PID=REDACTED&STUDY_ID=691f8ca61c6b4dcbb0aeb5f4&SESSION_ID=691fb4b3ae1a5d337997c9c2","html-button-response",5,86065,"0.0-5.0-1.0","mpg80/HbJ7+yFYv9pXWENPkDDnI4FgA0DOYjPZ11/C5zrmARfUBHLp3RXowj8q5Q1lf0Ph/kAUa344ez0/RYytf8R1o530xuNmeCLcSQWsRpNjHopn6D070gWzV2qd1ZxRcyaSK7FXQTeQyah40wsdbyL1klxLgse5VDXLR9vJ+yaom1PvVxBhWK0dTDBrj4WlDlR6773mp/gfESLxglPPUW+2bX+kwb/per1+rOtXEhfFBFpw2z83a0ZQSWTZ59vskSUHxSZPCYBB3u5IzVd/n7ncm/NbEHiUKr+4s6DlMtjZDQGPftLo1lltcSu3bNjm7SEM6afmfvGor4ZNyDhg==","691f8ca61c6b4dcbb0aeb5f4","691fb4b3ae1a5d337997c9c2","index1","<span style='color:red'>Fail,<span style='color:red'>Fail,<span style='color:green'>Lift,<span style='color:green'>Lift,<span style='color:red'>Fail,<span style='color:red'>Fail,<span style='color:red'>Fail,<span style='color:red'>Fail,<span style='color:red'>Fail,<span style='color:green'>Lift,<span style='color:red'>Fail,<span style='color:green'>Lift","<span style='color:red'>Fail,<span style='color:red'>Fail,<span style='color:green'>Lift,<span style='color:green'>Lift,<span style='color:green'>Lift,<span style='color:green'>Lift,<span style='color:red'>Fail,<span style='color:green'>Lift,<span style='color:green'>Lift,<span style='color:green'>Lift,<span style='color:red'>Fail,<span style='color:green'>Lift","<span style='color:red'>Fail,<span style='color:green'>Lift,<span style='color:green'>Lift,<span style='color:red'>Fail,<span style='color:green'>Lift,<span style='color:green'>Lift","0,0,1,1,0,0,0,0,0,1,0,1","0,0,1,1,1,1,0,1,1,1,0,1","0,1,1,0,1,1",10,20,20,"","","<p> Oops! You did not pass the comprehension check. <b>Please note that you have only 1 attempt(s) left.</b> </p>","","","",1,NA,"",NA,NA,NA,NA,NA,NA,NA,NA,NA,NA,NA,NA,NA,NA,NA,NA,NA,NA,NA,NA,NA,NA,NA,NA,NA,NA,NA,NA,NA,NA,NA,NA,NA,NA,NA,NA,NA,NA,NA,"",NA,NA,NA,NA,NA,NA,NA,NA,2025-11-21 00:47:16
"64943.30000001192","https://psyc-201.github.io/xiang2023/exp/index1.html?PROLIFIC_PID=REDACTED&STUDY_ID=691f8ca61c6b4dcbb0aeb5f4&SESSION_ID=691fb4b3ae1a5d337997c9c2","instructions",6,151009,"0.0-6.0-0.0","mpg80/HbJ7+yFYv9pXWENPkDDnI4FgA0DOYjPZ11/C5zrmARfUBHLp3RXowj8q5Q1lf0Ph/kAUa344ez0/RYytf8R1o530xuNmeCLcSQWsRpNjHopn6D070gWzV2qd1ZxRcyaSK7FXQTeQyah40wsdbyL1klxLgse5VDXLR9vJ+yaom1PvVxBhWK0dTDBrj4WlDlR6773mp/gfESLxglPPUW+2bX+kwb/per1+rOtXEhfFBFpw2z83a0ZQSWTZ59vskSUHxSZPCYBB3u5IzVd/n7ncm/NbEHiUKr+4s6DlMtjZDQGPftLo1lltcSu3bNjm7SEM6afmfvGor4ZNyDhg==","691f8ca61c6b4dcbb0aeb5f4","691fb4b3ae1a5d337997c9c2","index1","<span style='color:red'>Fail,<span style='color:red'>Fail,<span style='color:green'>Lift,<span style='color:green'>Lift,<span style='color:red'>Fail,<span style='color:red'>Fail,<span style='color:red'>Fail,<span style='color:red'>Fail,<span style='color:red'>Fail,<span style='color:green'>Lift,<span style='color:red'>Fail,<span style='color:green'>Lift","<span style='color:red'>Fail,<span style='color:red'>Fail,<span style='color:green'>Lift,<span style='color:green'>Lift,<span style='color:green'>Lift,<span style='color:green'>Lift,<span style='color:red'>Fail,<span style='color:green'>Lift,<span style='color:green'>Lift,<span style='color:green'>Lift,<span style='color:red'>Fail,<span style='color:green'>Lift","<span style='color:red'>Fail,<span style='color:green'>Lift,<span style='color:green'>Lift,<span style='color:red'>Fail,<span style='color:green'>Lift,<span style='color:green'>Lift","0,0,1,1,0,0,0,0,0,1,0,1","0,0,1,1,1,1,0,1,1,1,0,1","0,1,1,0,1,1",10,20,20,"","[{""page_index"":0,""viewing_time"":14179.800000011921},{""page_index"":1,""viewing_time"":8581.5},{""page_index"":2,""viewing_time"":11200.600000023842},{""page_index"":3,""viewing_time"":15448.399999976158},{""page_index"":4,""viewing_time"":7349.899999976158},{""page_index"":5,""viewing_time"":5500.300000011921},{""page_index"":6,""viewing_time"":2682.400000035763}]","","","","",NA,NA,"",NA,NA,NA,NA,NA,NA,NA,NA,NA,NA,NA,NA,NA,NA,NA,NA,NA,NA,NA,NA,NA,NA,NA,NA,NA,NA,NA,NA,NA,NA,NA,NA,NA,NA,NA,NA,NA,NA,NA,"",NA,NA,NA,NA,NA,NA,NA,NA,2025-11-21 00:47:16
"null","https://psyc-201.github.io/xiang2023/exp/index1.html?PROLIFIC_PID=REDACTED&STUDY_ID=691f8ca61c6b4dcbb0aeb5f4&SESSION_ID=691fb4b3ae1a5d337997c9c2","html-keyboard-response",7,152021,"0.0-6.0-1.0","mpg80/HbJ7+yFYv9pXWENPkDDnI4FgA0DOYjPZ11/C5zrmARfUBHLp3RXowj8q5Q1lf0Ph/kAUa344ez0/RYytf8R1o530xuNmeCLcSQWsRpNjHopn6D070gWzV2qd1ZxRcyaSK7FXQTeQyah40wsdbyL1klxLgse5VDXLR9vJ+yaom1PvVxBhWK0dTDBrj4WlDlR6773mp/gfESLxglPPUW+2bX+kwb/per1+rOtXEhfFBFpw2z83a0ZQSWTZ59vskSUHxSZPCYBB3u5IzVd/n7ncm/NbEHiUKr+4s6DlMtjZDQGPftLo1lltcSu3bNjm7SEM6afmfvGor4ZNyDhg==","691f8ca61c6b4dcbb0aeb5f4","691fb4b3ae1a5d337997c9c2","index1","<span style='color:red'>Fail,<span style='color:red'>Fail,<span style='color:green'>Lift,<span style='color:green'>Lift,<span style='color:red'>Fail,<span style='color:red'>Fail,<span style='color:red'>Fail,<span style='color:red'>Fail,<span style='color:red'>Fail,<span style='color:green'>Lift,<span style='color:red'>Fail,<span style='color:green'>Lift","<span style='color:red'>Fail,<span style='color:red'>Fail,<span style='color:green'>Lift,<span style='color:green'>Lift,<span style='color:green'>Lift,<span style='color:green'>Lift,<span style='color:red'>Fail,<span style='color:green'>Lift,<span style='color:green'>Lift,<span style='color:green'>Lift,<span style='color:red'>Fail,<span style='color:green'>Lift","<span style='color:red'>Fail,<span style='color:green'>Lift,<span style='color:green'>Lift,<span style='color:red'>Fail,<span style='color:green'>Lift,<span style='color:green'>Lift","0,0,1,1,0,0,0,0,0,1,0,1","0,0,1,1,1,1,0,1,1,1,0,1","0,1,1,0,1,1",10,20,20,"",""," ","null","","",NA,NA,"",NA,NA,NA,NA,NA,NA,NA,NA,NA,NA,NA,NA,NA,NA,NA,NA,NA,NA,NA,NA,NA,NA,NA,NA,NA,NA,NA,NA,NA,NA,NA,NA,NA,NA,NA,NA,NA,NA,NA,"",NA,NA,NA,NA,NA,NA,NA,NA,2025-11-21 00:47:16
"18423.399999976158","https://psyc-201.github.io/xiang2023/exp/index1.html?PROLIFIC_PID=REDACTED&STUDY_ID=691f8ca61c6b4dcbb0aeb5f4&SESSION_ID=691fb4b3ae1a5d337997c9c2","survey-multi-choice",8,170446,"0.0-7.0-0.0","mpg80/HbJ7+yFYv9pXWENPkDDnI4FgA0DOYjPZ11/C5zrmARfUBHLp3RXowj8q5Q1lf0Ph/kAUa344ez0/RYytf8R1o530xuNmeCLcSQWsRpNjHopn6D070gWzV2qd1ZxRcyaSK7FXQTeQyah40wsdbyL1klxLgse5VDXLR9vJ+yaom1PvVxBhWK0dTDBrj4WlDlR6773mp/gfESLxglPPUW+2bX+kwb/per1+rOtXEhfFBFpw2z83a0ZQSWTZ59vskSUHxSZPCYBB3u5IzVd/n7ncm/NbEHiUKr+4s6DlMtjZDQGPftLo1lltcSu3bNjm7SEM6afmfvGor4ZNyDhg==","691f8ca61c6b4dcbb0aeb5f4","691fb4b3ae1a5d337997c9c2","index1","<span style='color:red'>Fail,<span style='color:red'>Fail,<span style='color:green'>Lift,<span style='color:green'>Lift,<span style='color:red'>Fail,<span style='color:red'>Fail,<span style='color:red'>Fail,<span style='color:red'>Fail,<span style='color:red'>Fail,<span style='color:green'>Lift,<span style='color:red'>Fail,<span style='color:green'>Lift","<span style='color:red'>Fail,<span style='color:red'>Fail,<span style='color:green'>Lift,<span style='color:green'>Lift,<span style='color:green'>Lift,<span style='color:green'>Lift,<span style='color:red'>Fail,<span style='color:green'>Lift,<span style='color:green'>Lift,<span style='color:green'>Lift,<span style='color:red'>Fail,<span style='color:green'>Lift","<span style='color:red'>Fail,<span style='color:green'>Lift,<span style='color:green'>Lift,<span style='color:red'>Fail,<span style='color:green'>Lift,<span style='color:green'>Lift","0,0,1,1,0,0,0,0,0,1,0,1","0,0,1,1,1,1,0,1,1,1,0,1","0,1,1,0,1,1",10,20,20,"","","","","{""Q0"":""It consists of multiple contests, each contest with three rounds."",""Q1"":""When a new contest begins."",""Q2"":""The box weight always stays the same (equivalent to strength of 5)."",""Q3"":""Each will get $20."",""Q4"":""How close my guesses are to the actual outcome.""}","[0,1,2,3,4]",NA,NA,"",NA,NA,NA,NA,NA,NA,NA,NA,NA,NA,NA,NA,NA,NA,NA,NA,NA,NA,NA,NA,NA,NA,NA,NA,NA,NA,NA,NA,NA,NA,NA,NA,NA,NA,NA,NA,NA,NA,NA,"",NA,NA,NA,NA,NA,NA,NA,NA,2025-11-21 00:47:16
"7288.600000023842","https://psyc-201.github.io/xiang2023/exp/index1.html?PROLIFIC_PID=REDACTED&STUDY_ID=691f8ca61c6b4dcbb0aeb5f4&SESSION_ID=691fb4b3ae1a5d337997c9c2","instructions",9,177741,"0.0-305.0","mpg80/HbJ7+yFYv9pXWENPkDDnI4FgA0DOYjPZ11/C5zrmARfUBHLp3RXowj8q5Q1lf0Ph/kAUa344ez0/RYytf8R1o530xuNmeCLcSQWsRpNjHopn6D070gWzV2qd1ZxRcyaSK7FXQTeQyah40wsdbyL1klxLgse5VDXLR9vJ+yaom1PvVxBhWK0dTDBrj4WlDlR6773mp/gfESLxglPPUW+2bX+kwb/per1+rOtXEhfFBFpw2z83a0ZQSWTZ59vskSUHxSZPCYBB3u5IzVd/n7ncm/NbEHiUKr+4s6DlMtjZDQGPftLo1lltcSu3bNjm7SEM6afmfvGor4ZNyDhg==","691f8ca61c6b4dcbb0aeb5f4","691fb4b3ae1a5d337997c9c2","index1","<span style='color:red'>Fail,<span style='color:red'>Fail,<span style='color:green'>Lift,<span style='color:green'>Lift,<span style='color:red'>Fail,<span style='color:red'>Fail,<span style='color:red'>Fail,<span style='color:red'>Fail,<span style='color:red'>Fail,<span style='color:green'>Lift,<span style='color:red'>Fail,<span style='color:green'>Lift","<span style='color:red'>Fail,<span style='color:red'>Fail,<span style='color:green'>Lift,<span style='color:green'>Lift,<span style='color:green'>Lift,<span style='color:green'>Lift,<span style='color:red'>Fail,<span style='color:green'>Lift,<span style='color:green'>Lift,<span style='color:green'>Lift,<span style='color:red'>Fail,<span style='color:green'>Lift","<span style='color:red'>Fail,<span style='color:green'>Lift,<span style='color:green'>Lift,<span style='color:red'>Fail,<span style='color:green'>Lift,<span style='color:green'>Lift","0,0,1,1,0,0,0,0,0,1,0,1","0,0,1,1,1,1,0,1,1,1,0,1","0,1,1,0,1,1",10,20,20,"","[{""page_index"":0,""viewing_time"":3404.100000023842},{""page_index"":1,""viewing_time"":3884.199999988079}]","","","","",NA,NA,"",NA,NA,NA,NA,NA,NA,NA,NA,NA,NA,NA,NA,NA,NA,NA,NA,NA,NA,NA,NA,NA,NA,NA,NA,NA,NA,NA,NA,NA,NA,NA,NA,NA,NA,NA,NA,NA,NA,NA,"",NA,NA,NA,NA,NA,NA,NA,NA,2025-11-21 00:47:16
"null","https://psyc-201.github.io/xiang2023/exp/index1.html?PROLIFIC_PID=REDACTED&STUDY_ID=691f8ca61c6b4dcbb0aeb5f4&SESSION_ID=691fb4b3ae1a5d337997c9c2","html-keyboard-response",10,178743,"0.0-306.0","mpg80/HbJ7+yFYv9pXWENPkDDnI4FgA0DOYjPZ11/C5zrmARfUBHLp3RXowj8q5Q1lf0Ph/kAUa344ez0/RYytf8R1o530xuNmeCLcSQWsRpNjHopn6D070gWzV2qd1ZxRcyaSK7FXQTeQyah40wsdbyL1klxLgse5VDXLR9vJ+yaom1PvVxBhWK0dTDBrj4WlDlR6773mp/gfESLxglPPUW+2bX+kwb/per1+rOtXEhfFBFpw2z83a0ZQSWTZ59vskSUHxSZPCYBB3u5IzVd/n7ncm/NbEHiUKr+4s6DlMtjZDQGPftLo1lltcSu3bNjm7SEM6afmfvGor4ZNyDhg==","691f8ca61c6b4dcbb0aeb5f4","691fb4b3ae1a5d337997c9c2","index1","<span style='color:red'>Fail,<span style='color:red'>Fail,<span style='color:green'>Lift,<span style='color:green'>Lift,<span style='color:red'>Fail,<span style='color:red'>Fail,<span style='color:red'>Fail,<span style='color:red'>Fail,<span style='color:red'>Fail,<span style='color:green'>Lift,<span style='color:red'>Fail,<span style='color:green'>Lift","<span style='color:red'>Fail,<span style='color:red'>Fail,<span style='color:green'>Lift,<span style='color:green'>Lift,<span style='color:green'>Lift,<span style='color:green'>Lift,<span style='color:red'>Fail,<span style='color:green'>Lift,<span style='color:green'>Lift,<span style='color:green'>Lift,<span style='color:red'>Fail,<span style='color:green'>Lift","<span style='color:red'>Fail,<span style='color:green'>Lift,<span style='color:green'>Lift,<span style='color:red'>Fail,<span style='color:green'>Lift,<span style='color:green'>Lift","0,0,1,1,0,0,0,0,0,1,0,1","0,0,1,1,1,1,0,1,1,1,0,1","0,1,1,0,1,1",10,20,20,"",""," ","null","","",NA,1,"",NA,NA,NA,NA,NA,NA,NA,NA,NA,NA,NA,NA,NA,NA,NA,NA,NA,NA,NA,NA,NA,NA,NA,NA,NA,NA,NA,NA,NA,NA,NA,NA,NA,NA,NA,NA,NA,NA,NA,"",NA,NA,NA,NA,NA,NA,NA,NA,2025-11-21 00:47:16
"null","https://psyc-201.github.io/xiang2023/exp/index1.html?PROLIFIC_PID=REDACTED&STUDY_ID=691f8ca61c6b4dcbb0aeb5f4&SESSION_ID=691fb4b3ae1a5d337997c9c2","html-keyboard-response",11,181746,"0.0-307.0","mpg80/HbJ7+yFYv9pXWENPkDDnI4FgA0DOYjPZ11/C5zrmARfUBHLp3RXowj8q5Q1lf0Ph/kAUa344ez0/RYytf8R1o530xuNmeCLcSQWsRpNjHopn6D070gWzV2qd1ZxRcyaSK7FXQTeQyah40wsdbyL1klxLgse5VDXLR9vJ+yaom1PvVxBhWK0dTDBrj4WlDlR6773mp/gfESLxglPPUW+2bX+kwb/per1+rOtXEhfFBFpw2z83a0ZQSWTZ59vskSUHxSZPCYBB3u5IzVd/n7ncm/NbEHiUKr+4s6DlMtjZDQGPftLo1lltcSu3bNjm7SEM6afmfvGor4ZNyDhg==","691f8ca61c6b4dcbb0aeb5f4","691fb4b3ae1a5d337997c9c2","index1","<span style='color:red'>Fail,<span style='color:red'>Fail,<span style='color:green'>Lift,<span style='color:green'>Lift,<span style='color:red'>Fail,<span style='color:red'>Fail,<span style='color:red'>Fail,<span style='color:red'>Fail,<span style='color:red'>Fail,<span style='color:green'>Lift,<span style='color:red'>Fail,<span style='color:green'>Lift","<span style='color:red'>Fail,<span style='color:red'>Fail,<span style='color:green'>Lift,<span style='color:green'>Lift,<span style='color:green'>Lift,<span style='color:green'>Lift,<span style='color:red'>Fail,<span style='color:green'>Lift,<span style='color:green'>Lift,<span style='color:green'>Lift,<span style='color:red'>Fail,<span style='color:green'>Lift","<span style='color:red'>Fail,<span style='color:green'>Lift,<span style='color:green'>Lift,<span style='color:red'>Fail,<span style='color:green'>Lift,<span style='color:green'>Lift","0,0,1,1,0,0,0,0,0,1,0,1","0,0,1,1,1,1,0,1,1,1,0,1","0,1,1,0,1,1",10,20,20,"","","<p style='font-size:30px'><b> New Contest! </b></p>","null","","",NA,1,"",NA,NA,NA,NA,NA,NA,NA,NA,NA,NA,NA,NA,NA,NA,NA,NA,NA,NA,NA,NA,NA,NA,NA,NA,NA,NA,NA,NA,NA,NA,NA,NA,NA,NA,NA,NA,NA,NA,NA,"",NA,NA,NA,NA,NA,NA,NA,NA,2025-11-21 00:47:16
"18576.900000035763","https://psyc-201.github.io/xiang2023/exp/index1.html?PROLIFIC_PID=REDACTED&STUDY_ID=691f8ca61c6b4dcbb0aeb5f4&SESSION_ID=691fb4b3ae1a5d337997c9c2","survey-html-form",12,200325,"0.0-308.0","mpg80/HbJ7+yFYv9pXWENPkDDnI4FgA0DOYjPZ11/C5zrmARfUBHLp3RXowj8q5Q1lf0Ph/kAUa344ez0/RYytf8R1o530xuNmeCLcSQWsRpNjHopn6D070gWzV2qd1ZxRcyaSK7FXQTeQyah40wsdbyL1klxLgse5VDXLR9vJ+yaom1PvVxBhWK0dTDBrj4WlDlR6773mp/gfESLxglPPUW+2bX+kwb/per1+rOtXEhfFBFpw2z83a0ZQSWTZ59vskSUHxSZPCYBB3u5IzVd/n7ncm/NbEHiUKr+4s6DlMtjZDQGPftLo1lltcSu3bNjm7SEM6afmfvGor4ZNyDhg==","691f8ca61c6b4dcbb0aeb5f4","691fb4b3ae1a5d337997c9c2","index1","<span style='color:red'>Fail,<span style='color:red'>Fail,<span style='color:green'>Lift,<span style='color:green'>Lift,<span style='color:red'>Fail,<span style='color:red'>Fail,<span style='color:red'>Fail,<span style='color:red'>Fail,<span style='color:red'>Fail,<span style='color:green'>Lift,<span style='color:red'>Fail,<span style='color:green'>Lift","<span style='color:red'>Fail,<span style='color:red'>Fail,<span style='color:green'>Lift,<span style='color:green'>Lift,<span style='color:green'>Lift,<span style='color:green'>Lift,<span style='color:red'>Fail,<span style='color:green'>Lift,<span style='color:green'>Lift,<span style='color:green'>Lift,<span style='color:red'>Fail,<span style='color:green'>Lift","<span style='color:red'>Fail,<span style='color:green'>Lift,<span style='color:green'>Lift,<span style='color:red'>Fail,<span style='color:green'>Lift,<span style='color:green'>Lift","0,0,1,1,0,0,0,0,0,1,0,1","0,0,1,1,1,1,0,1,1,1,0,1","0,1,1,0,1,1",10,20,20,"","","","","{""box1"":""5"",""box2"":""5""}","",NA,1,"round1_outcome",1,1,1,5,5,NA,NA,0,0,10,5,5,NA,NA,0,0,10,NA,NA,NA,NA,NA,NA,NA,NA,NA,NA,NA,NA,NA,NA,NA,NA,NA,NA,NA,NA,NA,NA,"",NA,NA,NA,NA,NA,NA,NA,NA,2025-11-21 00:47:16
"9482.099999964237","https://psyc-201.github.io/xiang2023/exp/index1.html?PROLIFIC_PID=REDACTED&STUDY_ID=691f8ca61c6b4dcbb0aeb5f4&SESSION_ID=691fb4b3ae1a5d337997c9c2","survey-html-form",13,209809,"0.0-309.0","mpg80/HbJ7+yFYv9pXWENPkDDnI4FgA0DOYjPZ11/C5zrmARfUBHLp3RXowj8q5Q1lf0Ph/kAUa344ez0/RYytf8R1o530xuNmeCLcSQWsRpNjHopn6D070gWzV2qd1ZxRcyaSK7FXQTeQyah40wsdbyL1klxLgse5VDXLR9vJ+yaom1PvVxBhWK0dTDBrj4WlDlR6773mp/gfESLxglPPUW+2bX+kwb/per1+rOtXEhfFBFpw2z83a0ZQSWTZ59vskSUHxSZPCYBB3u5IzVd/n7ncm/NbEHiUKr+4s6DlMtjZDQGPftLo1lltcSu3bNjm7SEM6afmfvGor4ZNyDhg==","691f8ca61c6b4dcbb0aeb5f4","691fb4b3ae1a5d337997c9c2","index1","<span style='color:red'>Fail,<span style='color:red'>Fail,<span style='color:green'>Lift,<span style='color:green'>Lift,<span style='color:red'>Fail,<span style='color:red'>Fail,<span style='color:red'>Fail,<span style='color:red'>Fail,<span style='color:red'>Fail,<span style='color:green'>Lift,<span style='color:red'>Fail,<span style='color:green'>Lift","<span style='color:red'>Fail,<span style='color:red'>Fail,<span style='color:green'>Lift,<span style='color:green'>Lift,<span style='color:green'>Lift,<span style='color:green'>Lift,<span style='color:red'>Fail,<span style='color:green'>Lift,<span style='color:green'>Lift,<span style='color:green'>Lift,<span style='color:red'>Fail,<span style='color:green'>Lift","<span style='color:red'>Fail,<span style='color:green'>Lift,<span style='color:green'>Lift,<span style='color:red'>Fail,<span style='color:green'>Lift,<span style='color:green'>Lift","0,0,1,1,0,0,0,0,0,1,0,1","0,0,1,1,1,1,0,1,1,1,0,1","0,1,1,0,1,1",10,20,20,"","","","","{""box1"":""75"",""box2"":""75""}","",NA,1,"round2_ready",2,1,2,NA,NA,NA,NA,NA,NA,NA,NA,NA,NA,NA,NA,NA,NA,75,75,75,75,NA,NA,NA,NA,NA,NA,NA,NA,NA,NA,NA,NA,NA,NA,NA,NA,NA,NA,"",NA,NA,NA,NA,NA,NA,NA,NA,2025-11-21 00:47:16
"29711","https://psyc-201.github.io/xiang2023/exp/index1.html?PROLIFIC_PID=REDACTED&STUDY_ID=691f8ca61c6b4dcbb0aeb5f4&SESSION_ID=691fb4b3ae1a5d337997c9c2","survey-html-form",14,239523,"0.0-310.0","mpg80/HbJ7+yFYv9pXWENPkDDnI4FgA0DOYjPZ11/C5zrmARfUBHLp3RXowj8q5Q1lf0Ph/kAUa344ez0/RYytf8R1o530xuNmeCLcSQWsRpNjHopn6D070gWzV2qd1ZxRcyaSK7FXQTeQyah40wsdbyL1klxLgse5VDXLR9vJ+yaom1PvVxBhWK0dTDBrj4WlDlR6773mp/gfESLxglPPUW+2bX+kwb/per1+rOtXEhfFBFpw2z83a0ZQSWTZ59vskSUHxSZPCYBB3u5IzVd/n7ncm/NbEHiUKr+4s6DlMtjZDQGPftLo1lltcSu3bNjm7SEM6afmfvGor4ZNyDhg==","691f8ca61c6b4dcbb0aeb5f4","691fb4b3ae1a5d337997c9c2","index1","<span style='color:red'>Fail,<span style='color:red'>Fail,<span style='color:green'>Lift,<span style='color:green'>Lift,<span style='color:red'>Fail,<span style='color:red'>Fail,<span style='color:red'>Fail,<span style='color:red'>Fail,<span style='color:red'>Fail,<span style='color:green'>Lift,<span style='color:red'>Fail,<span style='color:green'>Lift","<span style='color:red'>Fail,<span style='color:red'>Fail,<span style='color:green'>Lift,<span style='color:green'>Lift,<span style='color:green'>Lift,<span style='color:green'>Lift,<span style='color:red'>Fail,<span style='color:green'>Lift,<span style='color:green'>Lift,<span style='color:green'>Lift,<span style='color:red'>Fail,<span style='color:green'>Lift","<span style='color:red'>Fail,<span style='color:green'>Lift,<span style='color:green'>Lift,<span style='color:red'>Fail,<span style='color:green'>Lift,<span style='color:green'>Lift","0,0,1,1,0,0,0,0,0,1,0,1","0,0,1,1,1,1,0,1,1,1,0,1","0,1,1,0,1,1",10,20,20,"","","","","{""box1"":""3"",""box2"":""8"",""box4"":""75""}","",NA,1,"round2_outcome",3,1,2,3,8,NA,75,0,1,20,NA,NA,NA,NA,NA,NA,NA,NA,NA,NA,NA,3,8,NA,75,0,1,20,NA,NA,NA,NA,NA,NA,NA,NA,NA,NA,NA,"",NA,NA,NA,NA,NA,NA,NA,NA,2025-11-21 00:47:16
"6037.5","https://psyc-201.github.io/xiang2023/exp/index1.html?PROLIFIC_PID=REDACTED&STUDY_ID=691f8ca61c6b4dcbb0aeb5f4&SESSION_ID=691fb4b3ae1a5d337997c9c2","survey-html-form",15,245563,"0.0-311.0","mpg80/HbJ7+yFYv9pXWENPkDDnI4FgA0DOYjPZ11/C5zrmARfUBHLp3RXowj8q5Q1lf0Ph/kAUa344ez0/RYytf8R1o530xuNmeCLcSQWsRpNjHopn6D070gWzV2qd1ZxRcyaSK7FXQTeQyah40wsdbyL1klxLgse5VDXLR9vJ+yaom1PvVxBhWK0dTDBrj4WlDlR6773mp/gfESLxglPPUW+2bX+kwb/per1+rOtXEhfFBFpw2z83a0ZQSWTZ59vskSUHxSZPCYBB3u5IzVd/n7ncm/NbEHiUKr+4s6DlMtjZDQGPftLo1lltcSu3bNjm7SEM6afmfvGor4ZNyDhg==","691f8ca61c6b4dcbb0aeb5f4","691fb4b3ae1a5d337997c9c2","index1","<span style='color:red'>Fail,<span style='color:red'>Fail,<span style='color:green'>Lift,<span style='color:green'>Lift,<span style='color:red'>Fail,<span style='color:red'>Fail,<span style='color:red'>Fail,<span style='color:red'>Fail,<span style='color:red'>Fail,<span style='color:green'>Lift,<span style='color:red'>Fail,<span style='color:green'>Lift","<span style='color:red'>Fail,<span style='color:red'>Fail,<span style='color:green'>Lift,<span style='color:green'>Lift,<span style='color:green'>Lift,<span style='color:green'>Lift,<span style='color:red'>Fail,<span style='color:green'>Lift,<span style='color:green'>Lift,<span style='color:green'>Lift,<span style='color:red'>Fail,<span style='color:green'>Lift","<span style='color:red'>Fail,<span style='color:green'>Lift,<span style='color:green'>Lift,<span style='color:red'>Fail,<span style='color:green'>Lift,<span style='color:green'>Lift","0,0,1,1,0,0,0,0,0,1,0,1","0,0,1,1,1,1,0,1,1,1,0,1","0,1,1,0,1,1",10,20,20,"","","","","{""box1"":""100""}","",NA,1,"round3_ready",4,1,3,NA,NA,NA,NA,NA,NA,NA,NA,NA,NA,NA,NA,NA,NA,100,100,NA,NA,NA,NA,NA,NA,NA,NA,NA,100,100,NA,NA,NA,NA,NA,NA,NA,NA,NA,"",NA,NA,NA,NA,NA,NA,NA,NA,2025-11-21 00:47:16
"13689.699999988079","https://psyc-201.github.io/xiang2023/exp/index1.html?PROLIFIC_PID=REDACTED&STUDY_ID=691f8ca61c6b4dcbb0aeb5f4&SESSION_ID=691fb4b3ae1a5d337997c9c2","survey-html-form",16,259255,"0.0-313.0-0.0","mpg80/HbJ7+yFYv9pXWENPkDDnI4FgA0DOYjPZ11/C5zrmARfUBHLp3RXowj8q5Q1lf0Ph/kAUa344ez0/RYytf8R1o530xuNmeCLcSQWsRpNjHopn6D070gWzV2qd1ZxRcyaSK7FXQTeQyah40wsdbyL1klxLgse5VDXLR9vJ+yaom1PvVxBhWK0dTDBrj4WlDlR6773mp/gfESLxglPPUW+2bX+kwb/per1+rOtXEhfFBFpw2z83a0ZQSWTZ59vskSUHxSZPCYBB3u5IzVd/n7ncm/NbEHiUKr+4s6DlMtjZDQGPftLo1lltcSu3bNjm7SEM6afmfvGor4ZNyDhg==","691f8ca61c6b4dcbb0aeb5f4","691fb4b3ae1a5d337997c9c2","index1","<span style='color:red'>Fail,<span style='color:red'>Fail,<span style='color:green'>Lift,<span style='color:green'>Lift,<span style='color:red'>Fail,<span style='color:red'>Fail,<span style='color:red'>Fail,<span style='color:red'>Fail,<span style='color:red'>Fail,<span style='color:green'>Lift,<span style='color:red'>Fail,<span style='color:green'>Lift","<span style='color:red'>Fail,<span style='color:red'>Fail,<span style='color:green'>Lift,<span style='color:green'>Lift,<span style='color:green'>Lift,<span style='color:green'>Lift,<span style='color:red'>Fail,<span style='color:green'>Lift,<span style='color:green'>Lift,<span style='color:green'>Lift,<span style='color:red'>Fail,<span style='color:green'>Lift","<span style='color:red'>Fail,<span style='color:green'>Lift,<span style='color:green'>Lift,<span style='color:red'>Fail,<span style='color:green'>Lift,<span style='color:green'>Lift","0,0,1,1,0,0,0,0,0,1,0,1","0,0,1,1,1,1,0,1,1,1,0,1","0,1,1,0,1,1",10,20,20,"","","","","{""box1"":""1"",""box2"":""7"",""box3"":""999"",""box4"":""999""}","",NA,2,"round3_fail",5,1,3,1,7,NA,NA,0,0,20,NA,NA,NA,NA,NA,NA,NA,NA,NA,NA,NA,NA,NA,NA,NA,NA,NA,NA,NA,NA,1,1,1,7,0,0,20,NA,NA,"",NA,NA,NA,NA,NA,NA,NA,NA,2025-11-21 00:47:16
"null","https://psyc-201.github.io/xiang2023/exp/index1.html?PROLIFIC_PID=REDACTED&STUDY_ID=691f8ca61c6b4dcbb0aeb5f4&SESSION_ID=691fb4b3ae1a5d337997c9c2","html-keyboard-response",17,262267,"0.0-316.0","mpg80/HbJ7+yFYv9pXWENPkDDnI4FgA0DOYjPZ11/C5zrmARfUBHLp3RXowj8q5Q1lf0Ph/kAUa344ez0/RYytf8R1o530xuNmeCLcSQWsRpNjHopn6D070gWzV2qd1ZxRcyaSK7FXQTeQyah40wsdbyL1klxLgse5VDXLR9vJ+yaom1PvVxBhWK0dTDBrj4WlDlR6773mp/gfESLxglPPUW+2bX+kwb/per1+rOtXEhfFBFpw2z83a0ZQSWTZ59vskSUHxSZPCYBB3u5IzVd/n7ncm/NbEHiUKr+4s6DlMtjZDQGPftLo1lltcSu3bNjm7SEM6afmfvGor4ZNyDhg==","691f8ca61c6b4dcbb0aeb5f4","691fb4b3ae1a5d337997c9c2","index1","<span style='color:red'>Fail,<span style='color:red'>Fail,<span style='color:green'>Lift,<span style='color:green'>Lift,<span style='color:red'>Fail,<span style='color:red'>Fail,<span style='color:red'>Fail,<span style='color:red'>Fail,<span style='color:red'>Fail,<span style='color:green'>Lift,<span style='color:red'>Fail,<span style='color:green'>Lift","<span style='color:red'>Fail,<span style='color:red'>Fail,<span style='color:green'>Lift,<span style='color:green'>Lift,<span style='color:green'>Lift,<span style='color:green'>Lift,<span style='color:red'>Fail,<span style='color:green'>Lift,<span style='color:green'>Lift,<span style='color:green'>Lift,<span style='color:red'>Fail,<span style='color:green'>Lift","<span style='color:red'>Fail,<span style='color:green'>Lift,<span style='color:green'>Lift,<span style='color:red'>Fail,<span style='color:green'>Lift,<span style='color:green'>Lift","0,0,1,1,0,0,0,0,0,1,0,1","0,0,1,1,1,1,0,1,1,1,0,1","0,1,1,0,1,1",10,20,20,"","","<p style='font-size:30px'><b> New Contest! </b></p>","null","","",NA,2,"",NA,NA,NA,NA,NA,NA,NA,NA,NA,NA,NA,NA,NA,NA,NA,NA,NA,NA,NA,NA,NA,NA,NA,NA,NA,NA,NA,NA,NA,NA,NA,NA,NA,NA,NA,NA,NA,NA,NA,"",NA,NA,NA,NA,NA,NA,NA,NA,2025-11-21 00:47:16
"12119.300000011921","https://psyc-201.github.io/xiang2023/exp/index1.html?PROLIFIC_PID=REDACTED&STUDY_ID=691f8ca61c6b4dcbb0aeb5f4&SESSION_ID=691fb4b3ae1a5d337997c9c2","survey-html-form",18,274388,"0.0-317.0","mpg80/HbJ7+yFYv9pXWENPkDDnI4FgA0DOYjPZ11/C5zrmARfUBHLp3RXowj8q5Q1lf0Ph/kAUa344ez0/RYytf8R1o530xuNmeCLcSQWsRpNjHopn6D070gWzV2qd1ZxRcyaSK7FXQTeQyah40wsdbyL1klxLgse5VDXLR9vJ+yaom1PvVxBhWK0dTDBrj4WlDlR6773mp/gfESLxglPPUW+2bX+kwb/per1+rOtXEhfFBFpw2z83a0ZQSWTZ59vskSUHxSZPCYBB3u5IzVd/n7ncm/NbEHiUKr+4s6DlMtjZDQGPftLo1lltcSu3bNjm7SEM6afmfvGor4ZNyDhg==","691f8ca61c6b4dcbb0aeb5f4","691fb4b3ae1a5d337997c9c2","index1","<span style='color:red'>Fail,<span style='color:red'>Fail,<span style='color:green'>Lift,<span style='color:green'>Lift,<span style='color:red'>Fail,<span style='color:red'>Fail,<span style='color:red'>Fail,<span style='color:red'>Fail,<span style='color:red'>Fail,<span style='color:green'>Lift,<span style='color:red'>Fail,<span style='color:green'>Lift","<span style='color:red'>Fail,<span style='color:red'>Fail,<span style='color:green'>Lift,<span style='color:green'>Lift,<span style='color:green'>Lift,<span style='color:green'>Lift,<span style='color:red'>Fail,<span style='color:green'>Lift,<span style='color:green'>Lift,<span style='color:green'>Lift,<span style='color:red'>Fail,<span style='color:green'>Lift","<span style='color:red'>Fail,<span style='color:green'>Lift,<span style='color:green'>Lift,<span style='color:red'>Fail,<span style='color:green'>Lift,<span style='color:green'>Lift","0,0,1,1,0,0,0,0,0,1,0,1","0,0,1,1,1,1,0,1,1,1,0,1","0,1,1,0,1,1",10,20,20,"","","","","{""box1"":""3"",""box2"":""8"",""box4"":""60""}","",NA,2,"round1_outcome",1,2,1,3,8,NA,60,0,1,10,3,8,NA,60,0,1,10,NA,NA,NA,NA,NA,NA,NA,NA,NA,NA,NA,NA,NA,NA,NA,NA,NA,NA,NA,NA,NA,NA,"",NA,NA,NA,NA,NA,NA,NA,NA,2025-11-21 00:47:16
"10399.100000023842","https://psyc-201.github.io/xiang2023/exp/index1.html?PROLIFIC_PID=REDACTED&STUDY_ID=691f8ca61c6b4dcbb0aeb5f4&SESSION_ID=691fb4b3ae1a5d337997c9c2","survey-html-form",19,284789,"0.0-318.0","mpg80/HbJ7+yFYv9pXWENPkDDnI4FgA0DOYjPZ11/C5zrmARfUBHLp3RXowj8q5Q1lf0Ph/kAUa344ez0/RYytf8R1o530xuNmeCLcSQWsRpNjHopn6D070gWzV2qd1ZxRcyaSK7FXQTeQyah40wsdbyL1klxLgse5VDXLR9vJ+yaom1PvVxBhWK0dTDBrj4WlDlR6773mp/gfESLxglPPUW+2bX+kwb/per1+rOtXEhfFBFpw2z83a0ZQSWTZ59vskSUHxSZPCYBB3u5IzVd/n7ncm/NbEHiUKr+4s6DlMtjZDQGPftLo1lltcSu3bNjm7SEM6afmfvGor4ZNyDhg==","691f8ca61c6b4dcbb0aeb5f4","691fb4b3ae1a5d337997c9c2","index1","<span style='color:red'>Fail,<span style='color:red'>Fail,<span style='color:green'>Lift,<span style='color:green'>Lift,<span style='color:red'>Fail,<span style='color:red'>Fail,<span style='color:red'>Fail,<span style='color:red'>Fail,<span style='color:red'>Fail,<span style='color:green'>Lift,<span style='color:red'>Fail,<span style='color:green'>Lift","<span style='color:red'>Fail,<span style='color:red'>Fail,<span style='color:green'>Lift,<span style='color:green'>Lift,<span style='color:green'>Lift,<span style='color:green'>Lift,<span style='color:red'>Fail,<span style='color:green'>Lift,<span style='color:green'>Lift,<span style='color:green'>Lift,<span style='color:red'>Fail,<span style='color:green'>Lift","<span style='color:red'>Fail,<span style='color:green'>Lift,<span style='color:green'>Lift,<span style='color:red'>Fail,<span style='color:green'>Lift,<span style='color:green'>Lift","0,0,1,1,0,0,0,0,0,1,0,1","0,0,1,1,1,1,0,1,1,1,0,1","0,1,1,0,1,1",10,20,20,"","","","","{""box1"":""40"",""box2"":""80""}","",NA,2,"round2_ready",2,2,2,NA,NA,NA,NA,NA,NA,NA,NA,NA,NA,NA,NA,NA,NA,40,80,40,80,NA,NA,NA,NA,NA,NA,NA,NA,NA,NA,NA,NA,NA,NA,NA,NA,NA,NA,"",NA,NA,NA,NA,NA,NA,NA,NA,2025-11-21 00:47:16
"11712.800000011921","https://psyc-201.github.io/xiang2023/exp/index1.html?PROLIFIC_PID=REDACTED&STUDY_ID=691f8ca61c6b4dcbb0aeb5f4&SESSION_ID=691fb4b3ae1a5d337997c9c2","survey-html-form",20,296503,"0.0-319.0","mpg80/HbJ7+yFYv9pXWENPkDDnI4FgA0DOYjPZ11/C5zrmARfUBHLp3RXowj8q5Q1lf0Ph/kAUa344ez0/RYytf8R1o530xuNmeCLcSQWsRpNjHopn6D070gWzV2qd1ZxRcyaSK7FXQTeQyah40wsdbyL1klxLgse5VDXLR9vJ+yaom1PvVxBhWK0dTDBrj4WlDlR6773mp/gfESLxglPPUW+2bX+kwb/per1+rOtXEhfFBFpw2z83a0ZQSWTZ59vskSUHxSZPCYBB3u5IzVd/n7ncm/NbEHiUKr+4s6DlMtjZDQGPftLo1lltcSu3bNjm7SEM6afmfvGor4ZNyDhg==","691f8ca61c6b4dcbb0aeb5f4","691fb4b3ae1a5d337997c9c2","index1","<span style='color:red'>Fail,<span style='color:red'>Fail,<span style='color:green'>Lift,<span style='color:green'>Lift,<span style='color:red'>Fail,<span style='color:red'>Fail,<span style='color:red'>Fail,<span style='color:red'>Fail,<span style='color:red'>Fail,<span style='color:green'>Lift,<span style='color:red'>Fail,<span style='color:green'>Lift","<span style='color:red'>Fail,<span style='color:red'>Fail,<span style='color:green'>Lift,<span style='color:green'>Lift,<span style='color:green'>Lift,<span style='color:green'>Lift,<span style='color:red'>Fail,<span style='color:green'>Lift,<span style='color:green'>Lift,<span style='color:green'>Lift,<span style='color:red'>Fail,<span style='color:green'>Lift","<span style='color:red'>Fail,<span style='color:green'>Lift,<span style='color:green'>Lift,<span style='color:red'>Fail,<span style='color:green'>Lift,<span style='color:green'>Lift","0,0,1,1,0,0,0,0,0,1,0,1","0,0,1,1,1,1,0,1,1,1,0,1","0,1,1,0,1,1",10,20,20,"","","","","{""box1"":""1"",""box2"":""8"",""box4"":""7""}","",NA,2,"round2_outcome",3,2,2,1,8,NA,7,0,1,20,NA,NA,NA,NA,NA,NA,NA,NA,NA,NA,NA,1,8,NA,7,0,1,20,NA,NA,NA,NA,NA,NA,NA,NA,NA,NA,NA,"",NA,NA,NA,NA,NA,NA,NA,NA,2025-11-21 00:47:16
"3598.7000000476837","https://psyc-201.github.io/xiang2023/exp/index1.html?PROLIFIC_PID=REDACTED&STUDY_ID=691f8ca61c6b4dcbb0aeb5f4&SESSION_ID=691fb4b3ae1a5d337997c9c2","survey-html-form",21,300105,"0.0-320.0","mpg80/HbJ7+yFYv9pXWENPkDDnI4FgA0DOYjPZ11/C5zrmARfUBHLp3RXowj8q5Q1lf0Ph/kAUa344ez0/RYytf8R1o530xuNmeCLcSQWsRpNjHopn6D070gWzV2qd1ZxRcyaSK7FXQTeQyah40wsdbyL1klxLgse5VDXLR9vJ+yaom1PvVxBhWK0dTDBrj4WlDlR6773mp/gfESLxglPPUW+2bX+kwb/per1+rOtXEhfFBFpw2z83a0ZQSWTZ59vskSUHxSZPCYBB3u5IzVd/n7ncm/NbEHiUKr+4s6DlMtjZDQGPftLo1lltcSu3bNjm7SEM6afmfvGor4ZNyDhg==","691f8ca61c6b4dcbb0aeb5f4","691fb4b3ae1a5d337997c9c2","index1","<span style='color:red'>Fail,<span style='color:red'>Fail,<span style='color:green'>Lift,<span style='color:green'>Lift,<span style='color:red'>Fail,<span style='color:red'>Fail,<span style='color:red'>Fail,<span style='color:red'>Fail,<span style='color:red'>Fail,<span style='color:green'>Lift,<span style='color:red'>Fail,<span style='color:green'>Lift","<span style='color:red'>Fail,<span style='color:red'>Fail,<span style='color:green'>Lift,<span style='color:green'>Lift,<span style='color:green'>Lift,<span style='color:green'>Lift,<span style='color:red'>Fail,<span style='color:green'>Lift,<span style='color:green'>Lift,<span style='color:green'>Lift,<span style='color:red'>Fail,<span style='color:green'>Lift","<span style='color:red'>Fail,<span style='color:green'>Lift,<span style='color:green'>Lift,<span style='color:red'>Fail,<span style='color:green'>Lift,<span style='color:green'>Lift","0,0,1,1,0,0,0,0,0,1,0,1","0,0,1,1,1,1,0,1,1,1,0,1","0,1,1,0,1,1",10,20,20,"","","","","{""box1"":""60""}","",NA,2,"round3_ready",4,2,3,NA,NA,NA,NA,NA,NA,NA,NA,NA,NA,NA,NA,NA,NA,60,60,NA,NA,NA,NA,NA,NA,NA,NA,NA,60,60,NA,NA,NA,NA,NA,NA,NA,NA,NA,"",NA,NA,NA,NA,NA,NA,NA,NA,2025-11-21 00:47:16
"13196.700000047684","https://psyc-201.github.io/xiang2023/exp/index1.html?PROLIFIC_PID=REDACTED&STUDY_ID=691f8ca61c6b4dcbb0aeb5f4&SESSION_ID=691fb4b3ae1a5d337997c9c2","survey-html-form",22,313304,"0.0-321.0-0.0","mpg80/HbJ7+yFYv9pXWENPkDDnI4FgA0DOYjPZ11/C5zrmARfUBHLp3RXowj8q5Q1lf0Ph/kAUa344ez0/RYytf8R1o530xuNmeCLcSQWsRpNjHopn6D070gWzV2qd1ZxRcyaSK7FXQTeQyah40wsdbyL1klxLgse5VDXLR9vJ+yaom1PvVxBhWK0dTDBrj4WlDlR6773mp/gfESLxglPPUW+2bX+kwb/per1+rOtXEhfFBFpw2z83a0ZQSWTZ59vskSUHxSZPCYBB3u5IzVd/n7ncm/NbEHiUKr+4s6DlMtjZDQGPftLo1lltcSu3bNjm7SEM6afmfvGor4ZNyDhg==","691f8ca61c6b4dcbb0aeb5f4","691fb4b3ae1a5d337997c9c2","index1","<span style='color:red'>Fail,<span style='color:red'>Fail,<span style='color:green'>Lift,<span style='color:green'>Lift,<span style='color:red'>Fail,<span style='color:red'>Fail,<span style='color:red'>Fail,<span style='color:red'>Fail,<span style='color:red'>Fail,<span style='color:green'>Lift,<span style='color:red'>Fail,<span style='color:green'>Lift","<span style='color:red'>Fail,<span style='color:red'>Fail,<span style='color:green'>Lift,<span style='color:green'>Lift,<span style='color:green'>Lift,<span style='color:green'>Lift,<span style='color:red'>Fail,<span style='color:green'>Lift,<span style='color:green'>Lift,<span style='color:green'>Lift,<span style='color:red'>Fail,<span style='color:green'>Lift","<span style='color:red'>Fail,<span style='color:green'>Lift,<span style='color:green'>Lift,<span style='color:red'>Fail,<span style='color:green'>Lift,<span style='color:green'>Lift","0,0,1,1,0,0,0,0,0,1,0,1","0,0,1,1,1,1,0,1,1,1,0,1","0,1,1,0,1,1",10,20,20,"","","","","{""box1"":""2"",""box2"":""8"",""box3"":""100"",""box4"":""50""}","",NA,3,"round3_lift",5,2,3,2,8,100,50,1,1,20,NA,NA,NA,NA,NA,NA,NA,NA,NA,NA,NA,NA,NA,NA,NA,NA,NA,NA,NA,NA,NA,NA,2,8,1,1,20,100,50,"",NA,NA,NA,NA,NA,NA,NA,NA,2025-11-21 00:47:16
"null","https://psyc-201.github.io/xiang2023/exp/index1.html?PROLIFIC_PID=REDACTED&STUDY_ID=691f8ca61c6b4dcbb0aeb5f4&SESSION_ID=691fb4b3ae1a5d337997c9c2","html-keyboard-response",23,316312,"0.0-325.0","mpg80/HbJ7+yFYv9pXWENPkDDnI4FgA0DOYjPZ11/C5zrmARfUBHLp3RXowj8q5Q1lf0Ph/kAUa344ez0/RYytf8R1o530xuNmeCLcSQWsRpNjHopn6D070gWzV2qd1ZxRcyaSK7FXQTeQyah40wsdbyL1klxLgse5VDXLR9vJ+yaom1PvVxBhWK0dTDBrj4WlDlR6773mp/gfESLxglPPUW+2bX+kwb/per1+rOtXEhfFBFpw2z83a0ZQSWTZ59vskSUHxSZPCYBB3u5IzVd/n7ncm/NbEHiUKr+4s6DlMtjZDQGPftLo1lltcSu3bNjm7SEM6afmfvGor4ZNyDhg==","691f8ca61c6b4dcbb0aeb5f4","691fb4b3ae1a5d337997c9c2","index1","<span style='color:red'>Fail,<span style='color:red'>Fail,<span style='color:green'>Lift,<span style='color:green'>Lift,<span style='color:red'>Fail,<span style='color:red'>Fail,<span style='color:red'>Fail,<span style='color:red'>Fail,<span style='color:red'>Fail,<span style='color:green'>Lift,<span style='color:red'>Fail,<span style='color:green'>Lift","<span style='color:red'>Fail,<span style='color:red'>Fail,<span style='color:green'>Lift,<span style='color:green'>Lift,<span style='color:green'>Lift,<span style='color:green'>Lift,<span style='color:red'>Fail,<span style='color:green'>Lift,<span style='color:green'>Lift,<span style='color:green'>Lift,<span style='color:red'>Fail,<span style='color:green'>Lift","<span style='color:red'>Fail,<span style='color:green'>Lift,<span style='color:green'>Lift,<span style='color:red'>Fail,<span style='color:green'>Lift,<span style='color:green'>Lift","0,0,1,1,0,0,0,0,0,1,0,1","0,0,1,1,1,1,0,1,1,1,0,1","0,1,1,0,1,1",10,20,20,"","","<p style='font-size:30px'><b> New Contest! </b></p>","null","","",NA,3,"",NA,NA,NA,NA,NA,NA,NA,NA,NA,NA,NA,NA,NA,NA,NA,NA,NA,NA,NA,NA,NA,NA,NA,NA,NA,NA,NA,NA,NA,NA,NA,NA,NA,NA,NA,NA,NA,NA,NA,"",NA,NA,NA,NA,NA,NA,NA,NA,2025-11-21 00:47:16
"5906.700000047684","https://psyc-201.github.io/xiang2023/exp/index1.html?PROLIFIC_PID=REDACTED&STUDY_ID=691f8ca61c6b4dcbb0aeb5f4&SESSION_ID=691fb4b3ae1a5d337997c9c2","survey-html-form",24,322220,"0.0-326.0","mpg80/HbJ7+yFYv9pXWENPkDDnI4FgA0DOYjPZ11/C5zrmARfUBHLp3RXowj8q5Q1lf0Ph/kAUa344ez0/RYytf8R1o530xuNmeCLcSQWsRpNjHopn6D070gWzV2qd1ZxRcyaSK7FXQTeQyah40wsdbyL1klxLgse5VDXLR9vJ+yaom1PvVxBhWK0dTDBrj4WlDlR6773mp/gfESLxglPPUW+2bX+kwb/per1+rOtXEhfFBFpw2z83a0ZQSWTZ59vskSUHxSZPCYBB3u5IzVd/n7ncm/NbEHiUKr+4s6DlMtjZDQGPftLo1lltcSu3bNjm7SEM6afmfvGor4ZNyDhg==","691f8ca61c6b4dcbb0aeb5f4","691fb4b3ae1a5d337997c9c2","index1","<span style='color:red'>Fail,<span style='color:red'>Fail,<span style='color:green'>Lift,<span style='color:green'>Lift,<span style='color:red'>Fail,<span style='color:red'>Fail,<span style='color:red'>Fail,<span style='color:red'>Fail,<span style='color:red'>Fail,<span style='color:green'>Lift,<span style='color:red'>Fail,<span style='color:green'>Lift","<span style='color:red'>Fail,<span style='color:red'>Fail,<span style='color:green'>Lift,<span style='color:green'>Lift,<span style='color:green'>Lift,<span style='color:green'>Lift,<span style='color:red'>Fail,<span style='color:green'>Lift,<span style='color:green'>Lift,<span style='color:green'>Lift,<span style='color:red'>Fail,<span style='color:green'>Lift","<span style='color:red'>Fail,<span style='color:green'>Lift,<span style='color:green'>Lift,<span style='color:red'>Fail,<span style='color:green'>Lift,<span style='color:green'>Lift","0,0,1,1,0,0,0,0,0,1,0,1","0,0,1,1,1,1,0,1,1,1,0,1","0,1,1,0,1,1",10,20,20,"","","","","{""box1"":""5"",""box2"":""5""}","",NA,3,"round1_outcome",1,3,1,5,5,NA,NA,0,0,10,5,5,NA,NA,0,0,10,NA,NA,NA,NA,NA,NA,NA,NA,NA,NA,NA,NA,NA,NA,NA,NA,NA,NA,NA,NA,NA,NA,"",NA,NA,NA,NA,NA,NA,NA,NA,2025-11-21 00:47:16
"4713.300000011921","https://psyc-201.github.io/xiang2023/exp/index1.html?PROLIFIC_PID=REDACTED&STUDY_ID=691f8ca61c6b4dcbb0aeb5f4&SESSION_ID=691fb4b3ae1a5d337997c9c2","survey-html-form",25,326938,"0.0-327.0","mpg80/HbJ7+yFYv9pXWENPkDDnI4FgA0DOYjPZ11/C5zrmARfUBHLp3RXowj8q5Q1lf0Ph/kAUa344ez0/RYytf8R1o530xuNmeCLcSQWsRpNjHopn6D070gWzV2qd1ZxRcyaSK7FXQTeQyah40wsdbyL1klxLgse5VDXLR9vJ+yaom1PvVxBhWK0dTDBrj4WlDlR6773mp/gfESLxglPPUW+2bX+kwb/per1+rOtXEhfFBFpw2z83a0ZQSWTZ59vskSUHxSZPCYBB3u5IzVd/n7ncm/NbEHiUKr+4s6DlMtjZDQGPftLo1lltcSu3bNjm7SEM6afmfvGor4ZNyDhg==","691f8ca61c6b4dcbb0aeb5f4","691fb4b3ae1a5d337997c9c2","index1","<span style='color:red'>Fail,<span style='color:red'>Fail,<span style='color:green'>Lift,<span style='color:green'>Lift,<span style='color:red'>Fail,<span style='color:red'>Fail,<span style='color:red'>Fail,<span style='color:red'>Fail,<span style='color:red'>Fail,<span style='color:green'>Lift,<span style='color:red'>Fail,<span style='color:green'>Lift","<span style='color:red'>Fail,<span style='color:red'>Fail,<span style='color:green'>Lift,<span style='color:green'>Lift,<span style='color:green'>Lift,<span style='color:green'>Lift,<span style='color:red'>Fail,<span style='color:green'>Lift,<span style='color:green'>Lift,<span style='color:green'>Lift,<span style='color:red'>Fail,<span style='color:green'>Lift","<span style='color:red'>Fail,<span style='color:green'>Lift,<span style='color:green'>Lift,<span style='color:red'>Fail,<span style='color:green'>Lift,<span style='color:green'>Lift","0,0,1,1,0,0,0,0,0,1,0,1","0,0,1,1,1,1,0,1,1,1,0,1","0,1,1,0,1,1",10,20,20,"","","","","{""box1"":""30"",""box2"":""30""}","",NA,3,"round2_ready",2,3,2,NA,NA,NA,NA,NA,NA,NA,NA,NA,NA,NA,NA,NA,NA,30,30,30,30,NA,NA,NA,NA,NA,NA,NA,NA,NA,NA,NA,NA,NA,NA,NA,NA,NA,NA,"",NA,NA,NA,NA,NA,NA,NA,NA,2025-11-21 00:47:16
"5877.300000011921","https://psyc-201.github.io/xiang2023/exp/index1.html?PROLIFIC_PID=REDACTED&STUDY_ID=691f8ca61c6b4dcbb0aeb5f4&SESSION_ID=691fb4b3ae1a5d337997c9c2","survey-html-form",26,332818,"0.0-328.0","mpg80/HbJ7+yFYv9pXWENPkDDnI4FgA0DOYjPZ11/C5zrmARfUBHLp3RXowj8q5Q1lf0Ph/kAUa344ez0/RYytf8R1o530xuNmeCLcSQWsRpNjHopn6D070gWzV2qd1ZxRcyaSK7FXQTeQyah40wsdbyL1klxLgse5VDXLR9vJ+yaom1PvVxBhWK0dTDBrj4WlDlR6773mp/gfESLxglPPUW+2bX+kwb/per1+rOtXEhfFBFpw2z83a0ZQSWTZ59vskSUHxSZPCYBB3u5IzVd/n7ncm/NbEHiUKr+4s6DlMtjZDQGPftLo1lltcSu3bNjm7SEM6afmfvGor4ZNyDhg==","691f8ca61c6b4dcbb0aeb5f4","691fb4b3ae1a5d337997c9c2","index1","<span style='color:red'>Fail,<span style='color:red'>Fail,<span style='color:green'>Lift,<span style='color:green'>Lift,<span style='color:red'>Fail,<span style='color:red'>Fail,<span style='color:red'>Fail,<span style='color:red'>Fail,<span style='color:red'>Fail,<span style='color:green'>Lift,<span style='color:red'>Fail,<span style='color:green'>Lift","<span style='color:red'>Fail,<span style='color:red'>Fail,<span style='color:green'>Lift,<span style='color:green'>Lift,<span style='color:green'>Lift,<span style='color:green'>Lift,<span style='color:red'>Fail,<span style='color:green'>Lift,<span style='color:green'>Lift,<span style='color:green'>Lift,<span style='color:red'>Fail,<span style='color:green'>Lift","<span style='color:red'>Fail,<span style='color:green'>Lift,<span style='color:green'>Lift,<span style='color:red'>Fail,<span style='color:green'>Lift,<span style='color:green'>Lift","0,0,1,1,0,0,0,0,0,1,0,1","0,0,1,1,1,1,0,1,1,1,0,1","0,1,1,0,1,1",10,20,20,"","","","","{""box1"":""2"",""box2"":""2""}","",NA,3,"round2_outcome",3,3,2,2,2,NA,NA,0,0,20,NA,NA,NA,NA,NA,NA,NA,NA,NA,NA,NA,2,2,NA,NA,0,0,20,NA,NA,NA,NA,NA,NA,NA,NA,NA,NA,NA,"",NA,NA,NA,NA,NA,NA,NA,NA,2025-11-21 00:47:16
"3663.5","https://psyc-201.github.io/xiang2023/exp/index1.html?PROLIFIC_PID=REDACTED&STUDY_ID=691f8ca61c6b4dcbb0aeb5f4&SESSION_ID=691fb4b3ae1a5d337997c9c2","survey-html-form",27,336483,"0.0-329.0","mpg80/HbJ7+yFYv9pXWENPkDDnI4FgA0DOYjPZ11/C5zrmARfUBHLp3RXowj8q5Q1lf0Ph/kAUa344ez0/RYytf8R1o530xuNmeCLcSQWsRpNjHopn6D070gWzV2qd1ZxRcyaSK7FXQTeQyah40wsdbyL1klxLgse5VDXLR9vJ+yaom1PvVxBhWK0dTDBrj4WlDlR6773mp/gfESLxglPPUW+2bX+kwb/per1+rOtXEhfFBFpw2z83a0ZQSWTZ59vskSUHxSZPCYBB3u5IzVd/n7ncm/NbEHiUKr+4s6DlMtjZDQGPftLo1lltcSu3bNjm7SEM6afmfvGor4ZNyDhg==","691f8ca61c6b4dcbb0aeb5f4","691fb4b3ae1a5d337997c9c2","index1","<span style='color:red'>Fail,<span style='color:red'>Fail,<span style='color:green'>Lift,<span style='color:green'>Lift,<span style='color:red'>Fail,<span style='color:red'>Fail,<span style='color:red'>Fail,<span style='color:red'>Fail,<span style='color:red'>Fail,<span style='color:green'>Lift,<span style='color:red'>Fail,<span style='color:green'>Lift","<span style='color:red'>Fail,<span style='color:red'>Fail,<span style='color:green'>Lift,<span style='color:green'>Lift,<span style='color:green'>Lift,<span style='color:green'>Lift,<span style='color:red'>Fail,<span style='color:green'>Lift,<span style='color:green'>Lift,<span style='color:green'>Lift,<span style='color:red'>Fail,<span style='color:green'>Lift","<span style='color:red'>Fail,<span style='color:green'>Lift,<span style='color:green'>Lift,<span style='color:red'>Fail,<span style='color:green'>Lift,<span style='color:green'>Lift","0,0,1,1,0,0,0,0,0,1,0,1","0,0,1,1,1,1,0,1,1,1,0,1","0,1,1,0,1,1",10,20,20,"","","","","{""box1"":""20""}","",NA,3,"round3_ready",4,3,3,NA,NA,NA,NA,NA,NA,NA,NA,NA,NA,NA,NA,NA,NA,20,20,NA,NA,NA,NA,NA,NA,NA,NA,NA,20,20,NA,NA,NA,NA,NA,NA,NA,NA,NA,"",NA,NA,NA,NA,NA,NA,NA,NA,2025-11-21 00:47:16
"6683.299999952316","https://psyc-201.github.io/xiang2023/exp/index1.html?PROLIFIC_PID=REDACTED&STUDY_ID=691f8ca61c6b4dcbb0aeb5f4&SESSION_ID=691fb4b3ae1a5d337997c9c2","survey-html-form",28,343169,"0.0-331.0-0.0","mpg80/HbJ7+yFYv9pXWENPkDDnI4FgA0DOYjPZ11/C5zrmARfUBHLp3RXowj8q5Q1lf0Ph/kAUa344ez0/RYytf8R1o530xuNmeCLcSQWsRpNjHopn6D070gWzV2qd1ZxRcyaSK7FXQTeQyah40wsdbyL1klxLgse5VDXLR9vJ+yaom1PvVxBhWK0dTDBrj4WlDlR6773mp/gfESLxglPPUW+2bX+kwb/per1+rOtXEhfFBFpw2z83a0ZQSWTZ59vskSUHxSZPCYBB3u5IzVd/n7ncm/NbEHiUKr+4s6DlMtjZDQGPftLo1lltcSu3bNjm7SEM6afmfvGor4ZNyDhg==","691f8ca61c6b4dcbb0aeb5f4","691fb4b3ae1a5d337997c9c2","index1","<span style='color:red'>Fail,<span style='color:red'>Fail,<span style='color:green'>Lift,<span style='color:green'>Lift,<span style='color:red'>Fail,<span style='color:red'>Fail,<span style='color:red'>Fail,<span style='color:red'>Fail,<span style='color:red'>Fail,<span style='color:green'>Lift,<span style='color:red'>Fail,<span style='color:green'>Lift","<span style='color:red'>Fail,<span style='color:red'>Fail,<span style='color:green'>Lift,<span style='color:green'>Lift,<span style='color:green'>Lift,<span style='color:green'>Lift,<span style='color:red'>Fail,<span style='color:green'>Lift,<span style='color:green'>Lift,<span style='color:green'>Lift,<span style='color:red'>Fail,<span style='color:green'>Lift","<span style='color:red'>Fail,<span style='color:green'>Lift,<span style='color:green'>Lift,<span style='color:red'>Fail,<span style='color:green'>Lift,<span style='color:green'>Lift","0,0,1,1,0,0,0,0,0,1,0,1","0,0,1,1,1,1,0,1,1,1,0,1","0,1,1,0,1,1",10,20,20,"","","","","{""box1"":""2"",""box2"":""2"",""box3"":""999"",""box4"":""999""}","",NA,4,"round3_fail",5,3,3,2,2,NA,NA,0,0,20,NA,NA,NA,NA,NA,NA,NA,NA,NA,NA,NA,NA,NA,NA,NA,NA,NA,NA,NA,NA,1,1,2,2,0,0,20,NA,NA,"",NA,NA,NA,NA,NA,NA,NA,NA,2025-11-21 00:47:16
"null","https://psyc-201.github.io/xiang2023/exp/index1.html?PROLIFIC_PID=REDACTED&STUDY_ID=691f8ca61c6b4dcbb0aeb5f4&SESSION_ID=691fb4b3ae1a5d337997c9c2","html-keyboard-response",29,346184,"0.0-334.0","mpg80/HbJ7+yFYv9pXWENPkDDnI4FgA0DOYjPZ11/C5zrmARfUBHLp3RXowj8q5Q1lf0Ph/kAUa344ez0/RYytf8R1o530xuNmeCLcSQWsRpNjHopn6D070gWzV2qd1ZxRcyaSK7FXQTeQyah40wsdbyL1klxLgse5VDXLR9vJ+yaom1PvVxBhWK0dTDBrj4WlDlR6773mp/gfESLxglPPUW+2bX+kwb/per1+rOtXEhfFBFpw2z83a0ZQSWTZ59vskSUHxSZPCYBB3u5IzVd/n7ncm/NbEHiUKr+4s6DlMtjZDQGPftLo1lltcSu3bNjm7SEM6afmfvGor4ZNyDhg==","691f8ca61c6b4dcbb0aeb5f4","691fb4b3ae1a5d337997c9c2","index1","<span style='color:red'>Fail,<span style='color:red'>Fail,<span style='color:green'>Lift,<span style='color:green'>Lift,<span style='color:red'>Fail,<span style='color:red'>Fail,<span style='color:red'>Fail,<span style='color:red'>Fail,<span style='color:red'>Fail,<span style='color:green'>Lift,<span style='color:red'>Fail,<span style='color:green'>Lift","<span style='color:red'>Fail,<span style='color:red'>Fail,<span style='color:green'>Lift,<span style='color:green'>Lift,<span style='color:green'>Lift,<span style='color:green'>Lift,<span style='color:red'>Fail,<span style='color:green'>Lift,<span style='color:green'>Lift,<span style='color:green'>Lift,<span style='color:red'>Fail,<span style='color:green'>Lift","<span style='color:red'>Fail,<span style='color:green'>Lift,<span style='color:green'>Lift,<span style='color:red'>Fail,<span style='color:green'>Lift,<span style='color:green'>Lift","0,0,1,1,0,0,0,0,0,1,0,1","0,0,1,1,1,1,0,1,1,1,0,1","0,1,1,0,1,1",10,20,20,"","","<p style='font-size:30px'><b> New Contest! </b></p>","null","","",NA,4,"",NA,NA,NA,NA,NA,NA,NA,NA,NA,NA,NA,NA,NA,NA,NA,NA,NA,NA,NA,NA,NA,NA,NA,NA,NA,NA,NA,NA,NA,NA,NA,NA,NA,NA,NA,NA,NA,NA,NA,"",NA,NA,NA,NA,NA,NA,NA,NA,2025-11-21 00:47:16
"10948.600000023842","https://psyc-201.github.io/xiang2023/exp/index1.html?PROLIFIC_PID=REDACTED&STUDY_ID=691f8ca61c6b4dcbb0aeb5f4&SESSION_ID=691fb4b3ae1a5d337997c9c2","survey-html-form",30,357134,"0.0-335.0","mpg80/HbJ7+yFYv9pXWENPkDDnI4FgA0DOYjPZ11/C5zrmARfUBHLp3RXowj8q5Q1lf0Ph/kAUa344ez0/RYytf8R1o530xuNmeCLcSQWsRpNjHopn6D070gWzV2qd1ZxRcyaSK7FXQTeQyah40wsdbyL1klxLgse5VDXLR9vJ+yaom1PvVxBhWK0dTDBrj4WlDlR6773mp/gfESLxglPPUW+2bX+kwb/per1+rOtXEhfFBFpw2z83a0ZQSWTZ59vskSUHxSZPCYBB3u5IzVd/n7ncm/NbEHiUKr+4s6DlMtjZDQGPftLo1lltcSu3bNjm7SEM6afmfvGor4ZNyDhg==","691f8ca61c6b4dcbb0aeb5f4","691fb4b3ae1a5d337997c9c2","index1","<span style='color:red'>Fail,<span style='color:red'>Fail,<span style='color:green'>Lift,<span style='color:green'>Lift,<span style='color:red'>Fail,<span style='color:red'>Fail,<span style='color:red'>Fail,<span style='color:red'>Fail,<span style='color:red'>Fail,<span style='color:green'>Lift,<span style='color:red'>Fail,<span style='color:green'>Lift","<span style='color:red'>Fail,<span style='color:red'>Fail,<span style='color:green'>Lift,<span style='color:green'>Lift,<span style='color:green'>Lift,<span style='color:green'>Lift,<span style='color:red'>Fail,<span style='color:green'>Lift,<span style='color:green'>Lift,<span style='color:green'>Lift,<span style='color:red'>Fail,<span style='color:green'>Lift","<span style='color:red'>Fail,<span style='color:green'>Lift,<span style='color:green'>Lift,<span style='color:red'>Fail,<span style='color:green'>Lift,<span style='color:green'>Lift","0,0,1,1,0,0,0,0,0,1,0,1","0,0,1,1,1,1,0,1,1,1,0,1","0,1,1,0,1,1",10,20,20,"","","","","{""box1"":""5"",""box2"":""5"",""box3"":""50"",""box4"":""50""}","",NA,4,"round1_outcome",1,4,1,5,5,50,50,1,1,10,5,5,50,50,1,1,10,NA,NA,NA,NA,NA,NA,NA,NA,NA,NA,NA,NA,NA,NA,NA,NA,NA,NA,NA,NA,NA,NA,"",NA,NA,NA,NA,NA,NA,NA,NA,2025-11-21 00:47:16
"5763.5","https://psyc-201.github.io/xiang2023/exp/index1.html?PROLIFIC_PID=REDACTED&STUDY_ID=691f8ca61c6b4dcbb0aeb5f4&SESSION_ID=691fb4b3ae1a5d337997c9c2","survey-html-form",31,362899,"0.0-336.0","mpg80/HbJ7+yFYv9pXWENPkDDnI4FgA0DOYjPZ11/C5zrmARfUBHLp3RXowj8q5Q1lf0Ph/kAUa344ez0/RYytf8R1o530xuNmeCLcSQWsRpNjHopn6D070gWzV2qd1ZxRcyaSK7FXQTeQyah40wsdbyL1klxLgse5VDXLR9vJ+yaom1PvVxBhWK0dTDBrj4WlDlR6773mp/gfESLxglPPUW+2bX+kwb/per1+rOtXEhfFBFpw2z83a0ZQSWTZ59vskSUHxSZPCYBB3u5IzVd/n7ncm/NbEHiUKr+4s6DlMtjZDQGPftLo1lltcSu3bNjm7SEM6afmfvGor4ZNyDhg==","691f8ca61c6b4dcbb0aeb5f4","691fb4b3ae1a5d337997c9c2","index1","<span style='color:red'>Fail,<span style='color:red'>Fail,<span style='color:green'>Lift,<span style='color:green'>Lift,<span style='color:red'>Fail,<span style='color:red'>Fail,<span style='color:red'>Fail,<span style='color:red'>Fail,<span style='color:red'>Fail,<span style='color:green'>Lift,<span style='color:red'>Fail,<span style='color:green'>Lift","<span style='color:red'>Fail,<span style='color:red'>Fail,<span style='color:green'>Lift,<span style='color:green'>Lift,<span style='color:green'>Lift,<span style='color:green'>Lift,<span style='color:red'>Fail,<span style='color:green'>Lift,<span style='color:green'>Lift,<span style='color:green'>Lift,<span style='color:red'>Fail,<span style='color:green'>Lift","<span style='color:red'>Fail,<span style='color:green'>Lift,<span style='color:green'>Lift,<span style='color:red'>Fail,<span style='color:green'>Lift,<span style='color:green'>Lift","0,0,1,1,0,0,0,0,0,1,0,1","0,0,1,1,1,1,0,1,1,1,0,1","0,1,1,0,1,1",10,20,20,"","","","","{""box1"":""80"",""box2"":""80""}","",NA,4,"round2_ready",2,4,2,NA,NA,NA,NA,NA,NA,NA,NA,NA,NA,NA,NA,NA,NA,80,80,80,80,NA,NA,NA,NA,NA,NA,NA,NA,NA,NA,NA,NA,NA,NA,NA,NA,NA,NA,"",NA,NA,NA,NA,NA,NA,NA,NA,2025-11-21 00:47:16
"9182.300000011921","https://psyc-201.github.io/xiang2023/exp/index1.html?PROLIFIC_PID=REDACTED&STUDY_ID=691f8ca61c6b4dcbb0aeb5f4&SESSION_ID=691fb4b3ae1a5d337997c9c2","survey-html-form",32,372083,"0.0-337.0","mpg80/HbJ7+yFYv9pXWENPkDDnI4FgA0DOYjPZ11/C5zrmARfUBHLp3RXowj8q5Q1lf0Ph/kAUa344ez0/RYytf8R1o530xuNmeCLcSQWsRpNjHopn6D070gWzV2qd1ZxRcyaSK7FXQTeQyah40wsdbyL1klxLgse5VDXLR9vJ+yaom1PvVxBhWK0dTDBrj4WlDlR6773mp/gfESLxglPPUW+2bX+kwb/per1+rOtXEhfFBFpw2z83a0ZQSWTZ59vskSUHxSZPCYBB3u5IzVd/n7ncm/NbEHiUKr+4s6DlMtjZDQGPftLo1lltcSu3bNjm7SEM6afmfvGor4ZNyDhg==","691f8ca61c6b4dcbb0aeb5f4","691fb4b3ae1a5d337997c9c2","index1","<span style='color:red'>Fail,<span style='color:red'>Fail,<span style='color:green'>Lift,<span style='color:green'>Lift,<span style='color:red'>Fail,<span style='color:red'>Fail,<span style='color:red'>Fail,<span style='color:red'>Fail,<span style='color:red'>Fail,<span style='color:green'>Lift,<span style='color:red'>Fail,<span style='color:green'>Lift","<span style='color:red'>Fail,<span style='color:red'>Fail,<span style='color:green'>Lift,<span style='color:green'>Lift,<span style='color:green'>Lift,<span style='color:green'>Lift,<span style='color:red'>Fail,<span style='color:green'>Lift,<span style='color:green'>Lift,<span style='color:green'>Lift,<span style='color:red'>Fail,<span style='color:green'>Lift","<span style='color:red'>Fail,<span style='color:green'>Lift,<span style='color:green'>Lift,<span style='color:red'>Fail,<span style='color:green'>Lift,<span style='color:green'>Lift","0,0,1,1,0,0,0,0,0,1,0,1","0,0,1,1,1,1,0,1,1,1,0,1","0,1,1,0,1,1",10,20,20,"","","","","{""box1"":""5"",""box2"":""5"",""box3"":""75"",""box4"":""75""}","",NA,4,"round2_outcome",3,4,2,5,5,75,75,1,1,20,NA,NA,NA,NA,NA,NA,NA,NA,NA,NA,NA,5,5,75,75,1,1,20,NA,NA,NA,NA,NA,NA,NA,NA,NA,NA,NA,"",NA,NA,NA,NA,NA,NA,NA,NA,2025-11-21 00:47:16
"2729.599999964237","https://psyc-201.github.io/xiang2023/exp/index1.html?PROLIFIC_PID=REDACTED&STUDY_ID=691f8ca61c6b4dcbb0aeb5f4&SESSION_ID=691fb4b3ae1a5d337997c9c2","survey-html-form",33,374815,"0.0-338.0","mpg80/HbJ7+yFYv9pXWENPkDDnI4FgA0DOYjPZ11/C5zrmARfUBHLp3RXowj8q5Q1lf0Ph/kAUa344ez0/RYytf8R1o530xuNmeCLcSQWsRpNjHopn6D070gWzV2qd1ZxRcyaSK7FXQTeQyah40wsdbyL1klxLgse5VDXLR9vJ+yaom1PvVxBhWK0dTDBrj4WlDlR6773mp/gfESLxglPPUW+2bX+kwb/per1+rOtXEhfFBFpw2z83a0ZQSWTZ59vskSUHxSZPCYBB3u5IzVd/n7ncm/NbEHiUKr+4s6DlMtjZDQGPftLo1lltcSu3bNjm7SEM6afmfvGor4ZNyDhg==","691f8ca61c6b4dcbb0aeb5f4","691fb4b3ae1a5d337997c9c2","index1","<span style='color:red'>Fail,<span style='color:red'>Fail,<span style='color:green'>Lift,<span style='color:green'>Lift,<span style='color:red'>Fail,<span style='color:red'>Fail,<span style='color:red'>Fail,<span style='color:red'>Fail,<span style='color:red'>Fail,<span style='color:green'>Lift,<span style='color:red'>Fail,<span style='color:green'>Lift","<span style='color:red'>Fail,<span style='color:red'>Fail,<span style='color:green'>Lift,<span style='color:green'>Lift,<span style='color:green'>Lift,<span style='color:green'>Lift,<span style='color:red'>Fail,<span style='color:green'>Lift,<span style='color:green'>Lift,<span style='color:green'>Lift,<span style='color:red'>Fail,<span style='color:green'>Lift","<span style='color:red'>Fail,<span style='color:green'>Lift,<span style='color:green'>Lift,<span style='color:red'>Fail,<span style='color:green'>Lift,<span style='color:green'>Lift","0,0,1,1,0,0,0,0,0,1,0,1","0,0,1,1,1,1,0,1,1,1,0,1","0,1,1,0,1,1",10,20,20,"","","","","{""box1"":""100""}","",NA,4,"round3_ready",4,4,3,NA,NA,NA,NA,NA,NA,NA,NA,NA,NA,NA,NA,NA,NA,100,100,NA,NA,NA,NA,NA,NA,NA,NA,NA,100,100,NA,NA,NA,NA,NA,NA,NA,NA,NA,"",NA,NA,NA,NA,NA,NA,NA,NA,2025-11-21 00:47:16
"5982","https://psyc-201.github.io/xiang2023/exp/index1.html?PROLIFIC_PID=REDACTED&STUDY_ID=691f8ca61c6b4dcbb0aeb5f4&SESSION_ID=691fb4b3ae1a5d337997c9c2","survey-html-form",34,380799,"0.0-339.0-0.0","mpg80/HbJ7+yFYv9pXWENPkDDnI4FgA0DOYjPZ11/C5zrmARfUBHLp3RXowj8q5Q1lf0Ph/kAUa344ez0/RYytf8R1o530xuNmeCLcSQWsRpNjHopn6D070gWzV2qd1ZxRcyaSK7FXQTeQyah40wsdbyL1klxLgse5VDXLR9vJ+yaom1PvVxBhWK0dTDBrj4WlDlR6773mp/gfESLxglPPUW+2bX+kwb/per1+rOtXEhfFBFpw2z83a0ZQSWTZ59vskSUHxSZPCYBB3u5IzVd/n7ncm/NbEHiUKr+4s6DlMtjZDQGPftLo1lltcSu3bNjm7SEM6afmfvGor4ZNyDhg==","691f8ca61c6b4dcbb0aeb5f4","691fb4b3ae1a5d337997c9c2","index1","<span style='color:red'>Fail,<span style='color:red'>Fail,<span style='color:green'>Lift,<span style='color:green'>Lift,<span style='color:red'>Fail,<span style='color:red'>Fail,<span style='color:red'>Fail,<span style='color:red'>Fail,<span style='color:red'>Fail,<span style='color:green'>Lift,<span style='color:red'>Fail,<span style='color:green'>Lift","<span style='color:red'>Fail,<span style='color:red'>Fail,<span style='color:green'>Lift,<span style='color:green'>Lift,<span style='color:green'>Lift,<span style='color:green'>Lift,<span style='color:red'>Fail,<span style='color:green'>Lift,<span style='color:green'>Lift,<span style='color:green'>Lift,<span style='color:red'>Fail,<span style='color:green'>Lift","<span style='color:red'>Fail,<span style='color:green'>Lift,<span style='color:green'>Lift,<span style='color:red'>Fail,<span style='color:green'>Lift,<span style='color:green'>Lift","0,0,1,1,0,0,0,0,0,1,0,1","0,0,1,1,1,1,0,1,1,1,0,1","0,1,1,0,1,1",10,20,20,"","","","","{""box1"":""5"",""box2"":""5"",""box3"":""50"",""box4"":""50""}","",NA,5,"round3_lift",5,4,3,5,5,50,50,1,1,20,NA,NA,NA,NA,NA,NA,NA,NA,NA,NA,NA,NA,NA,NA,NA,NA,NA,NA,NA,NA,NA,NA,5,5,1,1,20,50,50,"",NA,NA,NA,NA,NA,NA,NA,NA,2025-11-21 00:47:16
"null","https://psyc-201.github.io/xiang2023/exp/index1.html?PROLIFIC_PID=REDACTED&STUDY_ID=691f8ca61c6b4dcbb0aeb5f4&SESSION_ID=691fb4b3ae1a5d337997c9c2","html-keyboard-response",35,383803,"0.0-343.0","mpg80/HbJ7+yFYv9pXWENPkDDnI4FgA0DOYjPZ11/C5zrmARfUBHLp3RXowj8q5Q1lf0Ph/kAUa344ez0/RYytf8R1o530xuNmeCLcSQWsRpNjHopn6D070gWzV2qd1ZxRcyaSK7FXQTeQyah40wsdbyL1klxLgse5VDXLR9vJ+yaom1PvVxBhWK0dTDBrj4WlDlR6773mp/gfESLxglPPUW+2bX+kwb/per1+rOtXEhfFBFpw2z83a0ZQSWTZ59vskSUHxSZPCYBB3u5IzVd/n7ncm/NbEHiUKr+4s6DlMtjZDQGPftLo1lltcSu3bNjm7SEM6afmfvGor4ZNyDhg==","691f8ca61c6b4dcbb0aeb5f4","691fb4b3ae1a5d337997c9c2","index1","<span style='color:red'>Fail,<span style='color:red'>Fail,<span style='color:green'>Lift,<span style='color:green'>Lift,<span style='color:red'>Fail,<span style='color:red'>Fail,<span style='color:red'>Fail,<span style='color:red'>Fail,<span style='color:red'>Fail,<span style='color:green'>Lift,<span style='color:red'>Fail,<span style='color:green'>Lift","<span style='color:red'>Fail,<span style='color:red'>Fail,<span style='color:green'>Lift,<span style='color:green'>Lift,<span style='color:green'>Lift,<span style='color:green'>Lift,<span style='color:red'>Fail,<span style='color:green'>Lift,<span style='color:green'>Lift,<span style='color:green'>Lift,<span style='color:red'>Fail,<span style='color:green'>Lift","<span style='color:red'>Fail,<span style='color:green'>Lift,<span style='color:green'>Lift,<span style='color:red'>Fail,<span style='color:green'>Lift,<span style='color:green'>Lift","0,0,1,1,0,0,0,0,0,1,0,1","0,0,1,1,1,1,0,1,1,1,0,1","0,1,1,0,1,1",10,20,20,"","","<p style='font-size:30px'><b> New Contest! </b></p>","null","","",NA,5,"",NA,NA,NA,NA,NA,NA,NA,NA,NA,NA,NA,NA,NA,NA,NA,NA,NA,NA,NA,NA,NA,NA,NA,NA,NA,NA,NA,NA,NA,NA,NA,NA,NA,NA,NA,NA,NA,NA,NA,"",NA,NA,NA,NA,NA,NA,NA,NA,2025-11-21 00:47:16
"7077","https://psyc-201.github.io/xiang2023/exp/index1.html?PROLIFIC_PID=REDACTED&STUDY_ID=691f8ca61c6b4dcbb0aeb5f4&SESSION_ID=691fb4b3ae1a5d337997c9c2","survey-html-form",36,390882,"0.0-344.0","mpg80/HbJ7+yFYv9pXWENPkDDnI4FgA0DOYjPZ11/C5zrmARfUBHLp3RXowj8q5Q1lf0Ph/kAUa344ez0/RYytf8R1o530xuNmeCLcSQWsRpNjHopn6D070gWzV2qd1ZxRcyaSK7FXQTeQyah40wsdbyL1klxLgse5VDXLR9vJ+yaom1PvVxBhWK0dTDBrj4WlDlR6773mp/gfESLxglPPUW+2bX+kwb/per1+rOtXEhfFBFpw2z83a0ZQSWTZ59vskSUHxSZPCYBB3u5IzVd/n7ncm/NbEHiUKr+4s6DlMtjZDQGPftLo1lltcSu3bNjm7SEM6afmfvGor4ZNyDhg==","691f8ca61c6b4dcbb0aeb5f4","691fb4b3ae1a5d337997c9c2","index1","<span style='color:red'>Fail,<span style='color:red'>Fail,<span style='color:green'>Lift,<span style='color:green'>Lift,<span style='color:red'>Fail,<span style='color:red'>Fail,<span style='color:red'>Fail,<span style='color:red'>Fail,<span style='color:red'>Fail,<span style='color:green'>Lift,<span style='color:red'>Fail,<span style='color:green'>Lift","<span style='color:red'>Fail,<span style='color:red'>Fail,<span style='color:green'>Lift,<span style='color:green'>Lift,<span style='color:green'>Lift,<span style='color:green'>Lift,<span style='color:red'>Fail,<span style='color:green'>Lift,<span style='color:green'>Lift,<span style='color:green'>Lift,<span style='color:red'>Fail,<span style='color:green'>Lift","<span style='color:red'>Fail,<span style='color:green'>Lift,<span style='color:green'>Lift,<span style='color:red'>Fail,<span style='color:green'>Lift,<span style='color:green'>Lift","0,0,1,1,0,0,0,0,0,1,0,1","0,0,1,1,1,1,0,1,1,1,0,1","0,1,1,0,1,1",10,20,20,"","","","","{""box1"":""2"",""box2"":""5"",""box4"":""50""}","",NA,5,"round1_outcome",1,5,1,2,5,NA,50,0,1,10,2,5,NA,50,0,1,10,NA,NA,NA,NA,NA,NA,NA,NA,NA,NA,NA,NA,NA,NA,NA,NA,NA,NA,NA,NA,NA,NA,"",NA,NA,NA,NA,NA,NA,NA,NA,2025-11-21 00:47:16
"4482.800000011921","https://psyc-201.github.io/xiang2023/exp/index1.html?PROLIFIC_PID=REDACTED&STUDY_ID=691f8ca61c6b4dcbb0aeb5f4&SESSION_ID=691fb4b3ae1a5d337997c9c2","survey-html-form",37,395367,"0.0-345.0","mpg80/HbJ7+yFYv9pXWENPkDDnI4FgA0DOYjPZ11/C5zrmARfUBHLp3RXowj8q5Q1lf0Ph/kAUa344ez0/RYytf8R1o530xuNmeCLcSQWsRpNjHopn6D070gWzV2qd1ZxRcyaSK7FXQTeQyah40wsdbyL1klxLgse5VDXLR9vJ+yaom1PvVxBhWK0dTDBrj4WlDlR6773mp/gfESLxglPPUW+2bX+kwb/per1+rOtXEhfFBFpw2z83a0ZQSWTZ59vskSUHxSZPCYBB3u5IzVd/n7ncm/NbEHiUKr+4s6DlMtjZDQGPftLo1lltcSu3bNjm7SEM6afmfvGor4ZNyDhg==","691f8ca61c6b4dcbb0aeb5f4","691fb4b3ae1a5d337997c9c2","index1","<span style='color:red'>Fail,<span style='color:red'>Fail,<span style='color:green'>Lift,<span style='color:green'>Lift,<span style='color:red'>Fail,<span style='color:red'>Fail,<span style='color:red'>Fail,<span style='color:red'>Fail,<span style='color:red'>Fail,<span style='color:green'>Lift,<span style='color:red'>Fail,<span style='color:green'>Lift","<span style='color:red'>Fail,<span style='color:red'>Fail,<span style='color:green'>Lift,<span style='color:green'>Lift,<span style='color:green'>Lift,<span style='color:green'>Lift,<span style='color:red'>Fail,<span style='color:green'>Lift,<span style='color:green'>Lift,<span style='color:green'>Lift,<span style='color:red'>Fail,<span style='color:green'>Lift","<span style='color:red'>Fail,<span style='color:green'>Lift,<span style='color:green'>Lift,<span style='color:red'>Fail,<span style='color:green'>Lift,<span style='color:green'>Lift","0,0,1,1,0,0,0,0,0,1,0,1","0,0,1,1,1,1,0,1,1,1,0,1","0,1,1,0,1,1",10,20,20,"","","","","{""box1"":""20"",""box2"":""60""}","",NA,5,"round2_ready",2,5,2,NA,NA,NA,NA,NA,NA,NA,NA,NA,NA,NA,NA,NA,NA,20,60,20,60,NA,NA,NA,NA,NA,NA,NA,NA,NA,NA,NA,NA,NA,NA,NA,NA,NA,NA,"",NA,NA,NA,NA,NA,NA,NA,NA,2025-11-21 00:47:16
"10812.900000035763","https://psyc-201.github.io/xiang2023/exp/index1.html?PROLIFIC_PID=REDACTED&STUDY_ID=691f8ca61c6b4dcbb0aeb5f4&SESSION_ID=691fb4b3ae1a5d337997c9c2","survey-html-form",38,406182,"0.0-346.0","mpg80/HbJ7+yFYv9pXWENPkDDnI4FgA0DOYjPZ11/C5zrmARfUBHLp3RXowj8q5Q1lf0Ph/kAUa344ez0/RYytf8R1o530xuNmeCLcSQWsRpNjHopn6D070gWzV2qd1ZxRcyaSK7FXQTeQyah40wsdbyL1klxLgse5VDXLR9vJ+yaom1PvVxBhWK0dTDBrj4WlDlR6773mp/gfESLxglPPUW+2bX+kwb/per1+rOtXEhfFBFpw2z83a0ZQSWTZ59vskSUHxSZPCYBB3u5IzVd/n7ncm/NbEHiUKr+4s6DlMtjZDQGPftLo1lltcSu3bNjm7SEM6afmfvGor4ZNyDhg==","691f8ca61c6b4dcbb0aeb5f4","691fb4b3ae1a5d337997c9c2","index1","<span style='color:red'>Fail,<span style='color:red'>Fail,<span style='color:green'>Lift,<span style='color:green'>Lift,<span style='color:red'>Fail,<span style='color:red'>Fail,<span style='color:red'>Fail,<span style='color:red'>Fail,<span style='color:red'>Fail,<span style='color:green'>Lift,<span style='color:red'>Fail,<span style='color:green'>Lift","<span style='color:red'>Fail,<span style='color:red'>Fail,<span style='color:green'>Lift,<span style='color:green'>Lift,<span style='color:green'>Lift,<span style='color:green'>Lift,<span style='color:red'>Fail,<span style='color:green'>Lift,<span style='color:green'>Lift,<span style='color:green'>Lift,<span style='color:red'>Fail,<span style='color:green'>Lift","<span style='color:red'>Fail,<span style='color:green'>Lift,<span style='color:green'>Lift,<span style='color:red'>Fail,<span style='color:green'>Lift,<span style='color:green'>Lift","0,0,1,1,0,0,0,0,0,1,0,1","0,0,1,1,1,1,0,1,1,1,0,1","0,1,1,0,1,1",10,20,20,"","","","","{""box1"":""4"",""box2"":""6"",""box3"":""60"",""box4"":""40""}","",NA,5,"round2_outcome",3,5,2,4,6,60,40,1,1,20,NA,NA,NA,NA,NA,NA,NA,NA,NA,NA,NA,4,6,60,40,1,1,20,NA,NA,NA,NA,NA,NA,NA,NA,NA,NA,NA,"",NA,NA,NA,NA,NA,NA,NA,NA,2025-11-21 00:47:16
"5114.900000035763","https://psyc-201.github.io/xiang2023/exp/index1.html?PROLIFIC_PID=REDACTED&STUDY_ID=691f8ca61c6b4dcbb0aeb5f4&SESSION_ID=691fb4b3ae1a5d337997c9c2","survey-html-form",39,411298,"0.0-347.0","mpg80/HbJ7+yFYv9pXWENPkDDnI4FgA0DOYjPZ11/C5zrmARfUBHLp3RXowj8q5Q1lf0Ph/kAUa344ez0/RYytf8R1o530xuNmeCLcSQWsRpNjHopn6D070gWzV2qd1ZxRcyaSK7FXQTeQyah40wsdbyL1klxLgse5VDXLR9vJ+yaom1PvVxBhWK0dTDBrj4WlDlR6773mp/gfESLxglPPUW+2bX+kwb/per1+rOtXEhfFBFpw2z83a0ZQSWTZ59vskSUHxSZPCYBB3u5IzVd/n7ncm/NbEHiUKr+4s6DlMtjZDQGPftLo1lltcSu3bNjm7SEM6afmfvGor4ZNyDhg==","691f8ca61c6b4dcbb0aeb5f4","691fb4b3ae1a5d337997c9c2","index1","<span style='color:red'>Fail,<span style='color:red'>Fail,<span style='color:green'>Lift,<span style='color:green'>Lift,<span style='color:red'>Fail,<span style='color:red'>Fail,<span style='color:red'>Fail,<span style='color:red'>Fail,<span style='color:red'>Fail,<span style='color:green'>Lift,<span style='color:red'>Fail,<span style='color:green'>Lift","<span style='color:red'>Fail,<span style='color:red'>Fail,<span style='color:green'>Lift,<span style='color:green'>Lift,<span style='color:green'>Lift,<span style='color:green'>Lift,<span style='color:red'>Fail,<span style='color:green'>Lift,<span style='color:green'>Lift,<span style='color:green'>Lift,<span style='color:red'>Fail,<span style='color:green'>Lift","<span style='color:red'>Fail,<span style='color:green'>Lift,<span style='color:green'>Lift,<span style='color:red'>Fail,<span style='color:green'>Lift,<span style='color:green'>Lift","0,0,1,1,0,0,0,0,0,1,0,1","0,0,1,1,1,1,0,1,1,1,0,1","0,1,1,0,1,1",10,20,20,"","","","","{""box1"":""80""}","",NA,5,"round3_ready",4,5,3,NA,NA,NA,NA,NA,NA,NA,NA,NA,NA,NA,NA,NA,NA,80,80,NA,NA,NA,NA,NA,NA,NA,NA,NA,80,80,NA,NA,NA,NA,NA,NA,NA,NA,NA,"",NA,NA,NA,NA,NA,NA,NA,NA,2025-11-21 00:47:16
"8514.800000011921","https://psyc-201.github.io/xiang2023/exp/index1.html?PROLIFIC_PID=REDACTED&STUDY_ID=691f8ca61c6b4dcbb0aeb5f4&SESSION_ID=691fb4b3ae1a5d337997c9c2","survey-html-form",40,419815,"0.0-348.0-0.0","mpg80/HbJ7+yFYv9pXWENPkDDnI4FgA0DOYjPZ11/C5zrmARfUBHLp3RXowj8q5Q1lf0Ph/kAUa344ez0/RYytf8R1o530xuNmeCLcSQWsRpNjHopn6D070gWzV2qd1ZxRcyaSK7FXQTeQyah40wsdbyL1klxLgse5VDXLR9vJ+yaom1PvVxBhWK0dTDBrj4WlDlR6773mp/gfESLxglPPUW+2bX+kwb/per1+rOtXEhfFBFpw2z83a0ZQSWTZ59vskSUHxSZPCYBB3u5IzVd/n7ncm/NbEHiUKr+4s6DlMtjZDQGPftLo1lltcSu3bNjm7SEM6afmfvGor4ZNyDhg==","691f8ca61c6b4dcbb0aeb5f4","691fb4b3ae1a5d337997c9c2","index1","<span style='color:red'>Fail,<span style='color:red'>Fail,<span style='color:green'>Lift,<span style='color:green'>Lift,<span style='color:red'>Fail,<span style='color:red'>Fail,<span style='color:red'>Fail,<span style='color:red'>Fail,<span style='color:red'>Fail,<span style='color:green'>Lift,<span style='color:red'>Fail,<span style='color:green'>Lift","<span style='color:red'>Fail,<span style='color:red'>Fail,<span style='color:green'>Lift,<span style='color:green'>Lift,<span style='color:green'>Lift,<span style='color:green'>Lift,<span style='color:red'>Fail,<span style='color:green'>Lift,<span style='color:green'>Lift,<span style='color:green'>Lift,<span style='color:red'>Fail,<span style='color:green'>Lift","<span style='color:red'>Fail,<span style='color:green'>Lift,<span style='color:green'>Lift,<span style='color:red'>Fail,<span style='color:green'>Lift,<span style='color:green'>Lift","0,0,1,1,0,0,0,0,0,1,0,1","0,0,1,1,1,1,0,1,1,1,0,1","0,1,1,0,1,1",10,20,20,"","","","","{""box1"":""3"",""box2"":""7"",""box3"":""70"",""box4"":""30""}","",NA,6,"round3_lift",5,5,3,3,7,70,30,1,1,20,NA,NA,NA,NA,NA,NA,NA,NA,NA,NA,NA,NA,NA,NA,NA,NA,NA,NA,NA,NA,NA,NA,3,7,1,1,20,70,30,"",NA,NA,NA,NA,NA,NA,NA,NA,2025-11-21 00:47:16
"null","https://psyc-201.github.io/xiang2023/exp/index1.html?PROLIFIC_PID=REDACTED&STUDY_ID=691f8ca61c6b4dcbb0aeb5f4&SESSION_ID=691fb4b3ae1a5d337997c9c2","html-keyboard-response",41,422823,"0.0-352.0","mpg80/HbJ7+yFYv9pXWENPkDDnI4FgA0DOYjPZ11/C5zrmARfUBHLp3RXowj8q5Q1lf0Ph/kAUa344ez0/RYytf8R1o530xuNmeCLcSQWsRpNjHopn6D070gWzV2qd1ZxRcyaSK7FXQTeQyah40wsdbyL1klxLgse5VDXLR9vJ+yaom1PvVxBhWK0dTDBrj4WlDlR6773mp/gfESLxglPPUW+2bX+kwb/per1+rOtXEhfFBFpw2z83a0ZQSWTZ59vskSUHxSZPCYBB3u5IzVd/n7ncm/NbEHiUKr+4s6DlMtjZDQGPftLo1lltcSu3bNjm7SEM6afmfvGor4ZNyDhg==","691f8ca61c6b4dcbb0aeb5f4","691fb4b3ae1a5d337997c9c2","index1","<span style='color:red'>Fail,<span style='color:red'>Fail,<span style='color:green'>Lift,<span style='color:green'>Lift,<span style='color:red'>Fail,<span style='color:red'>Fail,<span style='color:red'>Fail,<span style='color:red'>Fail,<span style='color:red'>Fail,<span style='color:green'>Lift,<span style='color:red'>Fail,<span style='color:green'>Lift","<span style='color:red'>Fail,<span style='color:red'>Fail,<span style='color:green'>Lift,<span style='color:green'>Lift,<span style='color:green'>Lift,<span style='color:green'>Lift,<span style='color:red'>Fail,<span style='color:green'>Lift,<span style='color:green'>Lift,<span style='color:green'>Lift,<span style='color:red'>Fail,<span style='color:green'>Lift","<span style='color:red'>Fail,<span style='color:green'>Lift,<span style='color:green'>Lift,<span style='color:red'>Fail,<span style='color:green'>Lift,<span style='color:green'>Lift","0,0,1,1,0,0,0,0,0,1,0,1","0,0,1,1,1,1,0,1,1,1,0,1","0,1,1,0,1,1",10,20,20,"","","<p style='font-size:30px'><b> New Contest! </b></p>","null","","",NA,6,"",NA,NA,NA,NA,NA,NA,NA,NA,NA,NA,NA,NA,NA,NA,NA,NA,NA,NA,NA,NA,NA,NA,NA,NA,NA,NA,NA,NA,NA,NA,NA,NA,NA,NA,NA,NA,NA,NA,NA,"",NA,NA,NA,NA,NA,NA,NA,NA,2025-11-21 00:47:16
"3406.5","https://psyc-201.github.io/xiang2023/exp/index1.html?PROLIFIC_PID=REDACTED&STUDY_ID=691f8ca61c6b4dcbb0aeb5f4&SESSION_ID=691fb4b3ae1a5d337997c9c2","survey-html-form",42,426231,"0.0-353.0","mpg80/HbJ7+yFYv9pXWENPkDDnI4FgA0DOYjPZ11/C5zrmARfUBHLp3RXowj8q5Q1lf0Ph/kAUa344ez0/RYytf8R1o530xuNmeCLcSQWsRpNjHopn6D070gWzV2qd1ZxRcyaSK7FXQTeQyah40wsdbyL1klxLgse5VDXLR9vJ+yaom1PvVxBhWK0dTDBrj4WlDlR6773mp/gfESLxglPPUW+2bX+kwb/per1+rOtXEhfFBFpw2z83a0ZQSWTZ59vskSUHxSZPCYBB3u5IzVd/n7ncm/NbEHiUKr+4s6DlMtjZDQGPftLo1lltcSu3bNjm7SEM6afmfvGor4ZNyDhg==","691f8ca61c6b4dcbb0aeb5f4","691fb4b3ae1a5d337997c9c2","index1","<span style='color:red'>Fail,<span style='color:red'>Fail,<span style='color:green'>Lift,<span style='color:green'>Lift,<span style='color:red'>Fail,<span style='color:red'>Fail,<span style='color:red'>Fail,<span style='color:red'>Fail,<span style='color:red'>Fail,<span style='color:green'>Lift,<span style='color:red'>Fail,<span style='color:green'>Lift","<span style='color:red'>Fail,<span style='color:red'>Fail,<span style='color:green'>Lift,<span style='color:green'>Lift,<span style='color:green'>Lift,<span style='color:green'>Lift,<span style='color:red'>Fail,<span style='color:green'>Lift,<span style='color:green'>Lift,<span style='color:green'>Lift,<span style='color:red'>Fail,<span style='color:green'>Lift","<span style='color:red'>Fail,<span style='color:green'>Lift,<span style='color:green'>Lift,<span style='color:red'>Fail,<span style='color:green'>Lift,<span style='color:green'>Lift","0,0,1,1,0,0,0,0,0,1,0,1","0,0,1,1,1,1,0,1,1,1,0,1","0,1,1,0,1,1",10,20,20,"","","","","{""box1"":""2"",""box2"":""2""}","",NA,6,"round1_outcome",1,6,1,2,2,NA,NA,0,0,10,2,2,NA,NA,0,0,10,NA,NA,NA,NA,NA,NA,NA,NA,NA,NA,NA,NA,NA,NA,NA,NA,NA,NA,NA,NA,NA,NA,"",NA,NA,NA,NA,NA,NA,NA,NA,2025-11-21 00:47:16
"3462.899999976158","https://psyc-201.github.io/xiang2023/exp/index1.html?PROLIFIC_PID=REDACTED&STUDY_ID=691f8ca61c6b4dcbb0aeb5f4&SESSION_ID=691fb4b3ae1a5d337997c9c2","survey-html-form",43,429696,"0.0-354.0","mpg80/HbJ7+yFYv9pXWENPkDDnI4FgA0DOYjPZ11/C5zrmARfUBHLp3RXowj8q5Q1lf0Ph/kAUa344ez0/RYytf8R1o530xuNmeCLcSQWsRpNjHopn6D070gWzV2qd1ZxRcyaSK7FXQTeQyah40wsdbyL1klxLgse5VDXLR9vJ+yaom1PvVxBhWK0dTDBrj4WlDlR6773mp/gfESLxglPPUW+2bX+kwb/per1+rOtXEhfFBFpw2z83a0ZQSWTZ59vskSUHxSZPCYBB3u5IzVd/n7ncm/NbEHiUKr+4s6DlMtjZDQGPftLo1lltcSu3bNjm7SEM6afmfvGor4ZNyDhg==","691f8ca61c6b4dcbb0aeb5f4","691fb4b3ae1a5d337997c9c2","index1","<span style='color:red'>Fail,<span style='color:red'>Fail,<span style='color:green'>Lift,<span style='color:green'>Lift,<span style='color:red'>Fail,<span style='color:red'>Fail,<span style='color:red'>Fail,<span style='color:red'>Fail,<span style='color:red'>Fail,<span style='color:green'>Lift,<span style='color:red'>Fail,<span style='color:green'>Lift","<span style='color:red'>Fail,<span style='color:red'>Fail,<span style='color:green'>Lift,<span style='color:green'>Lift,<span style='color:green'>Lift,<span style='color:green'>Lift,<span style='color:red'>Fail,<span style='color:green'>Lift,<span style='color:green'>Lift,<span style='color:green'>Lift,<span style='color:red'>Fail,<span style='color:green'>Lift","<span style='color:red'>Fail,<span style='color:green'>Lift,<span style='color:green'>Lift,<span style='color:red'>Fail,<span style='color:green'>Lift,<span style='color:green'>Lift","0,0,1,1,0,0,0,0,0,1,0,1","0,0,1,1,1,1,0,1,1,1,0,1","0,1,1,0,1,1",10,20,20,"","","","","{""box1"":""20"",""box2"":""20""}","",NA,6,"round2_ready",2,6,2,NA,NA,NA,NA,NA,NA,NA,NA,NA,NA,NA,NA,NA,NA,20,20,20,20,NA,NA,NA,NA,NA,NA,NA,NA,NA,NA,NA,NA,NA,NA,NA,NA,NA,NA,"",NA,NA,NA,NA,NA,NA,NA,NA,2025-11-21 00:47:16
"5533.700000047684","https://psyc-201.github.io/xiang2023/exp/index1.html?PROLIFIC_PID=REDACTED&STUDY_ID=691f8ca61c6b4dcbb0aeb5f4&SESSION_ID=691fb4b3ae1a5d337997c9c2","survey-html-form",44,435231,"0.0-355.0","mpg80/HbJ7+yFYv9pXWENPkDDnI4FgA0DOYjPZ11/C5zrmARfUBHLp3RXowj8q5Q1lf0Ph/kAUa344ez0/RYytf8R1o530xuNmeCLcSQWsRpNjHopn6D070gWzV2qd1ZxRcyaSK7FXQTeQyah40wsdbyL1klxLgse5VDXLR9vJ+yaom1PvVxBhWK0dTDBrj4WlDlR6773mp/gfESLxglPPUW+2bX+kwb/per1+rOtXEhfFBFpw2z83a0ZQSWTZ59vskSUHxSZPCYBB3u5IzVd/n7ncm/NbEHiUKr+4s6DlMtjZDQGPftLo1lltcSu3bNjm7SEM6afmfvGor4ZNyDhg==","691f8ca61c6b4dcbb0aeb5f4","691fb4b3ae1a5d337997c9c2","index1","<span style='color:red'>Fail,<span style='color:red'>Fail,<span style='color:green'>Lift,<span style='color:green'>Lift,<span style='color:red'>Fail,<span style='color:red'>Fail,<span style='color:red'>Fail,<span style='color:red'>Fail,<span style='color:red'>Fail,<span style='color:green'>Lift,<span style='color:red'>Fail,<span style='color:green'>Lift","<span style='color:red'>Fail,<span style='color:red'>Fail,<span style='color:green'>Lift,<span style='color:green'>Lift,<span style='color:green'>Lift,<span style='color:green'>Lift,<span style='color:red'>Fail,<span style='color:green'>Lift,<span style='color:green'>Lift,<span style='color:green'>Lift,<span style='color:red'>Fail,<span style='color:green'>Lift","<span style='color:red'>Fail,<span style='color:green'>Lift,<span style='color:green'>Lift,<span style='color:red'>Fail,<span style='color:green'>Lift,<span style='color:green'>Lift","0,0,1,1,0,0,0,0,0,1,0,1","0,0,1,1,1,1,0,1,1,1,0,1","0,1,1,0,1,1",10,20,20,"","","","","{""box1"":""4"",""box2"":""4"",""box3"":""60"",""box4"":""60""}","",NA,6,"round2_outcome",3,6,2,4,4,60,60,1,1,20,NA,NA,NA,NA,NA,NA,NA,NA,NA,NA,NA,4,4,60,60,1,1,20,NA,NA,NA,NA,NA,NA,NA,NA,NA,NA,NA,"",NA,NA,NA,NA,NA,NA,NA,NA,2025-11-21 00:47:16
"2712.800000011921","https://psyc-201.github.io/xiang2023/exp/index1.html?PROLIFIC_PID=REDACTED&STUDY_ID=691f8ca61c6b4dcbb0aeb5f4&SESSION_ID=691fb4b3ae1a5d337997c9c2","survey-html-form",45,437946,"0.0-356.0","mpg80/HbJ7+yFYv9pXWENPkDDnI4FgA0DOYjPZ11/C5zrmARfUBHLp3RXowj8q5Q1lf0Ph/kAUa344ez0/RYytf8R1o530xuNmeCLcSQWsRpNjHopn6D070gWzV2qd1ZxRcyaSK7FXQTeQyah40wsdbyL1klxLgse5VDXLR9vJ+yaom1PvVxBhWK0dTDBrj4WlDlR6773mp/gfESLxglPPUW+2bX+kwb/per1+rOtXEhfFBFpw2z83a0ZQSWTZ59vskSUHxSZPCYBB3u5IzVd/n7ncm/NbEHiUKr+4s6DlMtjZDQGPftLo1lltcSu3bNjm7SEM6afmfvGor4ZNyDhg==","691f8ca61c6b4dcbb0aeb5f4","691fb4b3ae1a5d337997c9c2","index1","<span style='color:red'>Fail,<span style='color:red'>Fail,<span style='color:green'>Lift,<span style='color:green'>Lift,<span style='color:red'>Fail,<span style='color:red'>Fail,<span style='color:red'>Fail,<span style='color:red'>Fail,<span style='color:red'>Fail,<span style='color:green'>Lift,<span style='color:red'>Fail,<span style='color:green'>Lift","<span style='color:red'>Fail,<span style='color:red'>Fail,<span style='color:green'>Lift,<span style='color:green'>Lift,<span style='color:green'>Lift,<span style='color:green'>Lift,<span style='color:red'>Fail,<span style='color:green'>Lift,<span style='color:green'>Lift,<span style='color:green'>Lift,<span style='color:red'>Fail,<span style='color:green'>Lift","<span style='color:red'>Fail,<span style='color:green'>Lift,<span style='color:green'>Lift,<span style='color:red'>Fail,<span style='color:green'>Lift,<span style='color:green'>Lift","0,0,1,1,0,0,0,0,0,1,0,1","0,0,1,1,1,1,0,1,1,1,0,1","0,1,1,0,1,1",10,20,20,"","","","","{""box1"":""50""}","",NA,6,"round3_ready",4,6,3,NA,NA,NA,NA,NA,NA,NA,NA,NA,NA,NA,NA,NA,NA,50,50,NA,NA,NA,NA,NA,NA,NA,NA,NA,50,50,NA,NA,NA,NA,NA,NA,NA,NA,NA,"",NA,NA,NA,NA,NA,NA,NA,NA,2025-11-21 00:47:16
"5598.100000023842","https://psyc-201.github.io/xiang2023/exp/index1.html?PROLIFIC_PID=REDACTED&STUDY_ID=691f8ca61c6b4dcbb0aeb5f4&SESSION_ID=691fb4b3ae1a5d337997c9c2","survey-html-form",46,443546,"0.0-357.0-0.0","mpg80/HbJ7+yFYv9pXWENPkDDnI4FgA0DOYjPZ11/C5zrmARfUBHLp3RXowj8q5Q1lf0Ph/kAUa344ez0/RYytf8R1o530xuNmeCLcSQWsRpNjHopn6D070gWzV2qd1ZxRcyaSK7FXQTeQyah40wsdbyL1klxLgse5VDXLR9vJ+yaom1PvVxBhWK0dTDBrj4WlDlR6773mp/gfESLxglPPUW+2bX+kwb/per1+rOtXEhfFBFpw2z83a0ZQSWTZ59vskSUHxSZPCYBB3u5IzVd/n7ncm/NbEHiUKr+4s6DlMtjZDQGPftLo1lltcSu3bNjm7SEM6afmfvGor4ZNyDhg==","691f8ca61c6b4dcbb0aeb5f4","691fb4b3ae1a5d337997c9c2","index1","<span style='color:red'>Fail,<span style='color:red'>Fail,<span style='color:green'>Lift,<span style='color:green'>Lift,<span style='color:red'>Fail,<span style='color:red'>Fail,<span style='color:red'>Fail,<span style='color:red'>Fail,<span style='color:red'>Fail,<span style='color:green'>Lift,<span style='color:red'>Fail,<span style='color:green'>Lift","<span style='color:red'>Fail,<span style='color:red'>Fail,<span style='color:green'>Lift,<span style='color:green'>Lift,<span style='color:green'>Lift,<span style='color:green'>Lift,<span style='color:red'>Fail,<span style='color:green'>Lift,<span style='color:green'>Lift,<span style='color:green'>Lift,<span style='color:red'>Fail,<span style='color:green'>Lift","<span style='color:red'>Fail,<span style='color:green'>Lift,<span style='color:green'>Lift,<span style='color:red'>Fail,<span style='color:green'>Lift,<span style='color:green'>Lift","0,0,1,1,0,0,0,0,0,1,0,1","0,0,1,1,1,1,0,1,1,1,0,1","0,1,1,0,1,1",10,20,20,"","","","","{""box1"":""5"",""box2"":""5"",""box3"":""50"",""box4"":""50""}","",NA,6,"round3_lift",5,6,3,5,5,50,50,1,1,20,NA,NA,NA,NA,NA,NA,NA,NA,NA,NA,NA,NA,NA,NA,NA,NA,NA,NA,NA,NA,NA,NA,5,5,1,1,20,50,50,"",NA,NA,NA,NA,NA,NA,NA,NA,2025-11-21 00:47:16
"11263.399999976158","https://psyc-201.github.io/xiang2023/exp/index1.html?PROLIFIC_PID=REDACTED&STUDY_ID=691f8ca61c6b4dcbb0aeb5f4&SESSION_ID=691fb4b3ae1a5d337997c9c2","survey-text",47,454813,"0.0-361.0","mpg80/HbJ7+yFYv9pXWENPkDDnI4FgA0DOYjPZ11/C5zrmARfUBHLp3RXowj8q5Q1lf0Ph/kAUa344ez0/RYytf8R1o530xuNmeCLcSQWsRpNjHopn6D070gWzV2qd1ZxRcyaSK7FXQTeQyah40wsdbyL1klxLgse5VDXLR9vJ+yaom1PvVxBhWK0dTDBrj4WlDlR6773mp/gfESLxglPPUW+2bX+kwb/per1+rOtXEhfFBFpw2z83a0ZQSWTZ59vskSUHxSZPCYBB3u5IzVd/n7ncm/NbEHiUKr+4s6DlMtjZDQGPftLo1lltcSu3bNjm7SEM6afmfvGor4ZNyDhg==","691f8ca61c6b4dcbb0aeb5f4","691fb4b3ae1a5d337997c9c2","index1","<span style='color:red'>Fail,<span style='color:red'>Fail,<span style='color:green'>Lift,<span style='color:green'>Lift,<span style='color:red'>Fail,<span style='color:red'>Fail,<span style='color:red'>Fail,<span style='color:red'>Fail,<span style='color:red'>Fail,<span style='color:green'>Lift,<span style='color:red'>Fail,<span style='color:green'>Lift","<span style='color:red'>Fail,<span style='color:red'>Fail,<span style='color:green'>Lift,<span style='color:green'>Lift,<span style='color:green'>Lift,<span style='color:green'>Lift,<span style='color:red'>Fail,<span style='color:green'>Lift,<span style='color:green'>Lift,<span style='color:green'>Lift,<span style='color:red'>Fail,<span style='color:green'>Lift","<span style='color:red'>Fail,<span style='color:green'>Lift,<span style='color:green'>Lift,<span style='color:red'>Fail,<span style='color:green'>Lift,<span style='color:green'>Lift","0,0,1,1,0,0,0,0,0,1,0,1","0,0,1,1,1,1,0,1,1,1,0,1","0,1,1,0,1,1",10,20,20,"","","","","{""Q0"":""make predictions on how likely they are to lift a weight""}","",NA,NA,"",NA,NA,NA,NA,NA,NA,NA,NA,NA,NA,NA,NA,NA,NA,NA,NA,NA,NA,NA,NA,NA,NA,NA,NA,NA,NA,NA,NA,NA,NA,NA,NA,NA,NA,NA,NA,NA,NA,NA,"",NA,NA,NA,NA,NA,NA,NA,NA,2025-11-21 00:47:16
"4860.100000023842","https://psyc-201.github.io/xiang2023/exp/index1.html?PROLIFIC_PID=REDACTED&STUDY_ID=691f8ca61c6b4dcbb0aeb5f4&SESSION_ID=691fb4b3ae1a5d337997c9c2","survey-text",48,459677,"0.0-362.0","mpg80/HbJ7+yFYv9pXWENPkDDnI4FgA0DOYjPZ11/C5zrmARfUBHLp3RXowj8q5Q1lf0Ph/kAUa344ez0/RYytf8R1o530xuNmeCLcSQWsRpNjHopn6D070gWzV2qd1ZxRcyaSK7FXQTeQyah40wsdbyL1klxLgse5VDXLR9vJ+yaom1PvVxBhWK0dTDBrj4WlDlR6773mp/gfESLxglPPUW+2bX+kwb/per1+rOtXEhfFBFpw2z83a0ZQSWTZ59vskSUHxSZPCYBB3u5IzVd/n7ncm/NbEHiUKr+4s6DlMtjZDQGPftLo1lltcSu3bNjm7SEM6afmfvGor4ZNyDhg==","691f8ca61c6b4dcbb0aeb5f4","691fb4b3ae1a5d337997c9c2","index1","<span style='color:red'>Fail,<span style='color:red'>Fail,<span style='color:green'>Lift,<span style='color:green'>Lift,<span style='color:red'>Fail,<span style='color:red'>Fail,<span style='color:red'>Fail,<span style='color:red'>Fail,<span style='color:red'>Fail,<span style='color:green'>Lift,<span style='color:red'>Fail,<span style='color:green'>Lift","<span style='color:red'>Fail,<span style='color:red'>Fail,<span style='color:green'>Lift,<span style='color:green'>Lift,<span style='color:green'>Lift,<span style='color:green'>Lift,<span style='color:red'>Fail,<span style='color:green'>Lift,<span style='color:green'>Lift,<span style='color:green'>Lift,<span style='color:red'>Fail,<span style='color:green'>Lift","<span style='color:red'>Fail,<span style='color:green'>Lift,<span style='color:green'>Lift,<span style='color:red'>Fail,<span style='color:green'>Lift,<span style='color:green'>Lift","0,0,1,1,0,0,0,0,0,1,0,1","0,0,1,1,1,1,0,1,1,1,0,1","0,1,1,0,1,1",10,20,20,"","","","","{""Q0"":""""}","",NA,NA,"",NA,NA,NA,NA,NA,NA,NA,NA,NA,NA,NA,NA,NA,NA,NA,NA,NA,NA,NA,NA,NA,NA,NA,NA,NA,NA,NA,NA,NA,NA,NA,NA,NA,NA,NA,NA,NA,NA,NA,"[{""event"":""fullscreenenter"",""trial"":1,""time"":6498}]",4,2,1,80,1,0.8,NA,NA,2025-11-21 00:47:16
"8640.900000035763","https://psyc-201.github.io/xiang2023/exp/index1.html?PROLIFIC_PID=REDACTED&STUDY_ID=691f8ca61c6b4dcbb0aeb5f4&SESSION_ID=691fb4b3ae1a5d337997c9c2","html-button-response",49,468322,"0.0-363.0","mpg80/HbJ7+yFYv9pXWENPkDDnI4FgA0DOYjPZ11/C5zrmARfUBHLp3RXowj8q5Q1lf0Ph/kAUa344ez0/RYytf8R1o530xuNmeCLcSQWsRpNjHopn6D070gWzV2qd1ZxRcyaSK7FXQTeQyah40wsdbyL1klxLgse5VDXLR9vJ+yaom1PvVxBhWK0dTDBrj4WlDlR6773mp/gfESLxglPPUW+2bX+kwb/per1+rOtXEhfFBFpw2z83a0ZQSWTZ59vskSUHxSZPCYBB3u5IzVd/n7ncm/NbEHiUKr+4s6DlMtjZDQGPftLo1lltcSu3bNjm7SEM6afmfvGor4ZNyDhg==","691f8ca61c6b4dcbb0aeb5f4","691fb4b3ae1a5d337997c9c2","index1","<span style='color:red'>Fail,<span style='color:red'>Fail,<span style='color:green'>Lift,<span style='color:green'>Lift,<span style='color:red'>Fail,<span style='color:red'>Fail,<span style='color:red'>Fail,<span style='color:red'>Fail,<span style='color:red'>Fail,<span style='color:green'>Lift,<span style='color:red'>Fail,<span style='color:green'>Lift","<span style='color:red'>Fail,<span style='color:red'>Fail,<span style='color:green'>Lift,<span style='color:green'>Lift,<span style='color:green'>Lift,<span style='color:green'>Lift,<span style='color:red'>Fail,<span style='color:green'>Lift,<span style='color:green'>Lift,<span style='color:green'>Lift,<span style='color:red'>Fail,<span style='color:green'>Lift","<span style='color:red'>Fail,<span style='color:green'>Lift,<span style='color:green'>Lift,<span style='color:red'>Fail,<span style='color:green'>Lift,<span style='color:green'>Lift","0,0,1,1,0,0,0,0,0,1,0,1","0,0,1,1,1,1,0,1,1,1,0,1","0,1,1,0,1,1",10,20,20,"","","<p> We randomly picked <b>Contest 4, Round 2</b> to calculate your bonus. </p><p> The outcome of Contestant H on that round is <span style='color:green'>Lift</span>. </p><p> The probability you entered was 80. </p><p><b> You won a bonus of $0.80!</b></p><p> IMPORTANT: Please click 'Next' to complete the game.</p>","","","",0,NA,"",NA,NA,NA,NA,NA,NA,NA,NA,NA,NA,NA,NA,NA,NA,NA,NA,NA,NA,NA,NA,NA,NA,NA,NA,NA,NA,NA,NA,NA,NA,NA,NA,NA,NA,NA,NA,NA,NA,NA,"",NA,NA,NA,NA,NA,NA,2,1,2025-11-21 00:47:16
