"rt","url","trial_type","trial_index","time_elapsed","internal_node_id","encryptedProlificId","studyId","sessionId","expIndex","round1_outcomes","round2_outcomes","round3_outcomes","round1_o","round2_o","round3_o","round1_reward","round2_reward","round3_reward","success","view_history","stimulus","key_press","responses","question_order","j","Stage","stage","contest","round","strength_a","strength_b","effort_a","effort_b","outcome_a","outcome_b","reward","r1_strength_a","r1_strength_b","r1_effort_a","r1_effort_b","r1_outcome_a","r1_outcome_b","r1_reward","probability_a","probability_b","r2_prob_a","r2_prob_b","r2_strength_a","r2_strength_b","r2_effort_a","r2_effort_b","r2_outcome_a","r2_outcome_b","r2_reward","r3_prob_a","r3_prob_b","r3_strength_a","r3_strength_b","r3_effort_a","r3_effort_b","r3_outcome_a","r3_outcome_b","r3_reward","attention_check","count","already","screen","pick_contest","pick_round","pick_side","trial_probability","trial_outcome","bonus","button_pressed","attention_sum","attention","datapipe_meta.attributes.date_modified"
"11421","https://psyc-201.github.io/xiang2023/exp/index1.html?PROLIFIC_PID=REDACTED&STUDY_ID=691f8ca61c6b4dcbb0aeb5f4&SESSION_ID=691fbcaa18d601e147aece95","external-html",0,11527,"0.0-0.0","r8hlLmEH/DEkCS69fSy7QlWM++1z3ZEWU3uSCuDDQkiKIOJve5mBgz3Gi9KPNSpowTowGkPw/MPMuKb7plkSafwPZEDsQlh/wlYgvBYwvmrcYb+Ix4z/C75E7KhZca2z3SRbW5t/y5K/ALkxmrj+YNaf8a4IDfW9+YvmvzfwdwIFHGoPtQZf1ps1cweFbl2JQz8KaBOGZH2GZt/oYAtLwyTT4t4/dOaWnHqJB5frW2QmSI1W3QebaQ9Wi7FYMA1okk8rS8a64wGErLwza+19ObBxRARi0oiSvyoiirHW9XMa/f/gK6HVs8AslU9iknKYPO1hfh1HO6uel6/hzrZv4Q==","691f8ca61c6b4dcbb0aeb5f4","691fbcaa18d601e147aece95","index1","<span style='color:red'>Fail,<span style='color:red'>Fail,<span style='color:green'>Lift,<span style='color:green'>Lift,<span style='color:red'>Fail,<span style='color:red'>Fail,<span style='color:red'>Fail,<span style='color:red'>Fail,<span style='color:green'>Lift,<span style='color:red'>Fail,<span style='color:green'>Lift,<span style='color:red'>Fail","<span style='color:red'>Fail,<span style='color:red'>Fail,<span style='color:green'>Lift,<span style='color:green'>Lift,<span style='color:green'>Lift,<span style='color:green'>Lift,<span style='color:green'>Lift,<span style='color:red'>Fail,<span style='color:green'>Lift,<span style='color:green'>Lift,<span style='color:green'>Lift,<span style='color:red'>Fail","<span style='color:red'>Fail,<span style='color:green'>Lift,<span style='color:green'>Lift,<span style='color:red'>Fail,<span style='color:green'>Lift,<span style='color:green'>Lift","0,0,1,1,0,0,0,0,1,0,1,0","0,0,1,1,1,1,1,0,1,1,1,0","0,1,1,0,1,1",10,20,20,"","","","","","",NA,"",NA,NA,NA,NA,NA,NA,NA,NA,NA,NA,NA,NA,NA,NA,NA,NA,NA,NA,NA,NA,NA,NA,NA,NA,NA,NA,NA,NA,NA,NA,NA,NA,NA,NA,NA,NA,NA,NA,NA,NA,"",NA,NA,NA,NA,NA,NA,NA,NA,NA,2025-11-21 01:29:09
"","https://psyc-201.github.io/xiang2023/exp/index1.html?PROLIFIC_PID=REDACTED&STUDY_ID=691f8ca61c6b4dcbb0aeb5f4&SESSION_ID=691fbcaa18d601e147aece95","fullscreen",1,13744,"0.0-1.0","r8hlLmEH/DEkCS69fSy7QlWM++1z3ZEWU3uSCuDDQkiKIOJve5mBgz3Gi9KPNSpowTowGkPw/MPMuKb7plkSafwPZEDsQlh/wlYgvBYwvmrcYb+Ix4z/C75E7KhZca2z3SRbW5t/y5K/ALkxmrj+YNaf8a4IDfW9+YvmvzfwdwIFHGoPtQZf1ps1cweFbl2JQz8KaBOGZH2GZt/oYAtLwyTT4t4/dOaWnHqJB5frW2QmSI1W3QebaQ9Wi7FYMA1okk8rS8a64wGErLwza+19ObBxRARi0oiSvyoiirHW9XMa/f/gK6HVs8AslU9iknKYPO1hfh1HO6uel6/hzrZv4Q==","691f8ca61c6b4dcbb0aeb5f4","691fbcaa18d601e147aece95","index1","<span style='color:red'>Fail,<span style='color:red'>Fail,<span style='color:green'>Lift,<span style='color:green'>Lift,<span style='color:red'>Fail,<span style='color:red'>Fail,<span style='color:red'>Fail,<span style='color:red'>Fail,<span style='color:green'>Lift,<span style='color:red'>Fail,<span style='color:green'>Lift,<span style='color:red'>Fail","<span style='color:red'>Fail,<span style='color:red'>Fail,<span style='color:green'>Lift,<span style='color:green'>Lift,<span style='color:green'>Lift,<span style='color:green'>Lift,<span style='color:green'>Lift,<span style='color:red'>Fail,<span style='color:green'>Lift,<span style='color:green'>Lift,<span style='color:green'>Lift,<span style='color:red'>Fail","<span style='color:red'>Fail,<span style='color:green'>Lift,<span style='color:green'>Lift,<span style='color:red'>Fail,<span style='color:green'>Lift,<span style='color:green'>Lift","0,0,1,1,0,0,0,0,1,0,1,0","0,0,1,1,1,1,1,0,1,1,1,0","0,1,1,0,1,1",10,20,20,"true","","","","","",NA,"",NA,NA,NA,NA,NA,NA,NA,NA,NA,NA,NA,NA,NA,NA,NA,NA,NA,NA,NA,NA,NA,NA,NA,NA,NA,NA,NA,NA,NA,NA,NA,NA,NA,NA,NA,NA,NA,NA,NA,NA,"",NA,NA,NA,NA,NA,NA,NA,NA,NA,2025-11-21 01:29:09
"106105","https://psyc-201.github.io/xiang2023/exp/index1.html?PROLIFIC_PID=REDACTED&STUDY_ID=691f8ca61c6b4dcbb0aeb5f4&SESSION_ID=691fbcaa18d601e147aece95","instructions",2,119849,"0.0-2.0","r8hlLmEH/DEkCS69fSy7QlWM++1z3ZEWU3uSCuDDQkiKIOJve5mBgz3Gi9KPNSpowTowGkPw/MPMuKb7plkSafwPZEDsQlh/wlYgvBYwvmrcYb+Ix4z/C75E7KhZca2z3SRbW5t/y5K/ALkxmrj+YNaf8a4IDfW9+YvmvzfwdwIFHGoPtQZf1ps1cweFbl2JQz8KaBOGZH2GZt/oYAtLwyTT4t4/dOaWnHqJB5frW2QmSI1W3QebaQ9Wi7FYMA1okk8rS8a64wGErLwza+19ObBxRARi0oiSvyoiirHW9XMa/f/gK6HVs8AslU9iknKYPO1hfh1HO6uel6/hzrZv4Q==","691f8ca61c6b4dcbb0aeb5f4","691fbcaa18d601e147aece95","index1","<span style='color:red'>Fail,<span style='color:red'>Fail,<span style='color:green'>Lift,<span style='color:green'>Lift,<span style='color:red'>Fail,<span style='color:red'>Fail,<span style='color:red'>Fail,<span style='color:red'>Fail,<span style='color:green'>Lift,<span style='color:red'>Fail,<span style='color:green'>Lift,<span style='color:red'>Fail","<span style='color:red'>Fail,<span style='color:red'>Fail,<span style='color:green'>Lift,<span style='color:green'>Lift,<span style='color:green'>Lift,<span style='color:green'>Lift,<span style='color:green'>Lift,<span style='color:red'>Fail,<span style='color:green'>Lift,<span style='color:green'>Lift,<span style='color:green'>Lift,<span style='color:red'>Fail","<span style='color:red'>Fail,<span style='color:green'>Lift,<span style='color:green'>Lift,<span style='color:red'>Fail,<span style='color:green'>Lift,<span style='color:green'>Lift","0,0,1,1,0,0,0,0,1,0,1,0","0,0,1,1,1,1,1,0,1,1,1,0","0,1,1,0,1,1",10,20,20,"","[{""page_index"":0,""viewing_time"":13831},{""page_index"":1,""viewing_time"":13063},{""page_index"":2,""viewing_time"":6929},{""page_index"":3,""viewing_time"":33161},{""page_index"":4,""viewing_time"":11687},{""page_index"":5,""viewing_time"":18650},{""page_index"":6,""viewing_time"":8784}]","","","","",NA,"",NA,NA,NA,NA,NA,NA,NA,NA,NA,NA,NA,NA,NA,NA,NA,NA,NA,NA,NA,NA,NA,NA,NA,NA,NA,NA,NA,NA,NA,NA,NA,NA,NA,NA,NA,NA,NA,NA,NA,NA,"",NA,NA,NA,NA,NA,NA,NA,NA,NA,2025-11-21 01:29:09
"null","https://psyc-201.github.io/xiang2023/exp/index1.html?PROLIFIC_PID=REDACTED&STUDY_ID=691f8ca61c6b4dcbb0aeb5f4&SESSION_ID=691fbcaa18d601e147aece95","html-keyboard-response",3,120863,"0.0-3.0","r8hlLmEH/DEkCS69fSy7QlWM++1z3ZEWU3uSCuDDQkiKIOJve5mBgz3Gi9KPNSpowTowGkPw/MPMuKb7plkSafwPZEDsQlh/wlYgvBYwvmrcYb+Ix4z/C75E7KhZca2z3SRbW5t/y5K/ALkxmrj+YNaf8a4IDfW9+YvmvzfwdwIFHGoPtQZf1ps1cweFbl2JQz8KaBOGZH2GZt/oYAtLwyTT4t4/dOaWnHqJB5frW2QmSI1W3QebaQ9Wi7FYMA1okk8rS8a64wGErLwza+19ObBxRARi0oiSvyoiirHW9XMa/f/gK6HVs8AslU9iknKYPO1hfh1HO6uel6/hzrZv4Q==","691f8ca61c6b4dcbb0aeb5f4","691fbcaa18d601e147aece95","index1","<span style='color:red'>Fail,<span style='color:red'>Fail,<span style='color:green'>Lift,<span style='color:green'>Lift,<span style='color:red'>Fail,<span style='color:red'>Fail,<span style='color:red'>Fail,<span style='color:red'>Fail,<span style='color:green'>Lift,<span style='color:red'>Fail,<span style='color:green'>Lift,<span style='color:red'>Fail","<span style='color:red'>Fail,<span style='color:red'>Fail,<span style='color:green'>Lift,<span style='color:green'>Lift,<span style='color:green'>Lift,<span style='color:green'>Lift,<span style='color:green'>Lift,<span style='color:red'>Fail,<span style='color:green'>Lift,<span style='color:green'>Lift,<span style='color:green'>Lift,<span style='color:red'>Fail","<span style='color:red'>Fail,<span style='color:green'>Lift,<span style='color:green'>Lift,<span style='color:red'>Fail,<span style='color:green'>Lift,<span style='color:green'>Lift","0,0,1,1,0,0,0,0,1,0,1,0","0,0,1,1,1,1,1,0,1,1,1,0","0,1,1,0,1,1",10,20,20,"",""," ","null","","",NA,"",NA,NA,NA,NA,NA,NA,NA,NA,NA,NA,NA,NA,NA,NA,NA,NA,NA,NA,NA,NA,NA,NA,NA,NA,NA,NA,NA,NA,NA,NA,NA,NA,NA,NA,NA,NA,NA,NA,NA,NA,"",NA,NA,NA,NA,NA,NA,NA,NA,NA,2025-11-21 01:29:09
"42676","https://psyc-201.github.io/xiang2023/exp/index1.html?PROLIFIC_PID=REDACTED&STUDY_ID=691f8ca61c6b4dcbb0aeb5f4&SESSION_ID=691fbcaa18d601e147aece95","survey-multi-choice",4,163539,"0.0-4.0","r8hlLmEH/DEkCS69fSy7QlWM++1z3ZEWU3uSCuDDQkiKIOJve5mBgz3Gi9KPNSpowTowGkPw/MPMuKb7plkSafwPZEDsQlh/wlYgvBYwvmrcYb+Ix4z/C75E7KhZca2z3SRbW5t/y5K/ALkxmrj+YNaf8a4IDfW9+YvmvzfwdwIFHGoPtQZf1ps1cweFbl2JQz8KaBOGZH2GZt/oYAtLwyTT4t4/dOaWnHqJB5frW2QmSI1W3QebaQ9Wi7FYMA1okk8rS8a64wGErLwza+19ObBxRARi0oiSvyoiirHW9XMa/f/gK6HVs8AslU9iknKYPO1hfh1HO6uel6/hzrZv4Q==","691f8ca61c6b4dcbb0aeb5f4","691fbcaa18d601e147aece95","index1","<span style='color:red'>Fail,<span style='color:red'>Fail,<span style='color:green'>Lift,<span style='color:green'>Lift,<span style='color:red'>Fail,<span style='color:red'>Fail,<span style='color:red'>Fail,<span style='color:red'>Fail,<span style='color:green'>Lift,<span style='color:red'>Fail,<span style='color:green'>Lift,<span style='color:red'>Fail","<span style='color:red'>Fail,<span style='color:red'>Fail,<span style='color:green'>Lift,<span style='color:green'>Lift,<span style='color:green'>Lift,<span style='color:green'>Lift,<span style='color:green'>Lift,<span style='color:red'>Fail,<span style='color:green'>Lift,<span style='color:green'>Lift,<span style='color:green'>Lift,<span style='color:red'>Fail","<span style='color:red'>Fail,<span style='color:green'>Lift,<span style='color:green'>Lift,<span style='color:red'>Fail,<span style='color:green'>Lift,<span style='color:green'>Lift","0,0,1,1,0,0,0,0,1,0,1,0","0,0,1,1,1,1,1,0,1,1,1,0","0,1,1,0,1,1",10,20,20,"","","","","{""Q0"":""It consists of multiple contests, each contest with three rounds."",""Q1"":""When a new contest begins."",""Q2"":""The box weight always stays the same (equivalent to strength of 5)."",""Q3"":""Each will get $20."",""Q4"":""How close my guesses are to the actual outcome.""}","[0,1,2,3,4]",NA,"",NA,NA,NA,NA,NA,NA,NA,NA,NA,NA,NA,NA,NA,NA,NA,NA,NA,NA,NA,NA,NA,NA,NA,NA,NA,NA,NA,NA,NA,NA,NA,NA,NA,NA,NA,NA,NA,NA,NA,NA,"",NA,NA,NA,NA,NA,NA,NA,NA,NA,2025-11-21 01:29:09
"11252","https://psyc-201.github.io/xiang2023/exp/index1.html?PROLIFIC_PID=REDACTED&STUDY_ID=691f8ca61c6b4dcbb0aeb5f4&SESSION_ID=691fbcaa18d601e147aece95","instructions",5,174795,"0.0-305.0","r8hlLmEH/DEkCS69fSy7QlWM++1z3ZEWU3uSCuDDQkiKIOJve5mBgz3Gi9KPNSpowTowGkPw/MPMuKb7plkSafwPZEDsQlh/wlYgvBYwvmrcYb+Ix4z/C75E7KhZca2z3SRbW5t/y5K/ALkxmrj+YNaf8a4IDfW9+YvmvzfwdwIFHGoPtQZf1ps1cweFbl2JQz8KaBOGZH2GZt/oYAtLwyTT4t4/dOaWnHqJB5frW2QmSI1W3QebaQ9Wi7FYMA1okk8rS8a64wGErLwza+19ObBxRARi0oiSvyoiirHW9XMa/f/gK6HVs8AslU9iknKYPO1hfh1HO6uel6/hzrZv4Q==","691f8ca61c6b4dcbb0aeb5f4","691fbcaa18d601e147aece95","index1","<span style='color:red'>Fail,<span style='color:red'>Fail,<span style='color:green'>Lift,<span style='color:green'>Lift,<span style='color:red'>Fail,<span style='color:red'>Fail,<span style='color:red'>Fail,<span style='color:red'>Fail,<span style='color:green'>Lift,<span style='color:red'>Fail,<span style='color:green'>Lift,<span style='color:red'>Fail","<span style='color:red'>Fail,<span style='color:red'>Fail,<span style='color:green'>Lift,<span style='color:green'>Lift,<span style='color:green'>Lift,<span style='color:green'>Lift,<span style='color:green'>Lift,<span style='color:red'>Fail,<span style='color:green'>Lift,<span style='color:green'>Lift,<span style='color:green'>Lift,<span style='color:red'>Fail","<span style='color:red'>Fail,<span style='color:green'>Lift,<span style='color:green'>Lift,<span style='color:red'>Fail,<span style='color:green'>Lift,<span style='color:green'>Lift","0,0,1,1,0,0,0,0,1,0,1,0","0,0,1,1,1,1,1,0,1,1,1,0","0,1,1,0,1,1",10,20,20,"","[{""page_index"":0,""viewing_time"":7460},{""page_index"":1,""viewing_time"":3792}]","","","","",NA,"",NA,NA,NA,NA,NA,NA,NA,NA,NA,NA,NA,NA,NA,NA,NA,NA,NA,NA,NA,NA,NA,NA,NA,NA,NA,NA,NA,NA,NA,NA,NA,NA,NA,NA,NA,NA,NA,NA,NA,NA,"",NA,NA,NA,NA,NA,NA,NA,NA,NA,2025-11-21 01:29:09
"null","https://psyc-201.github.io/xiang2023/exp/index1.html?PROLIFIC_PID=REDACTED&STUDY_ID=691f8ca61c6b4dcbb0aeb5f4&SESSION_ID=691fbcaa18d601e147aece95","html-keyboard-response",6,175809,"0.0-306.0","r8hlLmEH/DEkCS69fSy7QlWM++1z3ZEWU3uSCuDDQkiKIOJve5mBgz3Gi9KPNSpowTowGkPw/MPMuKb7plkSafwPZEDsQlh/wlYgvBYwvmrcYb+Ix4z/C75E7KhZca2z3SRbW5t/y5K/ALkxmrj+YNaf8a4IDfW9+YvmvzfwdwIFHGoPtQZf1ps1cweFbl2JQz8KaBOGZH2GZt/oYAtLwyTT4t4/dOaWnHqJB5frW2QmSI1W3QebaQ9Wi7FYMA1okk8rS8a64wGErLwza+19ObBxRARi0oiSvyoiirHW9XMa/f/gK6HVs8AslU9iknKYPO1hfh1HO6uel6/hzrZv4Q==","691f8ca61c6b4dcbb0aeb5f4","691fbcaa18d601e147aece95","index1","<span style='color:red'>Fail,<span style='color:red'>Fail,<span style='color:green'>Lift,<span style='color:green'>Lift,<span style='color:red'>Fail,<span style='color:red'>Fail,<span style='color:red'>Fail,<span style='color:red'>Fail,<span style='color:green'>Lift,<span style='color:red'>Fail,<span style='color:green'>Lift,<span style='color:red'>Fail","<span style='color:red'>Fail,<span style='color:red'>Fail,<span style='color:green'>Lift,<span style='color:green'>Lift,<span style='color:green'>Lift,<span style='color:green'>Lift,<span style='color:green'>Lift,<span style='color:red'>Fail,<span style='color:green'>Lift,<span style='color:green'>Lift,<span style='color:green'>Lift,<span style='color:red'>Fail","<span style='color:red'>Fail,<span style='color:green'>Lift,<span style='color:green'>Lift,<span style='color:red'>Fail,<span style='color:green'>Lift,<span style='color:green'>Lift","0,0,1,1,0,0,0,0,1,0,1,0","0,0,1,1,1,1,1,0,1,1,1,0","0,1,1,0,1,1",10,20,20,"",""," ","null","","",1,"",NA,NA,NA,NA,NA,NA,NA,NA,NA,NA,NA,NA,NA,NA,NA,NA,NA,NA,NA,NA,NA,NA,NA,NA,NA,NA,NA,NA,NA,NA,NA,NA,NA,NA,NA,NA,NA,NA,NA,NA,"",NA,NA,NA,NA,NA,NA,NA,NA,NA,2025-11-21 01:29:09
"null","https://psyc-201.github.io/xiang2023/exp/index1.html?PROLIFIC_PID=REDACTED&STUDY_ID=691f8ca61c6b4dcbb0aeb5f4&SESSION_ID=691fbcaa18d601e147aece95","html-keyboard-response",7,178878,"0.0-307.0","r8hlLmEH/DEkCS69fSy7QlWM++1z3ZEWU3uSCuDDQkiKIOJve5mBgz3Gi9KPNSpowTowGkPw/MPMuKb7plkSafwPZEDsQlh/wlYgvBYwvmrcYb+Ix4z/C75E7KhZca2z3SRbW5t/y5K/ALkxmrj+YNaf8a4IDfW9+YvmvzfwdwIFHGoPtQZf1ps1cweFbl2JQz8KaBOGZH2GZt/oYAtLwyTT4t4/dOaWnHqJB5frW2QmSI1W3QebaQ9Wi7FYMA1okk8rS8a64wGErLwza+19ObBxRARi0oiSvyoiirHW9XMa/f/gK6HVs8AslU9iknKYPO1hfh1HO6uel6/hzrZv4Q==","691f8ca61c6b4dcbb0aeb5f4","691fbcaa18d601e147aece95","index1","<span style='color:red'>Fail,<span style='color:red'>Fail,<span style='color:green'>Lift,<span style='color:green'>Lift,<span style='color:red'>Fail,<span style='color:red'>Fail,<span style='color:red'>Fail,<span style='color:red'>Fail,<span style='color:green'>Lift,<span style='color:red'>Fail,<span style='color:green'>Lift,<span style='color:red'>Fail","<span style='color:red'>Fail,<span style='color:red'>Fail,<span style='color:green'>Lift,<span style='color:green'>Lift,<span style='color:green'>Lift,<span style='color:green'>Lift,<span style='color:green'>Lift,<span style='color:red'>Fail,<span style='color:green'>Lift,<span style='color:green'>Lift,<span style='color:green'>Lift,<span style='color:red'>Fail","<span style='color:red'>Fail,<span style='color:green'>Lift,<span style='color:green'>Lift,<span style='color:red'>Fail,<span style='color:green'>Lift,<span style='color:green'>Lift","0,0,1,1,0,0,0,0,1,0,1,0","0,0,1,1,1,1,1,0,1,1,1,0","0,1,1,0,1,1",10,20,20,"","","<p style='font-size:30px'><b> New Contest! </b></p>","null","","",1,"",NA,NA,NA,NA,NA,NA,NA,NA,NA,NA,NA,NA,NA,NA,NA,NA,NA,NA,NA,NA,NA,NA,NA,NA,NA,NA,NA,NA,NA,NA,NA,NA,NA,NA,NA,NA,NA,NA,NA,NA,"",NA,NA,NA,NA,NA,NA,NA,NA,NA,2025-11-21 01:29:09
"36317","https://psyc-201.github.io/xiang2023/exp/index1.html?PROLIFIC_PID=REDACTED&STUDY_ID=691f8ca61c6b4dcbb0aeb5f4&SESSION_ID=691fbcaa18d601e147aece95","survey-html-form",8,215196,"0.0-308.0","r8hlLmEH/DEkCS69fSy7QlWM++1z3ZEWU3uSCuDDQkiKIOJve5mBgz3Gi9KPNSpowTowGkPw/MPMuKb7plkSafwPZEDsQlh/wlYgvBYwvmrcYb+Ix4z/C75E7KhZca2z3SRbW5t/y5K/ALkxmrj+YNaf8a4IDfW9+YvmvzfwdwIFHGoPtQZf1ps1cweFbl2JQz8KaBOGZH2GZt/oYAtLwyTT4t4/dOaWnHqJB5frW2QmSI1W3QebaQ9Wi7FYMA1okk8rS8a64wGErLwza+19ObBxRARi0oiSvyoiirHW9XMa/f/gK6HVs8AslU9iknKYPO1hfh1HO6uel6/hzrZv4Q==","691f8ca61c6b4dcbb0aeb5f4","691fbcaa18d601e147aece95","index1","<span style='color:red'>Fail,<span style='color:red'>Fail,<span style='color:green'>Lift,<span style='color:green'>Lift,<span style='color:red'>Fail,<span style='color:red'>Fail,<span style='color:red'>Fail,<span style='color:red'>Fail,<span style='color:green'>Lift,<span style='color:red'>Fail,<span style='color:green'>Lift,<span style='color:red'>Fail","<span style='color:red'>Fail,<span style='color:red'>Fail,<span style='color:green'>Lift,<span style='color:green'>Lift,<span style='color:green'>Lift,<span style='color:green'>Lift,<span style='color:green'>Lift,<span style='color:red'>Fail,<span style='color:green'>Lift,<span style='color:green'>Lift,<span style='color:green'>Lift,<span style='color:red'>Fail","<span style='color:red'>Fail,<span style='color:green'>Lift,<span style='color:green'>Lift,<span style='color:red'>Fail,<span style='color:green'>Lift,<span style='color:green'>Lift","0,0,1,1,0,0,0,0,1,0,1,0","0,0,1,1,1,1,1,0,1,1,1,0","0,1,1,0,1,1",10,20,20,"","","","","{""box1"":""7"",""box2"":""7"",""box3"":""60"",""box4"":""60""}","",1,"round1_outcome",1,1,1,7,7,60,60,1,1,10,7,7,60,60,1,1,10,NA,NA,NA,NA,NA,NA,NA,NA,NA,NA,NA,NA,NA,NA,NA,NA,NA,NA,NA,NA,NA,NA,NA,"",NA,NA,NA,NA,NA,NA,NA,NA,NA,2025-11-21 01:29:09
"12823","https://psyc-201.github.io/xiang2023/exp/index1.html?PROLIFIC_PID=REDACTED&STUDY_ID=691f8ca61c6b4dcbb0aeb5f4&SESSION_ID=691fbcaa18d601e147aece95","survey-html-form",9,228020,"0.0-309.0","r8hlLmEH/DEkCS69fSy7QlWM++1z3ZEWU3uSCuDDQkiKIOJve5mBgz3Gi9KPNSpowTowGkPw/MPMuKb7plkSafwPZEDsQlh/wlYgvBYwvmrcYb+Ix4z/C75E7KhZca2z3SRbW5t/y5K/ALkxmrj+YNaf8a4IDfW9+YvmvzfwdwIFHGoPtQZf1ps1cweFbl2JQz8KaBOGZH2GZt/oYAtLwyTT4t4/dOaWnHqJB5frW2QmSI1W3QebaQ9Wi7FYMA1okk8rS8a64wGErLwza+19ObBxRARi0oiSvyoiirHW9XMa/f/gK6HVs8AslU9iknKYPO1hfh1HO6uel6/hzrZv4Q==","691f8ca61c6b4dcbb0aeb5f4","691fbcaa18d601e147aece95","index1","<span style='color:red'>Fail,<span style='color:red'>Fail,<span style='color:green'>Lift,<span style='color:green'>Lift,<span style='color:red'>Fail,<span style='color:red'>Fail,<span style='color:red'>Fail,<span style='color:red'>Fail,<span style='color:green'>Lift,<span style='color:red'>Fail,<span style='color:green'>Lift,<span style='color:red'>Fail","<span style='color:red'>Fail,<span style='color:red'>Fail,<span style='color:green'>Lift,<span style='color:green'>Lift,<span style='color:green'>Lift,<span style='color:green'>Lift,<span style='color:green'>Lift,<span style='color:red'>Fail,<span style='color:green'>Lift,<span style='color:green'>Lift,<span style='color:green'>Lift,<span style='color:red'>Fail","<span style='color:red'>Fail,<span style='color:green'>Lift,<span style='color:green'>Lift,<span style='color:red'>Fail,<span style='color:green'>Lift,<span style='color:green'>Lift","0,0,1,1,0,0,0,0,1,0,1,0","0,0,1,1,1,1,1,0,1,1,1,0","0,1,1,0,1,1",10,20,20,"","","","","{""box1"":""100"",""box2"":""100""}","",1,"round2_ready",2,1,2,NA,NA,NA,NA,NA,NA,NA,NA,NA,NA,NA,NA,NA,NA,100,100,100,100,NA,NA,NA,NA,NA,NA,NA,NA,NA,NA,NA,NA,NA,NA,NA,NA,NA,NA,NA,"",NA,NA,NA,NA,NA,NA,NA,NA,NA,2025-11-21 01:29:09
"19174","https://psyc-201.github.io/xiang2023/exp/index1.html?PROLIFIC_PID=REDACTED&STUDY_ID=691f8ca61c6b4dcbb0aeb5f4&SESSION_ID=691fbcaa18d601e147aece95","survey-html-form",10,247197,"0.0-310.0","r8hlLmEH/DEkCS69fSy7QlWM++1z3ZEWU3uSCuDDQkiKIOJve5mBgz3Gi9KPNSpowTowGkPw/MPMuKb7plkSafwPZEDsQlh/wlYgvBYwvmrcYb+Ix4z/C75E7KhZca2z3SRbW5t/y5K/ALkxmrj+YNaf8a4IDfW9+YvmvzfwdwIFHGoPtQZf1ps1cweFbl2JQz8KaBOGZH2GZt/oYAtLwyTT4t4/dOaWnHqJB5frW2QmSI1W3QebaQ9Wi7FYMA1okk8rS8a64wGErLwza+19ObBxRARi0oiSvyoiirHW9XMa/f/gK6HVs8AslU9iknKYPO1hfh1HO6uel6/hzrZv4Q==","691f8ca61c6b4dcbb0aeb5f4","691fbcaa18d601e147aece95","index1","<span style='color:red'>Fail,<span style='color:red'>Fail,<span style='color:green'>Lift,<span style='color:green'>Lift,<span style='color:red'>Fail,<span style='color:red'>Fail,<span style='color:red'>Fail,<span style='color:red'>Fail,<span style='color:green'>Lift,<span style='color:red'>Fail,<span style='color:green'>Lift,<span style='color:red'>Fail","<span style='color:red'>Fail,<span style='color:red'>Fail,<span style='color:green'>Lift,<span style='color:green'>Lift,<span style='color:green'>Lift,<span style='color:green'>Lift,<span style='color:green'>Lift,<span style='color:red'>Fail,<span style='color:green'>Lift,<span style='color:green'>Lift,<span style='color:green'>Lift,<span style='color:red'>Fail","<span style='color:red'>Fail,<span style='color:green'>Lift,<span style='color:green'>Lift,<span style='color:red'>Fail,<span style='color:green'>Lift,<span style='color:green'>Lift","0,0,1,1,0,0,0,0,1,0,1,0","0,0,1,1,1,1,1,0,1,1,1,0","0,1,1,0,1,1",10,20,20,"","","","","{""box1"":""7"",""box2"":""7"",""box3"":""80"",""box4"":""80""}","",1,"round2_outcome",3,1,2,7,7,80,80,1,1,20,NA,NA,NA,NA,NA,NA,NA,NA,NA,NA,NA,7,7,80,80,1,1,20,NA,NA,NA,NA,NA,NA,NA,NA,NA,NA,NA,NA,"",NA,NA,NA,NA,NA,NA,NA,NA,NA,2025-11-21 01:29:09
"3252","https://psyc-201.github.io/xiang2023/exp/index1.html?PROLIFIC_PID=REDACTED&STUDY_ID=691f8ca61c6b4dcbb0aeb5f4&SESSION_ID=691fbcaa18d601e147aece95","survey-html-form",11,250449,"0.0-311.0","r8hlLmEH/DEkCS69fSy7QlWM++1z3ZEWU3uSCuDDQkiKIOJve5mBgz3Gi9KPNSpowTowGkPw/MPMuKb7plkSafwPZEDsQlh/wlYgvBYwvmrcYb+Ix4z/C75E7KhZca2z3SRbW5t/y5K/ALkxmrj+YNaf8a4IDfW9+YvmvzfwdwIFHGoPtQZf1ps1cweFbl2JQz8KaBOGZH2GZt/oYAtLwyTT4t4/dOaWnHqJB5frW2QmSI1W3QebaQ9Wi7FYMA1okk8rS8a64wGErLwza+19ObBxRARi0oiSvyoiirHW9XMa/f/gK6HVs8AslU9iknKYPO1hfh1HO6uel6/hzrZv4Q==","691f8ca61c6b4dcbb0aeb5f4","691fbcaa18d601e147aece95","index1","<span style='color:red'>Fail,<span style='color:red'>Fail,<span style='color:green'>Lift,<span style='color:green'>Lift,<span style='color:red'>Fail,<span style='color:red'>Fail,<span style='color:red'>Fail,<span style='color:red'>Fail,<span style='color:green'>Lift,<span style='color:red'>Fail,<span style='color:green'>Lift,<span style='color:red'>Fail","<span style='color:red'>Fail,<span style='color:red'>Fail,<span style='color:green'>Lift,<span style='color:green'>Lift,<span style='color:green'>Lift,<span style='color:green'>Lift,<span style='color:green'>Lift,<span style='color:red'>Fail,<span style='color:green'>Lift,<span style='color:green'>Lift,<span style='color:green'>Lift,<span style='color:red'>Fail","<span style='color:red'>Fail,<span style='color:green'>Lift,<span style='color:green'>Lift,<span style='color:red'>Fail,<span style='color:green'>Lift,<span style='color:green'>Lift","0,0,1,1,0,0,0,0,1,0,1,0","0,0,1,1,1,1,1,0,1,1,1,0","0,1,1,0,1,1",10,20,20,"","","","","{""box1"":""100""}","",1,"round3_ready",4,1,3,NA,NA,NA,NA,NA,NA,NA,NA,NA,NA,NA,NA,NA,NA,100,100,NA,NA,NA,NA,NA,NA,NA,NA,NA,100,100,NA,NA,NA,NA,NA,NA,NA,NA,NA,NA,"",NA,NA,NA,NA,NA,NA,NA,NA,NA,2025-11-21 01:29:09
"12347","https://psyc-201.github.io/xiang2023/exp/index1.html?PROLIFIC_PID=REDACTED&STUDY_ID=691f8ca61c6b4dcbb0aeb5f4&SESSION_ID=691fbcaa18d601e147aece95","survey-html-form",12,262797,"0.0-312.0-0.0","r8hlLmEH/DEkCS69fSy7QlWM++1z3ZEWU3uSCuDDQkiKIOJve5mBgz3Gi9KPNSpowTowGkPw/MPMuKb7plkSafwPZEDsQlh/wlYgvBYwvmrcYb+Ix4z/C75E7KhZca2z3SRbW5t/y5K/ALkxmrj+YNaf8a4IDfW9+YvmvzfwdwIFHGoPtQZf1ps1cweFbl2JQz8KaBOGZH2GZt/oYAtLwyTT4t4/dOaWnHqJB5frW2QmSI1W3QebaQ9Wi7FYMA1okk8rS8a64wGErLwza+19ObBxRARi0oiSvyoiirHW9XMa/f/gK6HVs8AslU9iknKYPO1hfh1HO6uel6/hzrZv4Q==","691f8ca61c6b4dcbb0aeb5f4","691fbcaa18d601e147aece95","index1","<span style='color:red'>Fail,<span style='color:red'>Fail,<span style='color:green'>Lift,<span style='color:green'>Lift,<span style='color:red'>Fail,<span style='color:red'>Fail,<span style='color:red'>Fail,<span style='color:red'>Fail,<span style='color:green'>Lift,<span style='color:red'>Fail,<span style='color:green'>Lift,<span style='color:red'>Fail","<span style='color:red'>Fail,<span style='color:red'>Fail,<span style='color:green'>Lift,<span style='color:green'>Lift,<span style='color:green'>Lift,<span style='color:green'>Lift,<span style='color:green'>Lift,<span style='color:red'>Fail,<span style='color:green'>Lift,<span style='color:green'>Lift,<span style='color:green'>Lift,<span style='color:red'>Fail","<span style='color:red'>Fail,<span style='color:green'>Lift,<span style='color:green'>Lift,<span style='color:red'>Fail,<span style='color:green'>Lift,<span style='color:green'>Lift","0,0,1,1,0,0,0,0,1,0,1,0","0,0,1,1,1,1,1,0,1,1,1,0","0,1,1,0,1,1",10,20,20,"","","","","{""box1"":""7"",""box2"":""7"",""box3"":""70"",""box4"":""70""}","",2,"round3_lift",5,1,3,7,7,70,70,1,1,20,NA,NA,NA,NA,NA,NA,NA,NA,NA,NA,NA,NA,NA,NA,NA,NA,NA,NA,NA,NA,7,7,70,70,1,1,20,NA,NA,NA,"",NA,NA,NA,NA,NA,NA,NA,NA,NA,2025-11-21 01:29:09
"null","https://psyc-201.github.io/xiang2023/exp/index1.html?PROLIFIC_PID=REDACTED&STUDY_ID=691f8ca61c6b4dcbb0aeb5f4&SESSION_ID=691fbcaa18d601e147aece95","html-keyboard-response",13,265799,"0.0-316.0","r8hlLmEH/DEkCS69fSy7QlWM++1z3ZEWU3uSCuDDQkiKIOJve5mBgz3Gi9KPNSpowTowGkPw/MPMuKb7plkSafwPZEDsQlh/wlYgvBYwvmrcYb+Ix4z/C75E7KhZca2z3SRbW5t/y5K/ALkxmrj+YNaf8a4IDfW9+YvmvzfwdwIFHGoPtQZf1ps1cweFbl2JQz8KaBOGZH2GZt/oYAtLwyTT4t4/dOaWnHqJB5frW2QmSI1W3QebaQ9Wi7FYMA1okk8rS8a64wGErLwza+19ObBxRARi0oiSvyoiirHW9XMa/f/gK6HVs8AslU9iknKYPO1hfh1HO6uel6/hzrZv4Q==","691f8ca61c6b4dcbb0aeb5f4","691fbcaa18d601e147aece95","index1","<span style='color:red'>Fail,<span style='color:red'>Fail,<span style='color:green'>Lift,<span style='color:green'>Lift,<span style='color:red'>Fail,<span style='color:red'>Fail,<span style='color:red'>Fail,<span style='color:red'>Fail,<span style='color:green'>Lift,<span style='color:red'>Fail,<span style='color:green'>Lift,<span style='color:red'>Fail","<span style='color:red'>Fail,<span style='color:red'>Fail,<span style='color:green'>Lift,<span style='color:green'>Lift,<span style='color:green'>Lift,<span style='color:green'>Lift,<span style='color:green'>Lift,<span style='color:red'>Fail,<span style='color:green'>Lift,<span style='color:green'>Lift,<span style='color:green'>Lift,<span style='color:red'>Fail","<span style='color:red'>Fail,<span style='color:green'>Lift,<span style='color:green'>Lift,<span style='color:red'>Fail,<span style='color:green'>Lift,<span style='color:green'>Lift","0,0,1,1,0,0,0,0,1,0,1,0","0,0,1,1,1,1,1,0,1,1,1,0","0,1,1,0,1,1",10,20,20,"","","<p style='font-size:30px'><b> New Contest! </b></p>","null","","",2,"",NA,NA,NA,NA,NA,NA,NA,NA,NA,NA,NA,NA,NA,NA,NA,NA,NA,NA,NA,NA,NA,NA,NA,NA,NA,NA,NA,NA,NA,NA,NA,NA,NA,NA,NA,NA,NA,NA,NA,NA,"",NA,NA,NA,NA,NA,NA,NA,NA,NA,2025-11-21 01:29:09
"8798","https://psyc-201.github.io/xiang2023/exp/index1.html?PROLIFIC_PID=REDACTED&STUDY_ID=691f8ca61c6b4dcbb0aeb5f4&SESSION_ID=691fbcaa18d601e147aece95","survey-html-form",14,274597,"0.0-317.0","r8hlLmEH/DEkCS69fSy7QlWM++1z3ZEWU3uSCuDDQkiKIOJve5mBgz3Gi9KPNSpowTowGkPw/MPMuKb7plkSafwPZEDsQlh/wlYgvBYwvmrcYb+Ix4z/C75E7KhZca2z3SRbW5t/y5K/ALkxmrj+YNaf8a4IDfW9+YvmvzfwdwIFHGoPtQZf1ps1cweFbl2JQz8KaBOGZH2GZt/oYAtLwyTT4t4/dOaWnHqJB5frW2QmSI1W3QebaQ9Wi7FYMA1okk8rS8a64wGErLwza+19ObBxRARi0oiSvyoiirHW9XMa/f/gK6HVs8AslU9iknKYPO1hfh1HO6uel6/hzrZv4Q==","691f8ca61c6b4dcbb0aeb5f4","691fbcaa18d601e147aece95","index1","<span style='color:red'>Fail,<span style='color:red'>Fail,<span style='color:green'>Lift,<span style='color:green'>Lift,<span style='color:red'>Fail,<span style='color:red'>Fail,<span style='color:red'>Fail,<span style='color:red'>Fail,<span style='color:green'>Lift,<span style='color:red'>Fail,<span style='color:green'>Lift,<span style='color:red'>Fail","<span style='color:red'>Fail,<span style='color:red'>Fail,<span style='color:green'>Lift,<span style='color:green'>Lift,<span style='color:green'>Lift,<span style='color:green'>Lift,<span style='color:green'>Lift,<span style='color:red'>Fail,<span style='color:green'>Lift,<span style='color:green'>Lift,<span style='color:green'>Lift,<span style='color:red'>Fail","<span style='color:red'>Fail,<span style='color:green'>Lift,<span style='color:green'>Lift,<span style='color:red'>Fail,<span style='color:green'>Lift,<span style='color:green'>Lift","0,0,1,1,0,0,0,0,1,0,1,0","0,0,1,1,1,1,1,0,1,1,1,0","0,1,1,0,1,1",10,20,20,"","","","","{""box1"":""5"",""box2"":""5""}","",2,"round1_outcome",1,2,1,5,5,NA,NA,0,0,10,5,5,NA,NA,0,0,10,NA,NA,NA,NA,NA,NA,NA,NA,NA,NA,NA,NA,NA,NA,NA,NA,NA,NA,NA,NA,NA,NA,NA,"",NA,NA,NA,NA,NA,NA,NA,NA,NA,2025-11-21 01:29:09
"10170","https://psyc-201.github.io/xiang2023/exp/index1.html?PROLIFIC_PID=REDACTED&STUDY_ID=691f8ca61c6b4dcbb0aeb5f4&SESSION_ID=691fbcaa18d601e147aece95","survey-html-form",15,284769,"0.0-318.0","r8hlLmEH/DEkCS69fSy7QlWM++1z3ZEWU3uSCuDDQkiKIOJve5mBgz3Gi9KPNSpowTowGkPw/MPMuKb7plkSafwPZEDsQlh/wlYgvBYwvmrcYb+Ix4z/C75E7KhZca2z3SRbW5t/y5K/ALkxmrj+YNaf8a4IDfW9+YvmvzfwdwIFHGoPtQZf1ps1cweFbl2JQz8KaBOGZH2GZt/oYAtLwyTT4t4/dOaWnHqJB5frW2QmSI1W3QebaQ9Wi7FYMA1okk8rS8a64wGErLwza+19ObBxRARi0oiSvyoiirHW9XMa/f/gK6HVs8AslU9iknKYPO1hfh1HO6uel6/hzrZv4Q==","691f8ca61c6b4dcbb0aeb5f4","691fbcaa18d601e147aece95","index1","<span style='color:red'>Fail,<span style='color:red'>Fail,<span style='color:green'>Lift,<span style='color:green'>Lift,<span style='color:red'>Fail,<span style='color:red'>Fail,<span style='color:red'>Fail,<span style='color:red'>Fail,<span style='color:green'>Lift,<span style='color:red'>Fail,<span style='color:green'>Lift,<span style='color:red'>Fail","<span style='color:red'>Fail,<span style='color:red'>Fail,<span style='color:green'>Lift,<span style='color:green'>Lift,<span style='color:green'>Lift,<span style='color:green'>Lift,<span style='color:green'>Lift,<span style='color:red'>Fail,<span style='color:green'>Lift,<span style='color:green'>Lift,<span style='color:green'>Lift,<span style='color:red'>Fail","<span style='color:red'>Fail,<span style='color:green'>Lift,<span style='color:green'>Lift,<span style='color:red'>Fail,<span style='color:green'>Lift,<span style='color:green'>Lift","0,0,1,1,0,0,0,0,1,0,1,0","0,0,1,1,1,1,1,0,1,1,1,0","0,1,1,0,1,1",10,20,20,"","","","","{""box1"":""50"",""box2"":""50""}","",2,"round2_ready",2,2,2,NA,NA,NA,NA,NA,NA,NA,NA,NA,NA,NA,NA,NA,NA,50,50,50,50,NA,NA,NA,NA,NA,NA,NA,NA,NA,NA,NA,NA,NA,NA,NA,NA,NA,NA,NA,"",NA,NA,NA,NA,NA,NA,NA,NA,NA,2025-11-21 01:29:09
"8807","https://psyc-201.github.io/xiang2023/exp/index1.html?PROLIFIC_PID=REDACTED&STUDY_ID=691f8ca61c6b4dcbb0aeb5f4&SESSION_ID=691fbcaa18d601e147aece95","survey-html-form",16,293577,"0.0-319.0","r8hlLmEH/DEkCS69fSy7QlWM++1z3ZEWU3uSCuDDQkiKIOJve5mBgz3Gi9KPNSpowTowGkPw/MPMuKb7plkSafwPZEDsQlh/wlYgvBYwvmrcYb+Ix4z/C75E7KhZca2z3SRbW5t/y5K/ALkxmrj+YNaf8a4IDfW9+YvmvzfwdwIFHGoPtQZf1ps1cweFbl2JQz8KaBOGZH2GZt/oYAtLwyTT4t4/dOaWnHqJB5frW2QmSI1W3QebaQ9Wi7FYMA1okk8rS8a64wGErLwza+19ObBxRARi0oiSvyoiirHW9XMa/f/gK6HVs8AslU9iknKYPO1hfh1HO6uel6/hzrZv4Q==","691f8ca61c6b4dcbb0aeb5f4","691fbcaa18d601e147aece95","index1","<span style='color:red'>Fail,<span style='color:red'>Fail,<span style='color:green'>Lift,<span style='color:green'>Lift,<span style='color:red'>Fail,<span style='color:red'>Fail,<span style='color:red'>Fail,<span style='color:red'>Fail,<span style='color:green'>Lift,<span style='color:red'>Fail,<span style='color:green'>Lift,<span style='color:red'>Fail","<span style='color:red'>Fail,<span style='color:red'>Fail,<span style='color:green'>Lift,<span style='color:green'>Lift,<span style='color:green'>Lift,<span style='color:green'>Lift,<span style='color:green'>Lift,<span style='color:red'>Fail,<span style='color:green'>Lift,<span style='color:green'>Lift,<span style='color:green'>Lift,<span style='color:red'>Fail","<span style='color:red'>Fail,<span style='color:green'>Lift,<span style='color:green'>Lift,<span style='color:red'>Fail,<span style='color:green'>Lift,<span style='color:green'>Lift","0,0,1,1,0,0,0,0,1,0,1,0","0,0,1,1,1,1,1,0,1,1,1,0","0,1,1,0,1,1",10,20,20,"","","","","{""box1"":""8"",""box2"":""8"",""box3"":""50"",""box4"":""50""}","",2,"round2_outcome",3,2,2,8,8,50,50,1,1,20,NA,NA,NA,NA,NA,NA,NA,NA,NA,NA,NA,8,8,50,50,1,1,20,NA,NA,NA,NA,NA,NA,NA,NA,NA,NA,NA,NA,"",NA,NA,NA,NA,NA,NA,NA,NA,NA,2025-11-21 01:29:09
"2934","https://psyc-201.github.io/xiang2023/exp/index1.html?PROLIFIC_PID=REDACTED&STUDY_ID=691f8ca61c6b4dcbb0aeb5f4&SESSION_ID=691fbcaa18d601e147aece95","survey-html-form",17,296512,"0.0-320.0","r8hlLmEH/DEkCS69fSy7QlWM++1z3ZEWU3uSCuDDQkiKIOJve5mBgz3Gi9KPNSpowTowGkPw/MPMuKb7plkSafwPZEDsQlh/wlYgvBYwvmrcYb+Ix4z/C75E7KhZca2z3SRbW5t/y5K/ALkxmrj+YNaf8a4IDfW9+YvmvzfwdwIFHGoPtQZf1ps1cweFbl2JQz8KaBOGZH2GZt/oYAtLwyTT4t4/dOaWnHqJB5frW2QmSI1W3QebaQ9Wi7FYMA1okk8rS8a64wGErLwza+19ObBxRARi0oiSvyoiirHW9XMa/f/gK6HVs8AslU9iknKYPO1hfh1HO6uel6/hzrZv4Q==","691f8ca61c6b4dcbb0aeb5f4","691fbcaa18d601e147aece95","index1","<span style='color:red'>Fail,<span style='color:red'>Fail,<span style='color:green'>Lift,<span style='color:green'>Lift,<span style='color:red'>Fail,<span style='color:red'>Fail,<span style='color:red'>Fail,<span style='color:red'>Fail,<span style='color:green'>Lift,<span style='color:red'>Fail,<span style='color:green'>Lift,<span style='color:red'>Fail","<span style='color:red'>Fail,<span style='color:red'>Fail,<span style='color:green'>Lift,<span style='color:green'>Lift,<span style='color:green'>Lift,<span style='color:green'>Lift,<span style='color:green'>Lift,<span style='color:red'>Fail,<span style='color:green'>Lift,<span style='color:green'>Lift,<span style='color:green'>Lift,<span style='color:red'>Fail","<span style='color:red'>Fail,<span style='color:green'>Lift,<span style='color:green'>Lift,<span style='color:red'>Fail,<span style='color:green'>Lift,<span style='color:green'>Lift","0,0,1,1,0,0,0,0,1,0,1,0","0,0,1,1,1,1,1,0,1,1,1,0","0,1,1,0,1,1",10,20,20,"","","","","{""box1"":""100""}","",2,"round3_ready",4,2,3,NA,NA,NA,NA,NA,NA,NA,NA,NA,NA,NA,NA,NA,NA,100,100,NA,NA,NA,NA,NA,NA,NA,NA,NA,100,100,NA,NA,NA,NA,NA,NA,NA,NA,NA,NA,"",NA,NA,NA,NA,NA,NA,NA,NA,NA,2025-11-21 01:29:09
"6446","https://psyc-201.github.io/xiang2023/exp/index1.html?PROLIFIC_PID=REDACTED&STUDY_ID=691f8ca61c6b4dcbb0aeb5f4&SESSION_ID=691fbcaa18d601e147aece95","survey-html-form",18,302961,"0.0-321.0-0.0","r8hlLmEH/DEkCS69fSy7QlWM++1z3ZEWU3uSCuDDQkiKIOJve5mBgz3Gi9KPNSpowTowGkPw/MPMuKb7plkSafwPZEDsQlh/wlYgvBYwvmrcYb+Ix4z/C75E7KhZca2z3SRbW5t/y5K/ALkxmrj+YNaf8a4IDfW9+YvmvzfwdwIFHGoPtQZf1ps1cweFbl2JQz8KaBOGZH2GZt/oYAtLwyTT4t4/dOaWnHqJB5frW2QmSI1W3QebaQ9Wi7FYMA1okk8rS8a64wGErLwza+19ObBxRARi0oiSvyoiirHW9XMa/f/gK6HVs8AslU9iknKYPO1hfh1HO6uel6/hzrZv4Q==","691f8ca61c6b4dcbb0aeb5f4","691fbcaa18d601e147aece95","index1","<span style='color:red'>Fail,<span style='color:red'>Fail,<span style='color:green'>Lift,<span style='color:green'>Lift,<span style='color:red'>Fail,<span style='color:red'>Fail,<span style='color:red'>Fail,<span style='color:red'>Fail,<span style='color:green'>Lift,<span style='color:red'>Fail,<span style='color:green'>Lift,<span style='color:red'>Fail","<span style='color:red'>Fail,<span style='color:red'>Fail,<span style='color:green'>Lift,<span style='color:green'>Lift,<span style='color:green'>Lift,<span style='color:green'>Lift,<span style='color:green'>Lift,<span style='color:red'>Fail,<span style='color:green'>Lift,<span style='color:green'>Lift,<span style='color:green'>Lift,<span style='color:red'>Fail","<span style='color:red'>Fail,<span style='color:green'>Lift,<span style='color:green'>Lift,<span style='color:red'>Fail,<span style='color:green'>Lift,<span style='color:green'>Lift","0,0,1,1,0,0,0,0,1,0,1,0","0,0,1,1,1,1,1,0,1,1,1,0","0,1,1,0,1,1",10,20,20,"","","","","{""box1"":""8"",""box2"":""8"",""box3"":""60"",""box4"":""60""}","",3,"round3_lift",5,2,3,8,8,60,60,1,1,20,NA,NA,NA,NA,NA,NA,NA,NA,NA,NA,NA,NA,NA,NA,NA,NA,NA,NA,NA,NA,8,8,60,60,1,1,20,NA,NA,NA,"",NA,NA,NA,NA,NA,NA,NA,NA,NA,2025-11-21 01:29:09
"null","https://psyc-201.github.io/xiang2023/exp/index1.html?PROLIFIC_PID=REDACTED&STUDY_ID=691f8ca61c6b4dcbb0aeb5f4&SESSION_ID=691fbcaa18d601e147aece95","html-keyboard-response",19,305965,"0.0-325.0","r8hlLmEH/DEkCS69fSy7QlWM++1z3ZEWU3uSCuDDQkiKIOJve5mBgz3Gi9KPNSpowTowGkPw/MPMuKb7plkSafwPZEDsQlh/wlYgvBYwvmrcYb+Ix4z/C75E7KhZca2z3SRbW5t/y5K/ALkxmrj+YNaf8a4IDfW9+YvmvzfwdwIFHGoPtQZf1ps1cweFbl2JQz8KaBOGZH2GZt/oYAtLwyTT4t4/dOaWnHqJB5frW2QmSI1W3QebaQ9Wi7FYMA1okk8rS8a64wGErLwza+19ObBxRARi0oiSvyoiirHW9XMa/f/gK6HVs8AslU9iknKYPO1hfh1HO6uel6/hzrZv4Q==","691f8ca61c6b4dcbb0aeb5f4","691fbcaa18d601e147aece95","index1","<span style='color:red'>Fail,<span style='color:red'>Fail,<span style='color:green'>Lift,<span style='color:green'>Lift,<span style='color:red'>Fail,<span style='color:red'>Fail,<span style='color:red'>Fail,<span style='color:red'>Fail,<span style='color:green'>Lift,<span style='color:red'>Fail,<span style='color:green'>Lift,<span style='color:red'>Fail","<span style='color:red'>Fail,<span style='color:red'>Fail,<span style='color:green'>Lift,<span style='color:green'>Lift,<span style='color:green'>Lift,<span style='color:green'>Lift,<span style='color:green'>Lift,<span style='color:red'>Fail,<span style='color:green'>Lift,<span style='color:green'>Lift,<span style='color:green'>Lift,<span style='color:red'>Fail","<span style='color:red'>Fail,<span style='color:green'>Lift,<span style='color:green'>Lift,<span style='color:red'>Fail,<span style='color:green'>Lift,<span style='color:green'>Lift","0,0,1,1,0,0,0,0,1,0,1,0","0,0,1,1,1,1,1,0,1,1,1,0","0,1,1,0,1,1",10,20,20,"","","<p style='font-size:30px'><b> New Contest! </b></p>","null","","",3,"",NA,NA,NA,NA,NA,NA,NA,NA,NA,NA,NA,NA,NA,NA,NA,NA,NA,NA,NA,NA,NA,NA,NA,NA,NA,NA,NA,NA,NA,NA,NA,NA,NA,NA,NA,NA,NA,NA,NA,NA,"",NA,NA,NA,NA,NA,NA,NA,NA,NA,2025-11-21 01:29:09
"16650","https://psyc-201.github.io/xiang2023/exp/index1.html?PROLIFIC_PID=REDACTED&STUDY_ID=691f8ca61c6b4dcbb0aeb5f4&SESSION_ID=691fbcaa18d601e147aece95","survey-html-form",20,322617,"0.0-326.0","r8hlLmEH/DEkCS69fSy7QlWM++1z3ZEWU3uSCuDDQkiKIOJve5mBgz3Gi9KPNSpowTowGkPw/MPMuKb7plkSafwPZEDsQlh/wlYgvBYwvmrcYb+Ix4z/C75E7KhZca2z3SRbW5t/y5K/ALkxmrj+YNaf8a4IDfW9+YvmvzfwdwIFHGoPtQZf1ps1cweFbl2JQz8KaBOGZH2GZt/oYAtLwyTT4t4/dOaWnHqJB5frW2QmSI1W3QebaQ9Wi7FYMA1okk8rS8a64wGErLwza+19ObBxRARi0oiSvyoiirHW9XMa/f/gK6HVs8AslU9iknKYPO1hfh1HO6uel6/hzrZv4Q==","691f8ca61c6b4dcbb0aeb5f4","691fbcaa18d601e147aece95","index1","<span style='color:red'>Fail,<span style='color:red'>Fail,<span style='color:green'>Lift,<span style='color:green'>Lift,<span style='color:red'>Fail,<span style='color:red'>Fail,<span style='color:red'>Fail,<span style='color:red'>Fail,<span style='color:green'>Lift,<span style='color:red'>Fail,<span style='color:green'>Lift,<span style='color:red'>Fail","<span style='color:red'>Fail,<span style='color:red'>Fail,<span style='color:green'>Lift,<span style='color:green'>Lift,<span style='color:green'>Lift,<span style='color:green'>Lift,<span style='color:green'>Lift,<span style='color:red'>Fail,<span style='color:green'>Lift,<span style='color:green'>Lift,<span style='color:green'>Lift,<span style='color:red'>Fail","<span style='color:red'>Fail,<span style='color:green'>Lift,<span style='color:green'>Lift,<span style='color:red'>Fail,<span style='color:green'>Lift,<span style='color:green'>Lift","0,0,1,1,0,0,0,0,1,0,1,0","0,0,1,1,1,1,1,0,1,1,1,0","0,1,1,0,1,1",10,20,20,"","","","","{""box1"":""5"",""box2"":""5"",""box3"":""70""}","",3,"round1_outcome",1,3,1,5,5,70,NA,1,0,10,5,5,70,NA,1,0,10,NA,NA,NA,NA,NA,NA,NA,NA,NA,NA,NA,NA,NA,NA,NA,NA,NA,NA,NA,NA,NA,NA,NA,"",NA,NA,NA,NA,NA,NA,NA,NA,NA,2025-11-21 01:29:09
"6262","https://psyc-201.github.io/xiang2023/exp/index1.html?PROLIFIC_PID=REDACTED&STUDY_ID=691f8ca61c6b4dcbb0aeb5f4&SESSION_ID=691fbcaa18d601e147aece95","survey-html-form",21,328881,"0.0-327.0","r8hlLmEH/DEkCS69fSy7QlWM++1z3ZEWU3uSCuDDQkiKIOJve5mBgz3Gi9KPNSpowTowGkPw/MPMuKb7plkSafwPZEDsQlh/wlYgvBYwvmrcYb+Ix4z/C75E7KhZca2z3SRbW5t/y5K/ALkxmrj+YNaf8a4IDfW9+YvmvzfwdwIFHGoPtQZf1ps1cweFbl2JQz8KaBOGZH2GZt/oYAtLwyTT4t4/dOaWnHqJB5frW2QmSI1W3QebaQ9Wi7FYMA1okk8rS8a64wGErLwza+19ObBxRARi0oiSvyoiirHW9XMa/f/gK6HVs8AslU9iknKYPO1hfh1HO6uel6/hzrZv4Q==","691f8ca61c6b4dcbb0aeb5f4","691fbcaa18d601e147aece95","index1","<span style='color:red'>Fail,<span style='color:red'>Fail,<span style='color:green'>Lift,<span style='color:green'>Lift,<span style='color:red'>Fail,<span style='color:red'>Fail,<span style='color:red'>Fail,<span style='color:red'>Fail,<span style='color:green'>Lift,<span style='color:red'>Fail,<span style='color:green'>Lift,<span style='color:red'>Fail","<span style='color:red'>Fail,<span style='color:red'>Fail,<span style='color:green'>Lift,<span style='color:green'>Lift,<span style='color:green'>Lift,<span style='color:green'>Lift,<span style='color:green'>Lift,<span style='color:red'>Fail,<span style='color:green'>Lift,<span style='color:green'>Lift,<span style='color:green'>Lift,<span style='color:red'>Fail","<span style='color:red'>Fail,<span style='color:green'>Lift,<span style='color:green'>Lift,<span style='color:red'>Fail,<span style='color:green'>Lift,<span style='color:green'>Lift","0,0,1,1,0,0,0,0,1,0,1,0","0,0,1,1,1,1,1,0,1,1,1,0","0,1,1,0,1,1",10,20,20,"","","","","{""box1"":""60"",""box2"":""70""}","",3,"round2_ready",2,3,2,NA,NA,NA,NA,NA,NA,NA,NA,NA,NA,NA,NA,NA,NA,60,70,60,70,NA,NA,NA,NA,NA,NA,NA,NA,NA,NA,NA,NA,NA,NA,NA,NA,NA,NA,NA,"",NA,NA,NA,NA,NA,NA,NA,NA,NA,2025-11-21 01:29:09
"26046","https://psyc-201.github.io/xiang2023/exp/index1.html?PROLIFIC_PID=REDACTED&STUDY_ID=691f8ca61c6b4dcbb0aeb5f4&SESSION_ID=691fbcaa18d601e147aece95","survey-html-form",22,354929,"0.0-328.0","r8hlLmEH/DEkCS69fSy7QlWM++1z3ZEWU3uSCuDDQkiKIOJve5mBgz3Gi9KPNSpowTowGkPw/MPMuKb7plkSafwPZEDsQlh/wlYgvBYwvmrcYb+Ix4z/C75E7KhZca2z3SRbW5t/y5K/ALkxmrj+YNaf8a4IDfW9+YvmvzfwdwIFHGoPtQZf1ps1cweFbl2JQz8KaBOGZH2GZt/oYAtLwyTT4t4/dOaWnHqJB5frW2QmSI1W3QebaQ9Wi7FYMA1okk8rS8a64wGErLwza+19ObBxRARi0oiSvyoiirHW9XMa/f/gK6HVs8AslU9iknKYPO1hfh1HO6uel6/hzrZv4Q==","691f8ca61c6b4dcbb0aeb5f4","691fbcaa18d601e147aece95","index1","<span style='color:red'>Fail,<span style='color:red'>Fail,<span style='color:green'>Lift,<span style='color:green'>Lift,<span style='color:red'>Fail,<span style='color:red'>Fail,<span style='color:red'>Fail,<span style='color:red'>Fail,<span style='color:green'>Lift,<span style='color:red'>Fail,<span style='color:green'>Lift,<span style='color:red'>Fail","<span style='color:red'>Fail,<span style='color:red'>Fail,<span style='color:green'>Lift,<span style='color:green'>Lift,<span style='color:green'>Lift,<span style='color:green'>Lift,<span style='color:green'>Lift,<span style='color:red'>Fail,<span style='color:green'>Lift,<span style='color:green'>Lift,<span style='color:green'>Lift,<span style='color:red'>Fail","<span style='color:red'>Fail,<span style='color:green'>Lift,<span style='color:green'>Lift,<span style='color:red'>Fail,<span style='color:green'>Lift,<span style='color:green'>Lift","0,0,1,1,0,0,0,0,1,0,1,0","0,0,1,1,1,1,1,0,1,1,1,0","0,1,1,0,1,1",10,20,20,"","","","","{""box1"":""6"",""box2"":""7"",""box3"":""90"",""box4"":""75""}","",3,"round2_outcome",3,3,2,6,7,90,75,1,1,20,NA,NA,NA,NA,NA,NA,NA,NA,NA,NA,NA,6,7,90,75,1,1,20,NA,NA,NA,NA,NA,NA,NA,NA,NA,NA,NA,NA,"",NA,NA,NA,NA,NA,NA,NA,NA,NA,2025-11-21 01:29:09
"3599","https://psyc-201.github.io/xiang2023/exp/index1.html?PROLIFIC_PID=REDACTED&STUDY_ID=691f8ca61c6b4dcbb0aeb5f4&SESSION_ID=691fbcaa18d601e147aece95","survey-html-form",23,358529,"0.0-329.0","r8hlLmEH/DEkCS69fSy7QlWM++1z3ZEWU3uSCuDDQkiKIOJve5mBgz3Gi9KPNSpowTowGkPw/MPMuKb7plkSafwPZEDsQlh/wlYgvBYwvmrcYb+Ix4z/C75E7KhZca2z3SRbW5t/y5K/ALkxmrj+YNaf8a4IDfW9+YvmvzfwdwIFHGoPtQZf1ps1cweFbl2JQz8KaBOGZH2GZt/oYAtLwyTT4t4/dOaWnHqJB5frW2QmSI1W3QebaQ9Wi7FYMA1okk8rS8a64wGErLwza+19ObBxRARi0oiSvyoiirHW9XMa/f/gK6HVs8AslU9iknKYPO1hfh1HO6uel6/hzrZv4Q==","691f8ca61c6b4dcbb0aeb5f4","691fbcaa18d601e147aece95","index1","<span style='color:red'>Fail,<span style='color:red'>Fail,<span style='color:green'>Lift,<span style='color:green'>Lift,<span style='color:red'>Fail,<span style='color:red'>Fail,<span style='color:red'>Fail,<span style='color:red'>Fail,<span style='color:green'>Lift,<span style='color:red'>Fail,<span style='color:green'>Lift,<span style='color:red'>Fail","<span style='color:red'>Fail,<span style='color:red'>Fail,<span style='color:green'>Lift,<span style='color:green'>Lift,<span style='color:green'>Lift,<span style='color:green'>Lift,<span style='color:green'>Lift,<span style='color:red'>Fail,<span style='color:green'>Lift,<span style='color:green'>Lift,<span style='color:green'>Lift,<span style='color:red'>Fail","<span style='color:red'>Fail,<span style='color:green'>Lift,<span style='color:green'>Lift,<span style='color:red'>Fail,<span style='color:green'>Lift,<span style='color:green'>Lift","0,0,1,1,0,0,0,0,1,0,1,0","0,0,1,1,1,1,1,0,1,1,1,0","0,1,1,0,1,1",10,20,20,"","","","","{""box1"":""100""}","",3,"round3_ready",4,3,3,NA,NA,NA,NA,NA,NA,NA,NA,NA,NA,NA,NA,NA,NA,100,100,NA,NA,NA,NA,NA,NA,NA,NA,NA,100,100,NA,NA,NA,NA,NA,NA,NA,NA,NA,NA,"",NA,NA,NA,NA,NA,NA,NA,NA,NA,2025-11-21 01:29:09
"15711","https://psyc-201.github.io/xiang2023/exp/index1.html?PROLIFIC_PID=REDACTED&STUDY_ID=691f8ca61c6b4dcbb0aeb5f4&SESSION_ID=691fbcaa18d601e147aece95","survey-html-form",24,374241,"0.0-330.0-0.0","r8hlLmEH/DEkCS69fSy7QlWM++1z3ZEWU3uSCuDDQkiKIOJve5mBgz3Gi9KPNSpowTowGkPw/MPMuKb7plkSafwPZEDsQlh/wlYgvBYwvmrcYb+Ix4z/C75E7KhZca2z3SRbW5t/y5K/ALkxmrj+YNaf8a4IDfW9+YvmvzfwdwIFHGoPtQZf1ps1cweFbl2JQz8KaBOGZH2GZt/oYAtLwyTT4t4/dOaWnHqJB5frW2QmSI1W3QebaQ9Wi7FYMA1okk8rS8a64wGErLwza+19ObBxRARi0oiSvyoiirHW9XMa/f/gK6HVs8AslU9iknKYPO1hfh1HO6uel6/hzrZv4Q==","691f8ca61c6b4dcbb0aeb5f4","691fbcaa18d601e147aece95","index1","<span style='color:red'>Fail,<span style='color:red'>Fail,<span style='color:green'>Lift,<span style='color:green'>Lift,<span style='color:red'>Fail,<span style='color:red'>Fail,<span style='color:red'>Fail,<span style='color:red'>Fail,<span style='color:green'>Lift,<span style='color:red'>Fail,<span style='color:green'>Lift,<span style='color:red'>Fail","<span style='color:red'>Fail,<span style='color:red'>Fail,<span style='color:green'>Lift,<span style='color:green'>Lift,<span style='color:green'>Lift,<span style='color:green'>Lift,<span style='color:green'>Lift,<span style='color:red'>Fail,<span style='color:green'>Lift,<span style='color:green'>Lift,<span style='color:green'>Lift,<span style='color:red'>Fail","<span style='color:red'>Fail,<span style='color:green'>Lift,<span style='color:green'>Lift,<span style='color:red'>Fail,<span style='color:green'>Lift,<span style='color:green'>Lift","0,0,1,1,0,0,0,0,1,0,1,0","0,0,1,1,1,1,1,0,1,1,1,0","0,1,1,0,1,1",10,20,20,"","","","","{""box1"":""6"",""box2"":""7"",""box3"":""80"",""box4"":""50""}","",4,"round3_lift",5,3,3,6,7,80,50,1,1,20,NA,NA,NA,NA,NA,NA,NA,NA,NA,NA,NA,NA,NA,NA,NA,NA,NA,NA,NA,NA,6,7,80,50,1,1,20,NA,NA,NA,"",NA,NA,NA,NA,NA,NA,NA,NA,NA,2025-11-21 01:29:09
"null","https://psyc-201.github.io/xiang2023/exp/index1.html?PROLIFIC_PID=REDACTED&STUDY_ID=691f8ca61c6b4dcbb0aeb5f4&SESSION_ID=691fbcaa18d601e147aece95","html-keyboard-response",25,377256,"0.0-334.0","r8hlLmEH/DEkCS69fSy7QlWM++1z3ZEWU3uSCuDDQkiKIOJve5mBgz3Gi9KPNSpowTowGkPw/MPMuKb7plkSafwPZEDsQlh/wlYgvBYwvmrcYb+Ix4z/C75E7KhZca2z3SRbW5t/y5K/ALkxmrj+YNaf8a4IDfW9+YvmvzfwdwIFHGoPtQZf1ps1cweFbl2JQz8KaBOGZH2GZt/oYAtLwyTT4t4/dOaWnHqJB5frW2QmSI1W3QebaQ9Wi7FYMA1okk8rS8a64wGErLwza+19ObBxRARi0oiSvyoiirHW9XMa/f/gK6HVs8AslU9iknKYPO1hfh1HO6uel6/hzrZv4Q==","691f8ca61c6b4dcbb0aeb5f4","691fbcaa18d601e147aece95","index1","<span style='color:red'>Fail,<span style='color:red'>Fail,<span style='color:green'>Lift,<span style='color:green'>Lift,<span style='color:red'>Fail,<span style='color:red'>Fail,<span style='color:red'>Fail,<span style='color:red'>Fail,<span style='color:green'>Lift,<span style='color:red'>Fail,<span style='color:green'>Lift,<span style='color:red'>Fail","<span style='color:red'>Fail,<span style='color:red'>Fail,<span style='color:green'>Lift,<span style='color:green'>Lift,<span style='color:green'>Lift,<span style='color:green'>Lift,<span style='color:green'>Lift,<span style='color:red'>Fail,<span style='color:green'>Lift,<span style='color:green'>Lift,<span style='color:green'>Lift,<span style='color:red'>Fail","<span style='color:red'>Fail,<span style='color:green'>Lift,<span style='color:green'>Lift,<span style='color:red'>Fail,<span style='color:green'>Lift,<span style='color:green'>Lift","0,0,1,1,0,0,0,0,1,0,1,0","0,0,1,1,1,1,1,0,1,1,1,0","0,1,1,0,1,1",10,20,20,"","","<p style='font-size:30px'><b> New Contest! </b></p>","null","","",4,"",NA,NA,NA,NA,NA,NA,NA,NA,NA,NA,NA,NA,NA,NA,NA,NA,NA,NA,NA,NA,NA,NA,NA,NA,NA,NA,NA,NA,NA,NA,NA,NA,NA,NA,NA,NA,NA,NA,NA,NA,"",NA,NA,NA,NA,NA,NA,NA,NA,NA,2025-11-21 01:29:09
"4600","https://psyc-201.github.io/xiang2023/exp/index1.html?PROLIFIC_PID=REDACTED&STUDY_ID=691f8ca61c6b4dcbb0aeb5f4&SESSION_ID=691fbcaa18d601e147aece95","survey-html-form",26,381857,"0.0-335.0","r8hlLmEH/DEkCS69fSy7QlWM++1z3ZEWU3uSCuDDQkiKIOJve5mBgz3Gi9KPNSpowTowGkPw/MPMuKb7plkSafwPZEDsQlh/wlYgvBYwvmrcYb+Ix4z/C75E7KhZca2z3SRbW5t/y5K/ALkxmrj+YNaf8a4IDfW9+YvmvzfwdwIFHGoPtQZf1ps1cweFbl2JQz8KaBOGZH2GZt/oYAtLwyTT4t4/dOaWnHqJB5frW2QmSI1W3QebaQ9Wi7FYMA1okk8rS8a64wGErLwza+19ObBxRARi0oiSvyoiirHW9XMa/f/gK6HVs8AslU9iknKYPO1hfh1HO6uel6/hzrZv4Q==","691f8ca61c6b4dcbb0aeb5f4","691fbcaa18d601e147aece95","index1","<span style='color:red'>Fail,<span style='color:red'>Fail,<span style='color:green'>Lift,<span style='color:green'>Lift,<span style='color:red'>Fail,<span style='color:red'>Fail,<span style='color:red'>Fail,<span style='color:red'>Fail,<span style='color:green'>Lift,<span style='color:red'>Fail,<span style='color:green'>Lift,<span style='color:red'>Fail","<span style='color:red'>Fail,<span style='color:red'>Fail,<span style='color:green'>Lift,<span style='color:green'>Lift,<span style='color:green'>Lift,<span style='color:green'>Lift,<span style='color:green'>Lift,<span style='color:red'>Fail,<span style='color:green'>Lift,<span style='color:green'>Lift,<span style='color:green'>Lift,<span style='color:red'>Fail","<span style='color:red'>Fail,<span style='color:green'>Lift,<span style='color:green'>Lift,<span style='color:red'>Fail,<span style='color:green'>Lift,<span style='color:green'>Lift","0,0,1,1,0,0,0,0,1,0,1,0","0,0,1,1,1,1,1,0,1,1,1,0","0,1,1,0,1,1",10,20,20,"","","","","{""box1"":""5"",""box2"":""5""}","",4,"round1_outcome",1,4,1,5,5,NA,NA,0,0,10,5,5,NA,NA,0,0,10,NA,NA,NA,NA,NA,NA,NA,NA,NA,NA,NA,NA,NA,NA,NA,NA,NA,NA,NA,NA,NA,NA,NA,"",NA,NA,NA,NA,NA,NA,NA,NA,NA,2025-11-21 01:29:09
"4342","https://psyc-201.github.io/xiang2023/exp/index1.html?PROLIFIC_PID=REDACTED&STUDY_ID=691f8ca61c6b4dcbb0aeb5f4&SESSION_ID=691fbcaa18d601e147aece95","survey-html-form",27,386200,"0.0-336.0","r8hlLmEH/DEkCS69fSy7QlWM++1z3ZEWU3uSCuDDQkiKIOJve5mBgz3Gi9KPNSpowTowGkPw/MPMuKb7plkSafwPZEDsQlh/wlYgvBYwvmrcYb+Ix4z/C75E7KhZca2z3SRbW5t/y5K/ALkxmrj+YNaf8a4IDfW9+YvmvzfwdwIFHGoPtQZf1ps1cweFbl2JQz8KaBOGZH2GZt/oYAtLwyTT4t4/dOaWnHqJB5frW2QmSI1W3QebaQ9Wi7FYMA1okk8rS8a64wGErLwza+19ObBxRARi0oiSvyoiirHW9XMa/f/gK6HVs8AslU9iknKYPO1hfh1HO6uel6/hzrZv4Q==","691f8ca61c6b4dcbb0aeb5f4","691fbcaa18d601e147aece95","index1","<span style='color:red'>Fail,<span style='color:red'>Fail,<span style='color:green'>Lift,<span style='color:green'>Lift,<span style='color:red'>Fail,<span style='color:red'>Fail,<span style='color:red'>Fail,<span style='color:red'>Fail,<span style='color:green'>Lift,<span style='color:red'>Fail,<span style='color:green'>Lift,<span style='color:red'>Fail","<span style='color:red'>Fail,<span style='color:red'>Fail,<span style='color:green'>Lift,<span style='color:green'>Lift,<span style='color:green'>Lift,<span style='color:green'>Lift,<span style='color:green'>Lift,<span style='color:red'>Fail,<span style='color:green'>Lift,<span style='color:green'>Lift,<span style='color:green'>Lift,<span style='color:red'>Fail","<span style='color:red'>Fail,<span style='color:green'>Lift,<span style='color:green'>Lift,<span style='color:red'>Fail,<span style='color:green'>Lift,<span style='color:green'>Lift","0,0,1,1,0,0,0,0,1,0,1,0","0,0,1,1,1,1,1,0,1,1,1,0","0,1,1,0,1,1",10,20,20,"","","","","{""box1"":""60"",""box2"":""60""}","",4,"round2_ready",2,4,2,NA,NA,NA,NA,NA,NA,NA,NA,NA,NA,NA,NA,NA,NA,60,60,60,60,NA,NA,NA,NA,NA,NA,NA,NA,NA,NA,NA,NA,NA,NA,NA,NA,NA,NA,NA,"",NA,NA,NA,NA,NA,NA,NA,NA,NA,2025-11-21 01:29:09
"5263","https://psyc-201.github.io/xiang2023/exp/index1.html?PROLIFIC_PID=REDACTED&STUDY_ID=691f8ca61c6b4dcbb0aeb5f4&SESSION_ID=691fbcaa18d601e147aece95","survey-html-form",28,391465,"0.0-337.0","r8hlLmEH/DEkCS69fSy7QlWM++1z3ZEWU3uSCuDDQkiKIOJve5mBgz3Gi9KPNSpowTowGkPw/MPMuKb7plkSafwPZEDsQlh/wlYgvBYwvmrcYb+Ix4z/C75E7KhZca2z3SRbW5t/y5K/ALkxmrj+YNaf8a4IDfW9+YvmvzfwdwIFHGoPtQZf1ps1cweFbl2JQz8KaBOGZH2GZt/oYAtLwyTT4t4/dOaWnHqJB5frW2QmSI1W3QebaQ9Wi7FYMA1okk8rS8a64wGErLwza+19ObBxRARi0oiSvyoiirHW9XMa/f/gK6HVs8AslU9iknKYPO1hfh1HO6uel6/hzrZv4Q==","691f8ca61c6b4dcbb0aeb5f4","691fbcaa18d601e147aece95","index1","<span style='color:red'>Fail,<span style='color:red'>Fail,<span style='color:green'>Lift,<span style='color:green'>Lift,<span style='color:red'>Fail,<span style='color:red'>Fail,<span style='color:red'>Fail,<span style='color:red'>Fail,<span style='color:green'>Lift,<span style='color:red'>Fail,<span style='color:green'>Lift,<span style='color:red'>Fail","<span style='color:red'>Fail,<span style='color:red'>Fail,<span style='color:green'>Lift,<span style='color:green'>Lift,<span style='color:green'>Lift,<span style='color:green'>Lift,<span style='color:green'>Lift,<span style='color:red'>Fail,<span style='color:green'>Lift,<span style='color:green'>Lift,<span style='color:green'>Lift,<span style='color:red'>Fail","<span style='color:red'>Fail,<span style='color:green'>Lift,<span style='color:green'>Lift,<span style='color:red'>Fail,<span style='color:green'>Lift,<span style='color:green'>Lift","0,0,1,1,0,0,0,0,1,0,1,0","0,0,1,1,1,1,1,0,1,1,1,0","0,1,1,0,1,1",10,20,20,"","","","","{""box1"":""3"",""box2"":""3""}","",4,"round2_outcome",3,4,2,3,3,NA,NA,0,0,20,NA,NA,NA,NA,NA,NA,NA,NA,NA,NA,NA,3,3,NA,NA,0,0,20,NA,NA,NA,NA,NA,NA,NA,NA,NA,NA,NA,NA,"",NA,NA,NA,NA,NA,NA,NA,NA,NA,2025-11-21 01:29:09
"3158","https://psyc-201.github.io/xiang2023/exp/index1.html?PROLIFIC_PID=REDACTED&STUDY_ID=691f8ca61c6b4dcbb0aeb5f4&SESSION_ID=691fbcaa18d601e147aece95","survey-html-form",29,394625,"0.0-338.0","r8hlLmEH/DEkCS69fSy7QlWM++1z3ZEWU3uSCuDDQkiKIOJve5mBgz3Gi9KPNSpowTowGkPw/MPMuKb7plkSafwPZEDsQlh/wlYgvBYwvmrcYb+Ix4z/C75E7KhZca2z3SRbW5t/y5K/ALkxmrj+YNaf8a4IDfW9+YvmvzfwdwIFHGoPtQZf1ps1cweFbl2JQz8KaBOGZH2GZt/oYAtLwyTT4t4/dOaWnHqJB5frW2QmSI1W3QebaQ9Wi7FYMA1okk8rS8a64wGErLwza+19ObBxRARi0oiSvyoiirHW9XMa/f/gK6HVs8AslU9iknKYPO1hfh1HO6uel6/hzrZv4Q==","691f8ca61c6b4dcbb0aeb5f4","691fbcaa18d601e147aece95","index1","<span style='color:red'>Fail,<span style='color:red'>Fail,<span style='color:green'>Lift,<span style='color:green'>Lift,<span style='color:red'>Fail,<span style='color:red'>Fail,<span style='color:red'>Fail,<span style='color:red'>Fail,<span style='color:green'>Lift,<span style='color:red'>Fail,<span style='color:green'>Lift,<span style='color:red'>Fail","<span style='color:red'>Fail,<span style='color:red'>Fail,<span style='color:green'>Lift,<span style='color:green'>Lift,<span style='color:green'>Lift,<span style='color:green'>Lift,<span style='color:green'>Lift,<span style='color:red'>Fail,<span style='color:green'>Lift,<span style='color:green'>Lift,<span style='color:green'>Lift,<span style='color:red'>Fail","<span style='color:red'>Fail,<span style='color:green'>Lift,<span style='color:green'>Lift,<span style='color:red'>Fail,<span style='color:green'>Lift,<span style='color:green'>Lift","0,0,1,1,0,0,0,0,1,0,1,0","0,0,1,1,1,1,1,0,1,1,1,0","0,1,1,0,1,1",10,20,20,"","","","","{""box1"":""25""}","",4,"round3_ready",4,4,3,NA,NA,NA,NA,NA,NA,NA,NA,NA,NA,NA,NA,NA,NA,25,25,NA,NA,NA,NA,NA,NA,NA,NA,NA,25,25,NA,NA,NA,NA,NA,NA,NA,NA,NA,NA,"",NA,NA,NA,NA,NA,NA,NA,NA,NA,2025-11-21 01:29:09
"8679","https://psyc-201.github.io/xiang2023/exp/index1.html?PROLIFIC_PID=REDACTED&STUDY_ID=691f8ca61c6b4dcbb0aeb5f4&SESSION_ID=691fbcaa18d601e147aece95","survey-html-form",30,403304,"0.0-340.0-0.0","r8hlLmEH/DEkCS69fSy7QlWM++1z3ZEWU3uSCuDDQkiKIOJve5mBgz3Gi9KPNSpowTowGkPw/MPMuKb7plkSafwPZEDsQlh/wlYgvBYwvmrcYb+Ix4z/C75E7KhZca2z3SRbW5t/y5K/ALkxmrj+YNaf8a4IDfW9+YvmvzfwdwIFHGoPtQZf1ps1cweFbl2JQz8KaBOGZH2GZt/oYAtLwyTT4t4/dOaWnHqJB5frW2QmSI1W3QebaQ9Wi7FYMA1okk8rS8a64wGErLwza+19ObBxRARi0oiSvyoiirHW9XMa/f/gK6HVs8AslU9iknKYPO1hfh1HO6uel6/hzrZv4Q==","691f8ca61c6b4dcbb0aeb5f4","691fbcaa18d601e147aece95","index1","<span style='color:red'>Fail,<span style='color:red'>Fail,<span style='color:green'>Lift,<span style='color:green'>Lift,<span style='color:red'>Fail,<span style='color:red'>Fail,<span style='color:red'>Fail,<span style='color:red'>Fail,<span style='color:green'>Lift,<span style='color:red'>Fail,<span style='color:green'>Lift,<span style='color:red'>Fail","<span style='color:red'>Fail,<span style='color:red'>Fail,<span style='color:green'>Lift,<span style='color:green'>Lift,<span style='color:green'>Lift,<span style='color:green'>Lift,<span style='color:green'>Lift,<span style='color:red'>Fail,<span style='color:green'>Lift,<span style='color:green'>Lift,<span style='color:green'>Lift,<span style='color:red'>Fail","<span style='color:red'>Fail,<span style='color:green'>Lift,<span style='color:green'>Lift,<span style='color:red'>Fail,<span style='color:green'>Lift,<span style='color:green'>Lift","0,0,1,1,0,0,0,0,1,0,1,0","0,0,1,1,1,1,1,0,1,1,1,0","0,1,1,0,1,1",10,20,20,"","","","","{""box1"":""3"",""box2"":""3"",""box3"":""999"",""box4"":""999""}","",5,"round3_fail",5,4,3,3,3,NA,NA,0,0,20,NA,NA,NA,NA,NA,NA,NA,NA,NA,NA,NA,NA,NA,NA,NA,NA,NA,NA,NA,NA,3,3,NA,NA,0,0,20,1,1,NA,"",NA,NA,NA,NA,NA,NA,NA,NA,NA,2025-11-21 01:29:09
"null","https://psyc-201.github.io/xiang2023/exp/index1.html?PROLIFIC_PID=REDACTED&STUDY_ID=691f8ca61c6b4dcbb0aeb5f4&SESSION_ID=691fbcaa18d601e147aece95","html-keyboard-response",31,406316,"0.0-343.0","r8hlLmEH/DEkCS69fSy7QlWM++1z3ZEWU3uSCuDDQkiKIOJve5mBgz3Gi9KPNSpowTowGkPw/MPMuKb7plkSafwPZEDsQlh/wlYgvBYwvmrcYb+Ix4z/C75E7KhZca2z3SRbW5t/y5K/ALkxmrj+YNaf8a4IDfW9+YvmvzfwdwIFHGoPtQZf1ps1cweFbl2JQz8KaBOGZH2GZt/oYAtLwyTT4t4/dOaWnHqJB5frW2QmSI1W3QebaQ9Wi7FYMA1okk8rS8a64wGErLwza+19ObBxRARi0oiSvyoiirHW9XMa/f/gK6HVs8AslU9iknKYPO1hfh1HO6uel6/hzrZv4Q==","691f8ca61c6b4dcbb0aeb5f4","691fbcaa18d601e147aece95","index1","<span style='color:red'>Fail,<span style='color:red'>Fail,<span style='color:green'>Lift,<span style='color:green'>Lift,<span style='color:red'>Fail,<span style='color:red'>Fail,<span style='color:red'>Fail,<span style='color:red'>Fail,<span style='color:green'>Lift,<span style='color:red'>Fail,<span style='color:green'>Lift,<span style='color:red'>Fail","<span style='color:red'>Fail,<span style='color:red'>Fail,<span style='color:green'>Lift,<span style='color:green'>Lift,<span style='color:green'>Lift,<span style='color:green'>Lift,<span style='color:green'>Lift,<span style='color:red'>Fail,<span style='color:green'>Lift,<span style='color:green'>Lift,<span style='color:green'>Lift,<span style='color:red'>Fail","<span style='color:red'>Fail,<span style='color:green'>Lift,<span style='color:green'>Lift,<span style='color:red'>Fail,<span style='color:green'>Lift,<span style='color:green'>Lift","0,0,1,1,0,0,0,0,1,0,1,0","0,0,1,1,1,1,1,0,1,1,1,0","0,1,1,0,1,1",10,20,20,"","","<p style='font-size:30px'><b> New Contest! </b></p>","null","","",5,"",NA,NA,NA,NA,NA,NA,NA,NA,NA,NA,NA,NA,NA,NA,NA,NA,NA,NA,NA,NA,NA,NA,NA,NA,NA,NA,NA,NA,NA,NA,NA,NA,NA,NA,NA,NA,NA,NA,NA,NA,"",NA,NA,NA,NA,NA,NA,NA,NA,NA,2025-11-21 01:29:09
"10499","https://psyc-201.github.io/xiang2023/exp/index1.html?PROLIFIC_PID=REDACTED&STUDY_ID=691f8ca61c6b4dcbb0aeb5f4&SESSION_ID=691fbcaa18d601e147aece95","survey-html-form",32,416816,"0.0-344.0","r8hlLmEH/DEkCS69fSy7QlWM++1z3ZEWU3uSCuDDQkiKIOJve5mBgz3Gi9KPNSpowTowGkPw/MPMuKb7plkSafwPZEDsQlh/wlYgvBYwvmrcYb+Ix4z/C75E7KhZca2z3SRbW5t/y5K/ALkxmrj+YNaf8a4IDfW9+YvmvzfwdwIFHGoPtQZf1ps1cweFbl2JQz8KaBOGZH2GZt/oYAtLwyTT4t4/dOaWnHqJB5frW2QmSI1W3QebaQ9Wi7FYMA1okk8rS8a64wGErLwza+19ObBxRARi0oiSvyoiirHW9XMa/f/gK6HVs8AslU9iknKYPO1hfh1HO6uel6/hzrZv4Q==","691f8ca61c6b4dcbb0aeb5f4","691fbcaa18d601e147aece95","index1","<span style='color:red'>Fail,<span style='color:red'>Fail,<span style='color:green'>Lift,<span style='color:green'>Lift,<span style='color:red'>Fail,<span style='color:red'>Fail,<span style='color:red'>Fail,<span style='color:red'>Fail,<span style='color:green'>Lift,<span style='color:red'>Fail,<span style='color:green'>Lift,<span style='color:red'>Fail","<span style='color:red'>Fail,<span style='color:red'>Fail,<span style='color:green'>Lift,<span style='color:green'>Lift,<span style='color:green'>Lift,<span style='color:green'>Lift,<span style='color:green'>Lift,<span style='color:red'>Fail,<span style='color:green'>Lift,<span style='color:green'>Lift,<span style='color:green'>Lift,<span style='color:red'>Fail","<span style='color:red'>Fail,<span style='color:green'>Lift,<span style='color:green'>Lift,<span style='color:red'>Fail,<span style='color:green'>Lift,<span style='color:green'>Lift","0,0,1,1,0,0,0,0,1,0,1,0","0,0,1,1,1,1,1,0,1,1,1,0","0,1,1,0,1,1",10,20,20,"","","","","{""box1"":""5"",""box2"":""5"",""box3"":""75""}","",5,"round1_outcome",1,5,1,5,5,75,NA,1,0,10,5,5,75,NA,1,0,10,NA,NA,NA,NA,NA,NA,NA,NA,NA,NA,NA,NA,NA,NA,NA,NA,NA,NA,NA,NA,NA,NA,NA,"",NA,NA,NA,NA,NA,NA,NA,NA,NA,2025-11-21 01:29:09
"5823","https://psyc-201.github.io/xiang2023/exp/index1.html?PROLIFIC_PID=REDACTED&STUDY_ID=691f8ca61c6b4dcbb0aeb5f4&SESSION_ID=691fbcaa18d601e147aece95","survey-html-form",33,422640,"0.0-345.0","r8hlLmEH/DEkCS69fSy7QlWM++1z3ZEWU3uSCuDDQkiKIOJve5mBgz3Gi9KPNSpowTowGkPw/MPMuKb7plkSafwPZEDsQlh/wlYgvBYwvmrcYb+Ix4z/C75E7KhZca2z3SRbW5t/y5K/ALkxmrj+YNaf8a4IDfW9+YvmvzfwdwIFHGoPtQZf1ps1cweFbl2JQz8KaBOGZH2GZt/oYAtLwyTT4t4/dOaWnHqJB5frW2QmSI1W3QebaQ9Wi7FYMA1okk8rS8a64wGErLwza+19ObBxRARi0oiSvyoiirHW9XMa/f/gK6HVs8AslU9iknKYPO1hfh1HO6uel6/hzrZv4Q==","691f8ca61c6b4dcbb0aeb5f4","691fbcaa18d601e147aece95","index1","<span style='color:red'>Fail,<span style='color:red'>Fail,<span style='color:green'>Lift,<span style='color:green'>Lift,<span style='color:red'>Fail,<span style='color:red'>Fail,<span style='color:red'>Fail,<span style='color:red'>Fail,<span style='color:green'>Lift,<span style='color:red'>Fail,<span style='color:green'>Lift,<span style='color:red'>Fail","<span style='color:red'>Fail,<span style='color:red'>Fail,<span style='color:green'>Lift,<span style='color:green'>Lift,<span style='color:green'>Lift,<span style='color:green'>Lift,<span style='color:green'>Lift,<span style='color:red'>Fail,<span style='color:green'>Lift,<span style='color:green'>Lift,<span style='color:green'>Lift,<span style='color:red'>Fail","<span style='color:red'>Fail,<span style='color:green'>Lift,<span style='color:green'>Lift,<span style='color:red'>Fail,<span style='color:green'>Lift,<span style='color:green'>Lift","0,0,1,1,0,0,0,0,1,0,1,0","0,0,1,1,1,1,1,0,1,1,1,0","0,1,1,0,1,1",10,20,20,"","","","","{""box1"":""50"",""box2"":""50""}","",5,"round2_ready",2,5,2,NA,NA,NA,NA,NA,NA,NA,NA,NA,NA,NA,NA,NA,NA,50,50,50,50,NA,NA,NA,NA,NA,NA,NA,NA,NA,NA,NA,NA,NA,NA,NA,NA,NA,NA,NA,"",NA,NA,NA,NA,NA,NA,NA,NA,NA,2025-11-21 01:29:09
"14871","https://psyc-201.github.io/xiang2023/exp/index1.html?PROLIFIC_PID=REDACTED&STUDY_ID=691f8ca61c6b4dcbb0aeb5f4&SESSION_ID=691fbcaa18d601e147aece95","survey-html-form",34,437513,"0.0-346.0","r8hlLmEH/DEkCS69fSy7QlWM++1z3ZEWU3uSCuDDQkiKIOJve5mBgz3Gi9KPNSpowTowGkPw/MPMuKb7plkSafwPZEDsQlh/wlYgvBYwvmrcYb+Ix4z/C75E7KhZca2z3SRbW5t/y5K/ALkxmrj+YNaf8a4IDfW9+YvmvzfwdwIFHGoPtQZf1ps1cweFbl2JQz8KaBOGZH2GZt/oYAtLwyTT4t4/dOaWnHqJB5frW2QmSI1W3QebaQ9Wi7FYMA1okk8rS8a64wGErLwza+19ObBxRARi0oiSvyoiirHW9XMa/f/gK6HVs8AslU9iknKYPO1hfh1HO6uel6/hzrZv4Q==","691f8ca61c6b4dcbb0aeb5f4","691fbcaa18d601e147aece95","index1","<span style='color:red'>Fail,<span style='color:red'>Fail,<span style='color:green'>Lift,<span style='color:green'>Lift,<span style='color:red'>Fail,<span style='color:red'>Fail,<span style='color:red'>Fail,<span style='color:red'>Fail,<span style='color:green'>Lift,<span style='color:red'>Fail,<span style='color:green'>Lift,<span style='color:red'>Fail","<span style='color:red'>Fail,<span style='color:red'>Fail,<span style='color:green'>Lift,<span style='color:green'>Lift,<span style='color:green'>Lift,<span style='color:green'>Lift,<span style='color:green'>Lift,<span style='color:red'>Fail,<span style='color:green'>Lift,<span style='color:green'>Lift,<span style='color:green'>Lift,<span style='color:red'>Fail","<span style='color:red'>Fail,<span style='color:green'>Lift,<span style='color:green'>Lift,<span style='color:red'>Fail,<span style='color:green'>Lift,<span style='color:green'>Lift","0,0,1,1,0,0,0,0,1,0,1,0","0,0,1,1,1,1,1,0,1,1,1,0","0,1,1,0,1,1",10,20,20,"","","","","{""box1"":""5"",""box2"":""3"",""box3"":""100""}","",5,"round2_outcome",3,5,2,5,3,100,NA,1,0,20,NA,NA,NA,NA,NA,NA,NA,NA,NA,NA,NA,5,3,100,NA,1,0,20,NA,NA,NA,NA,NA,NA,NA,NA,NA,NA,NA,NA,"",NA,NA,NA,NA,NA,NA,NA,NA,NA,2025-11-21 01:29:09
"3855","https://psyc-201.github.io/xiang2023/exp/index1.html?PROLIFIC_PID=REDACTED&STUDY_ID=691f8ca61c6b4dcbb0aeb5f4&SESSION_ID=691fbcaa18d601e147aece95","survey-html-form",35,441369,"0.0-347.0","r8hlLmEH/DEkCS69fSy7QlWM++1z3ZEWU3uSCuDDQkiKIOJve5mBgz3Gi9KPNSpowTowGkPw/MPMuKb7plkSafwPZEDsQlh/wlYgvBYwvmrcYb+Ix4z/C75E7KhZca2z3SRbW5t/y5K/ALkxmrj+YNaf8a4IDfW9+YvmvzfwdwIFHGoPtQZf1ps1cweFbl2JQz8KaBOGZH2GZt/oYAtLwyTT4t4/dOaWnHqJB5frW2QmSI1W3QebaQ9Wi7FYMA1okk8rS8a64wGErLwza+19ObBxRARi0oiSvyoiirHW9XMa/f/gK6HVs8AslU9iknKYPO1hfh1HO6uel6/hzrZv4Q==","691f8ca61c6b4dcbb0aeb5f4","691fbcaa18d601e147aece95","index1","<span style='color:red'>Fail,<span style='color:red'>Fail,<span style='color:green'>Lift,<span style='color:green'>Lift,<span style='color:red'>Fail,<span style='color:red'>Fail,<span style='color:red'>Fail,<span style='color:red'>Fail,<span style='color:green'>Lift,<span style='color:red'>Fail,<span style='color:green'>Lift,<span style='color:red'>Fail","<span style='color:red'>Fail,<span style='color:red'>Fail,<span style='color:green'>Lift,<span style='color:green'>Lift,<span style='color:green'>Lift,<span style='color:green'>Lift,<span style='color:green'>Lift,<span style='color:red'>Fail,<span style='color:green'>Lift,<span style='color:green'>Lift,<span style='color:green'>Lift,<span style='color:red'>Fail","<span style='color:red'>Fail,<span style='color:green'>Lift,<span style='color:green'>Lift,<span style='color:red'>Fail,<span style='color:green'>Lift,<span style='color:green'>Lift","0,0,1,1,0,0,0,0,1,0,1,0","0,0,1,1,1,1,1,0,1,1,1,0","0,1,1,0,1,1",10,20,20,"","","","","{""box1"":""60""}","",5,"round3_ready",4,5,3,NA,NA,NA,NA,NA,NA,NA,NA,NA,NA,NA,NA,NA,NA,60,60,NA,NA,NA,NA,NA,NA,NA,NA,NA,60,60,NA,NA,NA,NA,NA,NA,NA,NA,NA,NA,"",NA,NA,NA,NA,NA,NA,NA,NA,NA,2025-11-21 01:29:09
"13567","https://psyc-201.github.io/xiang2023/exp/index1.html?PROLIFIC_PID=REDACTED&STUDY_ID=691f8ca61c6b4dcbb0aeb5f4&SESSION_ID=691fbcaa18d601e147aece95","survey-html-form",36,454937,"0.0-348.0-0.0","r8hlLmEH/DEkCS69fSy7QlWM++1z3ZEWU3uSCuDDQkiKIOJve5mBgz3Gi9KPNSpowTowGkPw/MPMuKb7plkSafwPZEDsQlh/wlYgvBYwvmrcYb+Ix4z/C75E7KhZca2z3SRbW5t/y5K/ALkxmrj+YNaf8a4IDfW9+YvmvzfwdwIFHGoPtQZf1ps1cweFbl2JQz8KaBOGZH2GZt/oYAtLwyTT4t4/dOaWnHqJB5frW2QmSI1W3QebaQ9Wi7FYMA1okk8rS8a64wGErLwza+19ObBxRARi0oiSvyoiirHW9XMa/f/gK6HVs8AslU9iknKYPO1hfh1HO6uel6/hzrZv4Q==","691f8ca61c6b4dcbb0aeb5f4","691fbcaa18d601e147aece95","index1","<span style='color:red'>Fail,<span style='color:red'>Fail,<span style='color:green'>Lift,<span style='color:green'>Lift,<span style='color:red'>Fail,<span style='color:red'>Fail,<span style='color:red'>Fail,<span style='color:red'>Fail,<span style='color:green'>Lift,<span style='color:red'>Fail,<span style='color:green'>Lift,<span style='color:red'>Fail","<span style='color:red'>Fail,<span style='color:red'>Fail,<span style='color:green'>Lift,<span style='color:green'>Lift,<span style='color:green'>Lift,<span style='color:green'>Lift,<span style='color:green'>Lift,<span style='color:red'>Fail,<span style='color:green'>Lift,<span style='color:green'>Lift,<span style='color:green'>Lift,<span style='color:red'>Fail","<span style='color:red'>Fail,<span style='color:green'>Lift,<span style='color:green'>Lift,<span style='color:red'>Fail,<span style='color:green'>Lift,<span style='color:green'>Lift","0,0,1,1,0,0,0,0,1,0,1,0","0,0,1,1,1,1,1,0,1,1,1,0","0,1,1,0,1,1",10,20,20,"","","","","{""box1"":""9"",""box2"":""3"",""box3"":""60"",""box4"":""100""}","",6,"round3_lift",5,5,3,9,3,60,100,1,1,20,NA,NA,NA,NA,NA,NA,NA,NA,NA,NA,NA,NA,NA,NA,NA,NA,NA,NA,NA,NA,9,3,60,100,1,1,20,NA,NA,NA,"",NA,NA,NA,NA,NA,NA,NA,NA,NA,2025-11-21 01:29:09
"null","https://psyc-201.github.io/xiang2023/exp/index1.html?PROLIFIC_PID=REDACTED&STUDY_ID=691f8ca61c6b4dcbb0aeb5f4&SESSION_ID=691fbcaa18d601e147aece95","html-keyboard-response",37,457949,"0.0-352.0","r8hlLmEH/DEkCS69fSy7QlWM++1z3ZEWU3uSCuDDQkiKIOJve5mBgz3Gi9KPNSpowTowGkPw/MPMuKb7plkSafwPZEDsQlh/wlYgvBYwvmrcYb+Ix4z/C75E7KhZca2z3SRbW5t/y5K/ALkxmrj+YNaf8a4IDfW9+YvmvzfwdwIFHGoPtQZf1ps1cweFbl2JQz8KaBOGZH2GZt/oYAtLwyTT4t4/dOaWnHqJB5frW2QmSI1W3QebaQ9Wi7FYMA1okk8rS8a64wGErLwza+19ObBxRARi0oiSvyoiirHW9XMa/f/gK6HVs8AslU9iknKYPO1hfh1HO6uel6/hzrZv4Q==","691f8ca61c6b4dcbb0aeb5f4","691fbcaa18d601e147aece95","index1","<span style='color:red'>Fail,<span style='color:red'>Fail,<span style='color:green'>Lift,<span style='color:green'>Lift,<span style='color:red'>Fail,<span style='color:red'>Fail,<span style='color:red'>Fail,<span style='color:red'>Fail,<span style='color:green'>Lift,<span style='color:red'>Fail,<span style='color:green'>Lift,<span style='color:red'>Fail","<span style='color:red'>Fail,<span style='color:red'>Fail,<span style='color:green'>Lift,<span style='color:green'>Lift,<span style='color:green'>Lift,<span style='color:green'>Lift,<span style='color:green'>Lift,<span style='color:red'>Fail,<span style='color:green'>Lift,<span style='color:green'>Lift,<span style='color:green'>Lift,<span style='color:red'>Fail","<span style='color:red'>Fail,<span style='color:green'>Lift,<span style='color:green'>Lift,<span style='color:red'>Fail,<span style='color:green'>Lift,<span style='color:green'>Lift","0,0,1,1,0,0,0,0,1,0,1,0","0,0,1,1,1,1,1,0,1,1,1,0","0,1,1,0,1,1",10,20,20,"","","<p style='font-size:30px'><b> New Contest! </b></p>","null","","",6,"",NA,NA,NA,NA,NA,NA,NA,NA,NA,NA,NA,NA,NA,NA,NA,NA,NA,NA,NA,NA,NA,NA,NA,NA,NA,NA,NA,NA,NA,NA,NA,NA,NA,NA,NA,NA,NA,NA,NA,NA,"",NA,NA,NA,NA,NA,NA,NA,NA,NA,2025-11-21 01:29:09
"5058","https://psyc-201.github.io/xiang2023/exp/index1.html?PROLIFIC_PID=REDACTED&STUDY_ID=691f8ca61c6b4dcbb0aeb5f4&SESSION_ID=691fbcaa18d601e147aece95","survey-html-form",38,463009,"0.0-353.0","r8hlLmEH/DEkCS69fSy7QlWM++1z3ZEWU3uSCuDDQkiKIOJve5mBgz3Gi9KPNSpowTowGkPw/MPMuKb7plkSafwPZEDsQlh/wlYgvBYwvmrcYb+Ix4z/C75E7KhZca2z3SRbW5t/y5K/ALkxmrj+YNaf8a4IDfW9+YvmvzfwdwIFHGoPtQZf1ps1cweFbl2JQz8KaBOGZH2GZt/oYAtLwyTT4t4/dOaWnHqJB5frW2QmSI1W3QebaQ9Wi7FYMA1okk8rS8a64wGErLwza+19ObBxRARi0oiSvyoiirHW9XMa/f/gK6HVs8AslU9iknKYPO1hfh1HO6uel6/hzrZv4Q==","691f8ca61c6b4dcbb0aeb5f4","691fbcaa18d601e147aece95","index1","<span style='color:red'>Fail,<span style='color:red'>Fail,<span style='color:green'>Lift,<span style='color:green'>Lift,<span style='color:red'>Fail,<span style='color:red'>Fail,<span style='color:red'>Fail,<span style='color:red'>Fail,<span style='color:green'>Lift,<span style='color:red'>Fail,<span style='color:green'>Lift,<span style='color:red'>Fail","<span style='color:red'>Fail,<span style='color:red'>Fail,<span style='color:green'>Lift,<span style='color:green'>Lift,<span style='color:green'>Lift,<span style='color:green'>Lift,<span style='color:green'>Lift,<span style='color:red'>Fail,<span style='color:green'>Lift,<span style='color:green'>Lift,<span style='color:green'>Lift,<span style='color:red'>Fail","<span style='color:red'>Fail,<span style='color:green'>Lift,<span style='color:green'>Lift,<span style='color:red'>Fail,<span style='color:green'>Lift,<span style='color:green'>Lift","0,0,1,1,0,0,0,0,1,0,1,0","0,0,1,1,1,1,1,0,1,1,1,0","0,1,1,0,1,1",10,20,20,"","","","","{""box1"":""3"",""box2"":""3""}","",6,"round1_outcome",1,6,1,3,3,NA,NA,0,0,10,3,3,NA,NA,0,0,10,NA,NA,NA,NA,NA,NA,NA,NA,NA,NA,NA,NA,NA,NA,NA,NA,NA,NA,NA,NA,NA,NA,NA,"",NA,NA,NA,NA,NA,NA,NA,NA,NA,2025-11-21 01:29:09
"6342","https://psyc-201.github.io/xiang2023/exp/index1.html?PROLIFIC_PID=REDACTED&STUDY_ID=691f8ca61c6b4dcbb0aeb5f4&SESSION_ID=691fbcaa18d601e147aece95","survey-html-form",39,469352,"0.0-354.0","r8hlLmEH/DEkCS69fSy7QlWM++1z3ZEWU3uSCuDDQkiKIOJve5mBgz3Gi9KPNSpowTowGkPw/MPMuKb7plkSafwPZEDsQlh/wlYgvBYwvmrcYb+Ix4z/C75E7KhZca2z3SRbW5t/y5K/ALkxmrj+YNaf8a4IDfW9+YvmvzfwdwIFHGoPtQZf1ps1cweFbl2JQz8KaBOGZH2GZt/oYAtLwyTT4t4/dOaWnHqJB5frW2QmSI1W3QebaQ9Wi7FYMA1okk8rS8a64wGErLwza+19ObBxRARi0oiSvyoiirHW9XMa/f/gK6HVs8AslU9iknKYPO1hfh1HO6uel6/hzrZv4Q==","691f8ca61c6b4dcbb0aeb5f4","691fbcaa18d601e147aece95","index1","<span style='color:red'>Fail,<span style='color:red'>Fail,<span style='color:green'>Lift,<span style='color:green'>Lift,<span style='color:red'>Fail,<span style='color:red'>Fail,<span style='color:red'>Fail,<span style='color:red'>Fail,<span style='color:green'>Lift,<span style='color:red'>Fail,<span style='color:green'>Lift,<span style='color:red'>Fail","<span style='color:red'>Fail,<span style='color:red'>Fail,<span style='color:green'>Lift,<span style='color:green'>Lift,<span style='color:green'>Lift,<span style='color:green'>Lift,<span style='color:green'>Lift,<span style='color:red'>Fail,<span style='color:green'>Lift,<span style='color:green'>Lift,<span style='color:green'>Lift,<span style='color:red'>Fail","<span style='color:red'>Fail,<span style='color:green'>Lift,<span style='color:green'>Lift,<span style='color:red'>Fail,<span style='color:green'>Lift,<span style='color:green'>Lift","0,0,1,1,0,0,0,0,1,0,1,0","0,0,1,1,1,1,1,0,1,1,1,0","0,1,1,0,1,1",10,20,20,"","","","","{""box1"":""40"",""box2"":""40""}","",6,"round2_ready",2,6,2,NA,NA,NA,NA,NA,NA,NA,NA,NA,NA,NA,NA,NA,NA,40,40,40,40,NA,NA,NA,NA,NA,NA,NA,NA,NA,NA,NA,NA,NA,NA,NA,NA,NA,NA,NA,"",NA,NA,NA,NA,NA,NA,NA,NA,NA,2025-11-21 01:29:09
"18159","https://psyc-201.github.io/xiang2023/exp/index1.html?PROLIFIC_PID=REDACTED&STUDY_ID=691f8ca61c6b4dcbb0aeb5f4&SESSION_ID=691fbcaa18d601e147aece95","survey-html-form",40,487513,"0.0-355.0","r8hlLmEH/DEkCS69fSy7QlWM++1z3ZEWU3uSCuDDQkiKIOJve5mBgz3Gi9KPNSpowTowGkPw/MPMuKb7plkSafwPZEDsQlh/wlYgvBYwvmrcYb+Ix4z/C75E7KhZca2z3SRbW5t/y5K/ALkxmrj+YNaf8a4IDfW9+YvmvzfwdwIFHGoPtQZf1ps1cweFbl2JQz8KaBOGZH2GZt/oYAtLwyTT4t4/dOaWnHqJB5frW2QmSI1W3QebaQ9Wi7FYMA1okk8rS8a64wGErLwza+19ObBxRARi0oiSvyoiirHW9XMa/f/gK6HVs8AslU9iknKYPO1hfh1HO6uel6/hzrZv4Q==","691f8ca61c6b4dcbb0aeb5f4","691fbcaa18d601e147aece95","index1","<span style='color:red'>Fail,<span style='color:red'>Fail,<span style='color:green'>Lift,<span style='color:green'>Lift,<span style='color:red'>Fail,<span style='color:red'>Fail,<span style='color:red'>Fail,<span style='color:red'>Fail,<span style='color:green'>Lift,<span style='color:red'>Fail,<span style='color:green'>Lift,<span style='color:red'>Fail","<span style='color:red'>Fail,<span style='color:red'>Fail,<span style='color:green'>Lift,<span style='color:green'>Lift,<span style='color:green'>Lift,<span style='color:green'>Lift,<span style='color:green'>Lift,<span style='color:red'>Fail,<span style='color:green'>Lift,<span style='color:green'>Lift,<span style='color:green'>Lift,<span style='color:red'>Fail","<span style='color:red'>Fail,<span style='color:green'>Lift,<span style='color:green'>Lift,<span style='color:red'>Fail,<span style='color:green'>Lift,<span style='color:green'>Lift","0,0,1,1,0,0,0,0,1,0,1,0","0,0,1,1,1,1,1,0,1,1,1,0","0,1,1,0,1,1",10,20,20,"","","","","{""box1"":""6"",""box2"":""3"",""box3"":""80""}","",6,"round2_outcome",3,6,2,6,3,80,NA,1,0,20,NA,NA,NA,NA,NA,NA,NA,NA,NA,NA,NA,6,3,80,NA,1,0,20,NA,NA,NA,NA,NA,NA,NA,NA,NA,NA,NA,NA,"",NA,NA,NA,NA,NA,NA,NA,NA,NA,2025-11-21 01:29:09
"2095","https://psyc-201.github.io/xiang2023/exp/index1.html?PROLIFIC_PID=REDACTED&STUDY_ID=691f8ca61c6b4dcbb0aeb5f4&SESSION_ID=691fbcaa18d601e147aece95","survey-html-form",41,489610,"0.0-356.0","r8hlLmEH/DEkCS69fSy7QlWM++1z3ZEWU3uSCuDDQkiKIOJve5mBgz3Gi9KPNSpowTowGkPw/MPMuKb7plkSafwPZEDsQlh/wlYgvBYwvmrcYb+Ix4z/C75E7KhZca2z3SRbW5t/y5K/ALkxmrj+YNaf8a4IDfW9+YvmvzfwdwIFHGoPtQZf1ps1cweFbl2JQz8KaBOGZH2GZt/oYAtLwyTT4t4/dOaWnHqJB5frW2QmSI1W3QebaQ9Wi7FYMA1okk8rS8a64wGErLwza+19ObBxRARi0oiSvyoiirHW9XMa/f/gK6HVs8AslU9iknKYPO1hfh1HO6uel6/hzrZv4Q==","691f8ca61c6b4dcbb0aeb5f4","691fbcaa18d601e147aece95","index1","<span style='color:red'>Fail,<span style='color:red'>Fail,<span style='color:green'>Lift,<span style='color:green'>Lift,<span style='color:red'>Fail,<span style='color:red'>Fail,<span style='color:red'>Fail,<span style='color:red'>Fail,<span style='color:green'>Lift,<span style='color:red'>Fail,<span style='color:green'>Lift,<span style='color:red'>Fail","<span style='color:red'>Fail,<span style='color:red'>Fail,<span style='color:green'>Lift,<span style='color:green'>Lift,<span style='color:green'>Lift,<span style='color:green'>Lift,<span style='color:green'>Lift,<span style='color:red'>Fail,<span style='color:green'>Lift,<span style='color:green'>Lift,<span style='color:green'>Lift,<span style='color:red'>Fail","<span style='color:red'>Fail,<span style='color:green'>Lift,<span style='color:green'>Lift,<span style='color:red'>Fail,<span style='color:green'>Lift,<span style='color:green'>Lift","0,0,1,1,0,0,0,0,1,0,1,0","0,0,1,1,1,1,1,0,1,1,1,0","0,1,1,0,1,1",10,20,20,"","","","","{""box1"":""60""}","",6,"round3_ready",4,6,3,NA,NA,NA,NA,NA,NA,NA,NA,NA,NA,NA,NA,NA,NA,60,60,NA,NA,NA,NA,NA,NA,NA,NA,NA,60,60,NA,NA,NA,NA,NA,NA,NA,NA,NA,NA,"",NA,NA,NA,NA,NA,NA,NA,NA,NA,2025-11-21 01:29:09
"19782","https://psyc-201.github.io/xiang2023/exp/index1.html?PROLIFIC_PID=REDACTED&STUDY_ID=691f8ca61c6b4dcbb0aeb5f4&SESSION_ID=691fbcaa18d601e147aece95","survey-html-form",42,509392,"0.0-358.0-0.0","r8hlLmEH/DEkCS69fSy7QlWM++1z3ZEWU3uSCuDDQkiKIOJve5mBgz3Gi9KPNSpowTowGkPw/MPMuKb7plkSafwPZEDsQlh/wlYgvBYwvmrcYb+Ix4z/C75E7KhZca2z3SRbW5t/y5K/ALkxmrj+YNaf8a4IDfW9+YvmvzfwdwIFHGoPtQZf1ps1cweFbl2JQz8KaBOGZH2GZt/oYAtLwyTT4t4/dOaWnHqJB5frW2QmSI1W3QebaQ9Wi7FYMA1okk8rS8a64wGErLwza+19ObBxRARi0oiSvyoiirHW9XMa/f/gK6HVs8AslU9iknKYPO1hfh1HO6uel6/hzrZv4Q==","691f8ca61c6b4dcbb0aeb5f4","691fbcaa18d601e147aece95","index1","<span style='color:red'>Fail,<span style='color:red'>Fail,<span style='color:green'>Lift,<span style='color:green'>Lift,<span style='color:red'>Fail,<span style='color:red'>Fail,<span style='color:red'>Fail,<span style='color:red'>Fail,<span style='color:green'>Lift,<span style='color:red'>Fail,<span style='color:green'>Lift,<span style='color:red'>Fail","<span style='color:red'>Fail,<span style='color:red'>Fail,<span style='color:green'>Lift,<span style='color:green'>Lift,<span style='color:green'>Lift,<span style='color:green'>Lift,<span style='color:green'>Lift,<span style='color:red'>Fail,<span style='color:green'>Lift,<span style='color:green'>Lift,<span style='color:green'>Lift,<span style='color:red'>Fail","<span style='color:red'>Fail,<span style='color:green'>Lift,<span style='color:green'>Lift,<span style='color:red'>Fail,<span style='color:green'>Lift,<span style='color:green'>Lift","0,0,1,1,0,0,0,0,1,0,1,0","0,0,1,1,1,1,1,0,1,1,1,0","0,1,1,0,1,1",10,20,20,"","","","","{""box1"":""7"",""box2"":""1"",""box3"":""70"",""box4"":""50""}","",6,"round3_fail",5,6,3,7,1,NA,NA,0,0,20,NA,NA,NA,NA,NA,NA,NA,NA,NA,NA,NA,NA,NA,NA,NA,NA,NA,NA,NA,NA,7,1,NA,NA,0,0,20,0,1,NA,"",NA,NA,NA,NA,NA,NA,NA,NA,NA,2025-11-21 01:29:09
"null","https://psyc-201.github.io/xiang2023/exp/index1.html?PROLIFIC_PID=REDACTED&STUDY_ID=691f8ca61c6b4dcbb0aeb5f4&SESSION_ID=691fbcaa18d601e147aece95","html-keyboard-response",43,514403,"0.0-359.0-0.0","r8hlLmEH/DEkCS69fSy7QlWM++1z3ZEWU3uSCuDDQkiKIOJve5mBgz3Gi9KPNSpowTowGkPw/MPMuKb7plkSafwPZEDsQlh/wlYgvBYwvmrcYb+Ix4z/C75E7KhZca2z3SRbW5t/y5K/ALkxmrj+YNaf8a4IDfW9+YvmvzfwdwIFHGoPtQZf1ps1cweFbl2JQz8KaBOGZH2GZt/oYAtLwyTT4t4/dOaWnHqJB5frW2QmSI1W3QebaQ9Wi7FYMA1okk8rS8a64wGErLwza+19ObBxRARi0oiSvyoiirHW9XMa/f/gK6HVs8AslU9iknKYPO1hfh1HO6uel6/hzrZv4Q==","691f8ca61c6b4dcbb0aeb5f4","691fbcaa18d601e147aece95","index1","<span style='color:red'>Fail,<span style='color:red'>Fail,<span style='color:green'>Lift,<span style='color:green'>Lift,<span style='color:red'>Fail,<span style='color:red'>Fail,<span style='color:red'>Fail,<span style='color:red'>Fail,<span style='color:green'>Lift,<span style='color:red'>Fail,<span style='color:green'>Lift,<span style='color:red'>Fail","<span style='color:red'>Fail,<span style='color:red'>Fail,<span style='color:green'>Lift,<span style='color:green'>Lift,<span style='color:green'>Lift,<span style='color:green'>Lift,<span style='color:green'>Lift,<span style='color:red'>Fail,<span style='color:green'>Lift,<span style='color:green'>Lift,<span style='color:green'>Lift,<span style='color:red'>Fail","<span style='color:red'>Fail,<span style='color:green'>Lift,<span style='color:green'>Lift,<span style='color:red'>Fail,<span style='color:green'>Lift,<span style='color:green'>Lift","0,0,1,1,0,0,0,0,1,0,1,0","0,0,1,1,1,1,1,0,1,1,1,0","0,1,1,0,1,1",10,20,20,"","","<p> <b>Oops you failed an attention check!</b> </p><p> <b>We will have to discard your data if you fail another one.</b> </p><p> <b>Please pay more attention!</b> </p>","null","","",6,"warning",NA,NA,NA,NA,NA,NA,NA,NA,NA,NA,NA,NA,NA,NA,NA,NA,NA,NA,NA,NA,NA,NA,NA,NA,NA,NA,NA,NA,NA,NA,NA,NA,NA,NA,NA,NA,NA,NA,NA,1,"",NA,NA,NA,NA,NA,NA,NA,NA,NA,2025-11-21 01:29:09
"37670","https://psyc-201.github.io/xiang2023/exp/index1.html?PROLIFIC_PID=REDACTED&STUDY_ID=691f8ca61c6b4dcbb0aeb5f4&SESSION_ID=691fbcaa18d601e147aece95","survey-text",44,552081,"0.0-361.0","r8hlLmEH/DEkCS69fSy7QlWM++1z3ZEWU3uSCuDDQkiKIOJve5mBgz3Gi9KPNSpowTowGkPw/MPMuKb7plkSafwPZEDsQlh/wlYgvBYwvmrcYb+Ix4z/C75E7KhZca2z3SRbW5t/y5K/ALkxmrj+YNaf8a4IDfW9+YvmvzfwdwIFHGoPtQZf1ps1cweFbl2JQz8KaBOGZH2GZt/oYAtLwyTT4t4/dOaWnHqJB5frW2QmSI1W3QebaQ9Wi7FYMA1okk8rS8a64wGErLwza+19ObBxRARi0oiSvyoiirHW9XMa/f/gK6HVs8AslU9iknKYPO1hfh1HO6uel6/hzrZv4Q==","691f8ca61c6b4dcbb0aeb5f4","691fbcaa18d601e147aece95","index1","<span style='color:red'>Fail,<span style='color:red'>Fail,<span style='color:green'>Lift,<span style='color:green'>Lift,<span style='color:red'>Fail,<span style='color:red'>Fail,<span style='color:red'>Fail,<span style='color:red'>Fail,<span style='color:green'>Lift,<span style='color:red'>Fail,<span style='color:green'>Lift,<span style='color:red'>Fail","<span style='color:red'>Fail,<span style='color:red'>Fail,<span style='color:green'>Lift,<span style='color:green'>Lift,<span style='color:green'>Lift,<span style='color:green'>Lift,<span style='color:green'>Lift,<span style='color:red'>Fail,<span style='color:green'>Lift,<span style='color:green'>Lift,<span style='color:green'>Lift,<span style='color:red'>Fail","<span style='color:red'>Fail,<span style='color:green'>Lift,<span style='color:green'>Lift,<span style='color:red'>Fail,<span style='color:green'>Lift,<span style='color:green'>Lift","0,0,1,1,0,0,0,0,1,0,1,0","0,0,1,1,1,1,1,0,1,1,1,0","0,1,1,0,1,1",10,20,20,"","","","","{""Q0"":""Estimating the strength and determination of contestants' abilities to lift boxes based on patterns presented.""}","",NA,"",NA,NA,NA,NA,NA,NA,NA,NA,NA,NA,NA,NA,NA,NA,NA,NA,NA,NA,NA,NA,NA,NA,NA,NA,NA,NA,NA,NA,NA,NA,NA,NA,NA,NA,NA,NA,NA,NA,NA,NA,"",NA,NA,NA,NA,NA,NA,NA,NA,NA,2025-11-21 01:29:09
"8245","https://psyc-201.github.io/xiang2023/exp/index1.html?PROLIFIC_PID=REDACTED&STUDY_ID=691f8ca61c6b4dcbb0aeb5f4&SESSION_ID=691fbcaa18d601e147aece95","survey-text",45,560329,"0.0-362.0","r8hlLmEH/DEkCS69fSy7QlWM++1z3ZEWU3uSCuDDQkiKIOJve5mBgz3Gi9KPNSpowTowGkPw/MPMuKb7plkSafwPZEDsQlh/wlYgvBYwvmrcYb+Ix4z/C75E7KhZca2z3SRbW5t/y5K/ALkxmrj+YNaf8a4IDfW9+YvmvzfwdwIFHGoPtQZf1ps1cweFbl2JQz8KaBOGZH2GZt/oYAtLwyTT4t4/dOaWnHqJB5frW2QmSI1W3QebaQ9Wi7FYMA1okk8rS8a64wGErLwza+19ObBxRARi0oiSvyoiirHW9XMa/f/gK6HVs8AslU9iknKYPO1hfh1HO6uel6/hzrZv4Q==","691f8ca61c6b4dcbb0aeb5f4","691fbcaa18d601e147aece95","index1","<span style='color:red'>Fail,<span style='color:red'>Fail,<span style='color:green'>Lift,<span style='color:green'>Lift,<span style='color:red'>Fail,<span style='color:red'>Fail,<span style='color:red'>Fail,<span style='color:red'>Fail,<span style='color:green'>Lift,<span style='color:red'>Fail,<span style='color:green'>Lift,<span style='color:red'>Fail","<span style='color:red'>Fail,<span style='color:red'>Fail,<span style='color:green'>Lift,<span style='color:green'>Lift,<span style='color:green'>Lift,<span style='color:green'>Lift,<span style='color:green'>Lift,<span style='color:red'>Fail,<span style='color:green'>Lift,<span style='color:green'>Lift,<span style='color:green'>Lift,<span style='color:red'>Fail","<span style='color:red'>Fail,<span style='color:green'>Lift,<span style='color:green'>Lift,<span style='color:red'>Fail,<span style='color:green'>Lift,<span style='color:green'>Lift","0,0,1,1,0,0,0,0,1,0,1,0","0,0,1,1,1,1,1,0,1,1,1,0","0,1,1,0,1,1",10,20,20,"","","","","{""Q0"":""""}","",NA,"",NA,NA,NA,NA,NA,NA,NA,NA,NA,NA,NA,NA,NA,NA,NA,NA,NA,NA,NA,NA,NA,NA,NA,NA,NA,NA,NA,NA,NA,NA,NA,NA,NA,NA,NA,NA,NA,NA,NA,NA,"[{""event"":""blur"",""trial"":0,""time"":183},{""event"":""focus"",""trial"":0,""time"":3589},{""event"":""blur"",""trial"":0,""time"":3594},{""event"":""focus"",""trial"":0,""time"":5514},{""event"":""blur"",""trial"":0,""time"":6324},{""event"":""focus"",""trial"":0,""time"":9022},{""event"":""fullscreenenter"",""trial"":1,""time"":12952}]",2,3,NA,100,1,1,NA,NA,NA,2025-11-21 01:29:09
"5164","https://psyc-201.github.io/xiang2023/exp/index1.html?PROLIFIC_PID=REDACTED&STUDY_ID=691f8ca61c6b4dcbb0aeb5f4&SESSION_ID=691fbcaa18d601e147aece95","html-button-response",46,565493,"0.0-363.0","r8hlLmEH/DEkCS69fSy7QlWM++1z3ZEWU3uSCuDDQkiKIOJve5mBgz3Gi9KPNSpowTowGkPw/MPMuKb7plkSafwPZEDsQlh/wlYgvBYwvmrcYb+Ix4z/C75E7KhZca2z3SRbW5t/y5K/ALkxmrj+YNaf8a4IDfW9+YvmvzfwdwIFHGoPtQZf1ps1cweFbl2JQz8KaBOGZH2GZt/oYAtLwyTT4t4/dOaWnHqJB5frW2QmSI1W3QebaQ9Wi7FYMA1okk8rS8a64wGErLwza+19ObBxRARi0oiSvyoiirHW9XMa/f/gK6HVs8AslU9iknKYPO1hfh1HO6uel6/hzrZv4Q==","691f8ca61c6b4dcbb0aeb5f4","691fbcaa18d601e147aece95","index1","<span style='color:red'>Fail,<span style='color:red'>Fail,<span style='color:green'>Lift,<span style='color:green'>Lift,<span style='color:red'>Fail,<span style='color:red'>Fail,<span style='color:red'>Fail,<span style='color:red'>Fail,<span style='color:green'>Lift,<span style='color:red'>Fail,<span style='color:green'>Lift,<span style='color:red'>Fail","<span style='color:red'>Fail,<span style='color:red'>Fail,<span style='color:green'>Lift,<span style='color:green'>Lift,<span style='color:green'>Lift,<span style='color:green'>Lift,<span style='color:green'>Lift,<span style='color:red'>Fail,<span style='color:green'>Lift,<span style='color:green'>Lift,<span style='color:green'>Lift,<span style='color:red'>Fail","<span style='color:red'>Fail,<span style='color:green'>Lift,<span style='color:green'>Lift,<span style='color:red'>Fail,<span style='color:green'>Lift,<span style='color:green'>Lift","0,0,1,1,0,0,0,0,1,0,1,0","0,0,1,1,1,1,1,0,1,1,1,0","0,1,1,0,1,1",10,20,20,"","","<p> We randomly picked <b>Contest 2, Round 3</b> to calculate your bonus. </p><p> The outcome of Contestant C and D on that round is <span style='color:green'>Lift</span>. </p><p> The probability you entered was 100. </p><p><b> You won a bonus of $1.00!</b></p><p> IMPORTANT: Please click 'Next' to complete the game. </p>","","","",NA,"",NA,NA,NA,NA,NA,NA,NA,NA,NA,NA,NA,NA,NA,NA,NA,NA,NA,NA,NA,NA,NA,NA,NA,NA,NA,NA,NA,NA,NA,NA,NA,NA,NA,NA,NA,NA,NA,NA,NA,NA,"",NA,NA,NA,NA,NA,NA,0,1,0,2025-11-21 01:29:09
