"rt","url","trial_type","trial_index","time_elapsed","internal_node_id","encryptedProlificId","studyId","sessionId","expIndex","round1_outcomes","round2_outcomes","round3_outcomes","round1_o","round2_o","round3_o","round1_reward","round2_reward","round3_reward","success","view_history","stimulus","key_press","responses","question_order","j","Stage","stage","contest","round","strength_a","strength_b","effort_a","effort_b","outcome_a","outcome_b","reward","r1_strength_a","r1_strength_b","r1_effort_a","r1_effort_b","r1_outcome_a","r1_outcome_b","r1_reward","probability_a","probability_b","r2_prob_a","r2_prob_b","r2_strength_a","r2_strength_b","r2_effort_a","r2_effort_b","r2_outcome_a","r2_outcome_b","r2_reward","r3_prob_a","r3_prob_b","r3_strength_a","r3_strength_b","r3_effort_a","r3_effort_b","r3_outcome_a","r3_outcome_b","r3_reward","attention_check","count","screen","pick_contest","pick_round","pick_side","trial_probability","trial_outcome","bonus","button_pressed","attention_sum","attention","datapipe_meta.attributes.date_modified"
"2446.399999976158","https://psyc-201.github.io/xiang2023/exp/index1.html?PROLIFIC_PID=REDACTED&STUDY_ID=691f8ca61c6b4dcbb0aeb5f4&SESSION_ID=691fc954de7270f3e6b596b1","external-html",0,2510,"0.0-0.0","Oo4IY41Rt/qn3Fdbwwith7U1KM8K4TT+uh+Uc4JHxLM98ULSJMeWic5sSJBg8MwnwywM2iPBFQBHUOeMcjzSNqx/67bN2ZGbuLRRQktY13o28idpAXRD9vGuH6GAnjgTysIZ9SzQzBv/xcckRPDp0Z3uxTA7IaIqthyMvO508Vvk+8ljma6+ZRZ1Z3pGT9Tgo5HhqvoxP2IJDM3xBYUuiVGGUdRv7xFKYdI1Up1eMvm7YHSnybwFrIK3LCJhNxZugdYJY6Y9iufhkZ/h2Pc2UW+yyumCq443eCBrwLgr8yvmUEWm+57F7grF+VuvUweTj82KVhorkKvIul4Mwe62rg==","691f8ca61c6b4dcbb0aeb5f4","691fc954de7270f3e6b596b1","index1","<span style='color:red'>Fail,<span style='color:red'>Fail,<span style='color:green'>Lift,<span style='color:green'>Lift,<span style='color:red'>Fail,<span style='color:red'>Fail,<span style='color:red'>Fail,<span style='color:red'>Fail,<span style='color:red'>Fail,<span style='color:green'>Lift,<span style='color:green'>Lift,<span style='color:red'>Fail","<span style='color:red'>Fail,<span style='color:red'>Fail,<span style='color:green'>Lift,<span style='color:green'>Lift,<span style='color:green'>Lift,<span style='color:green'>Lift,<span style='color:red'>Fail,<span style='color:green'>Lift,<span style='color:green'>Lift,<span style='color:green'>Lift,<span style='color:green'>Lift,<span style='color:red'>Fail","<span style='color:red'>Fail,<span style='color:green'>Lift,<span style='color:green'>Lift,<span style='color:red'>Fail,<span style='color:green'>Lift,<span style='color:green'>Lift","0,0,1,1,0,0,0,0,0,1,1,0","0,0,1,1,1,1,0,1,1,1,1,0","0,1,1,0,1,1",10,20,20,"","","","","","",NA,"",NA,NA,NA,NA,NA,NA,NA,NA,NA,NA,NA,NA,NA,NA,NA,NA,NA,NA,NA,NA,NA,NA,NA,NA,NA,NA,NA,NA,NA,NA,NA,NA,NA,NA,NA,NA,NA,NA,NA,"",NA,NA,NA,NA,NA,NA,NA,NA,NA,2025-11-21 02:32:12
"","https://psyc-201.github.io/xiang2023/exp/index1.html?PROLIFIC_PID=REDACTED&STUDY_ID=691f8ca61c6b4dcbb0aeb5f4&SESSION_ID=691fc954de7270f3e6b596b1","fullscreen",1,10253,"0.0-1.0","Oo4IY41Rt/qn3Fdbwwith7U1KM8K4TT+uh+Uc4JHxLM98ULSJMeWic5sSJBg8MwnwywM2iPBFQBHUOeMcjzSNqx/67bN2ZGbuLRRQktY13o28idpAXRD9vGuH6GAnjgTysIZ9SzQzBv/xcckRPDp0Z3uxTA7IaIqthyMvO508Vvk+8ljma6+ZRZ1Z3pGT9Tgo5HhqvoxP2IJDM3xBYUuiVGGUdRv7xFKYdI1Up1eMvm7YHSnybwFrIK3LCJhNxZugdYJY6Y9iufhkZ/h2Pc2UW+yyumCq443eCBrwLgr8yvmUEWm+57F7grF+VuvUweTj82KVhorkKvIul4Mwe62rg==","691f8ca61c6b4dcbb0aeb5f4","691fc954de7270f3e6b596b1","index1","<span style='color:red'>Fail,<span style='color:red'>Fail,<span style='color:green'>Lift,<span style='color:green'>Lift,<span style='color:red'>Fail,<span style='color:red'>Fail,<span style='color:red'>Fail,<span style='color:red'>Fail,<span style='color:red'>Fail,<span style='color:green'>Lift,<span style='color:green'>Lift,<span style='color:red'>Fail","<span style='color:red'>Fail,<span style='color:red'>Fail,<span style='color:green'>Lift,<span style='color:green'>Lift,<span style='color:green'>Lift,<span style='color:green'>Lift,<span style='color:red'>Fail,<span style='color:green'>Lift,<span style='color:green'>Lift,<span style='color:green'>Lift,<span style='color:green'>Lift,<span style='color:red'>Fail","<span style='color:red'>Fail,<span style='color:green'>Lift,<span style='color:green'>Lift,<span style='color:red'>Fail,<span style='color:green'>Lift,<span style='color:green'>Lift","0,0,1,1,0,0,0,0,0,1,1,0","0,0,1,1,1,1,0,1,1,1,1,0","0,1,1,0,1,1",10,20,20,"true","","","","","",NA,"",NA,NA,NA,NA,NA,NA,NA,NA,NA,NA,NA,NA,NA,NA,NA,NA,NA,NA,NA,NA,NA,NA,NA,NA,NA,NA,NA,NA,NA,NA,NA,NA,NA,NA,NA,NA,NA,NA,NA,"",NA,NA,NA,NA,NA,NA,NA,NA,NA,2025-11-21 02:32:12
"482876.40000009537","https://psyc-201.github.io/xiang2023/exp/index1.html?PROLIFIC_PID=REDACTED&STUDY_ID=691f8ca61c6b4dcbb0aeb5f4&SESSION_ID=691fc954de7270f3e6b596b1","instructions",2,493168,"0.0-2.0","Oo4IY41Rt/qn3Fdbwwith7U1KM8K4TT+uh+Uc4JHxLM98ULSJMeWic5sSJBg8MwnwywM2iPBFQBHUOeMcjzSNqx/67bN2ZGbuLRRQktY13o28idpAXRD9vGuH6GAnjgTysIZ9SzQzBv/xcckRPDp0Z3uxTA7IaIqthyMvO508Vvk+8ljma6+ZRZ1Z3pGT9Tgo5HhqvoxP2IJDM3xBYUuiVGGUdRv7xFKYdI1Up1eMvm7YHSnybwFrIK3LCJhNxZugdYJY6Y9iufhkZ/h2Pc2UW+yyumCq443eCBrwLgr8yvmUEWm+57F7grF+VuvUweTj82KVhorkKvIul4Mwe62rg==","691f8ca61c6b4dcbb0aeb5f4","691fc954de7270f3e6b596b1","index1","<span style='color:red'>Fail,<span style='color:red'>Fail,<span style='color:green'>Lift,<span style='color:green'>Lift,<span style='color:red'>Fail,<span style='color:red'>Fail,<span style='color:red'>Fail,<span style='color:red'>Fail,<span style='color:red'>Fail,<span style='color:green'>Lift,<span style='color:green'>Lift,<span style='color:red'>Fail","<span style='color:red'>Fail,<span style='color:red'>Fail,<span style='color:green'>Lift,<span style='color:green'>Lift,<span style='color:green'>Lift,<span style='color:green'>Lift,<span style='color:red'>Fail,<span style='color:green'>Lift,<span style='color:green'>Lift,<span style='color:green'>Lift,<span style='color:green'>Lift,<span style='color:red'>Fail","<span style='color:red'>Fail,<span style='color:green'>Lift,<span style='color:green'>Lift,<span style='color:red'>Fail,<span style='color:green'>Lift,<span style='color:green'>Lift","0,0,1,1,0,0,0,0,0,1,1,0","0,0,1,1,1,1,0,1,1,1,1,0","0,1,1,0,1,1",10,20,20,"","[{""page_index"":0,""viewing_time"":210940.30000007153},{""page_index"":1,""viewing_time"":25576.399999976158},{""page_index"":2,""viewing_time"":90863.29999995232},{""page_index"":3,""viewing_time"":35897},{""page_index"":4,""viewing_time"":16767.300000071526},{""page_index"":5,""viewing_time"":22568.5},{""page_index"":6,""viewing_time"":80262.69999992847}]","","","","",NA,"",NA,NA,NA,NA,NA,NA,NA,NA,NA,NA,NA,NA,NA,NA,NA,NA,NA,NA,NA,NA,NA,NA,NA,NA,NA,NA,NA,NA,NA,NA,NA,NA,NA,NA,NA,NA,NA,NA,NA,"",NA,NA,NA,NA,NA,NA,NA,NA,NA,2025-11-21 02:32:12
"null","https://psyc-201.github.io/xiang2023/exp/index1.html?PROLIFIC_PID=REDACTED&STUDY_ID=691f8ca61c6b4dcbb0aeb5f4&SESSION_ID=691fc954de7270f3e6b596b1","html-keyboard-response",3,494173,"0.0-3.0","Oo4IY41Rt/qn3Fdbwwith7U1KM8K4TT+uh+Uc4JHxLM98ULSJMeWic5sSJBg8MwnwywM2iPBFQBHUOeMcjzSNqx/67bN2ZGbuLRRQktY13o28idpAXRD9vGuH6GAnjgTysIZ9SzQzBv/xcckRPDp0Z3uxTA7IaIqthyMvO508Vvk+8ljma6+ZRZ1Z3pGT9Tgo5HhqvoxP2IJDM3xBYUuiVGGUdRv7xFKYdI1Up1eMvm7YHSnybwFrIK3LCJhNxZugdYJY6Y9iufhkZ/h2Pc2UW+yyumCq443eCBrwLgr8yvmUEWm+57F7grF+VuvUweTj82KVhorkKvIul4Mwe62rg==","691f8ca61c6b4dcbb0aeb5f4","691fc954de7270f3e6b596b1","index1","<span style='color:red'>Fail,<span style='color:red'>Fail,<span style='color:green'>Lift,<span style='color:green'>Lift,<span style='color:red'>Fail,<span style='color:red'>Fail,<span style='color:red'>Fail,<span style='color:red'>Fail,<span style='color:red'>Fail,<span style='color:green'>Lift,<span style='color:green'>Lift,<span style='color:red'>Fail","<span style='color:red'>Fail,<span style='color:red'>Fail,<span style='color:green'>Lift,<span style='color:green'>Lift,<span style='color:green'>Lift,<span style='color:green'>Lift,<span style='color:red'>Fail,<span style='color:green'>Lift,<span style='color:green'>Lift,<span style='color:green'>Lift,<span style='color:green'>Lift,<span style='color:red'>Fail","<span style='color:red'>Fail,<span style='color:green'>Lift,<span style='color:green'>Lift,<span style='color:red'>Fail,<span style='color:green'>Lift,<span style='color:green'>Lift","0,0,1,1,0,0,0,0,0,1,1,0","0,0,1,1,1,1,0,1,1,1,1,0","0,1,1,0,1,1",10,20,20,"",""," ","null","","",NA,"",NA,NA,NA,NA,NA,NA,NA,NA,NA,NA,NA,NA,NA,NA,NA,NA,NA,NA,NA,NA,NA,NA,NA,NA,NA,NA,NA,NA,NA,NA,NA,NA,NA,NA,NA,NA,NA,NA,NA,"",NA,NA,NA,NA,NA,NA,NA,NA,NA,2025-11-21 02:32:12
"42178.10000002384","https://psyc-201.github.io/xiang2023/exp/index1.html?PROLIFIC_PID=REDACTED&STUDY_ID=691f8ca61c6b4dcbb0aeb5f4&SESSION_ID=691fc954de7270f3e6b596b1","survey-multi-choice",4,536361,"0.0-4.0","Oo4IY41Rt/qn3Fdbwwith7U1KM8K4TT+uh+Uc4JHxLM98ULSJMeWic5sSJBg8MwnwywM2iPBFQBHUOeMcjzSNqx/67bN2ZGbuLRRQktY13o28idpAXRD9vGuH6GAnjgTysIZ9SzQzBv/xcckRPDp0Z3uxTA7IaIqthyMvO508Vvk+8ljma6+ZRZ1Z3pGT9Tgo5HhqvoxP2IJDM3xBYUuiVGGUdRv7xFKYdI1Up1eMvm7YHSnybwFrIK3LCJhNxZugdYJY6Y9iufhkZ/h2Pc2UW+yyumCq443eCBrwLgr8yvmUEWm+57F7grF+VuvUweTj82KVhorkKvIul4Mwe62rg==","691f8ca61c6b4dcbb0aeb5f4","691fc954de7270f3e6b596b1","index1","<span style='color:red'>Fail,<span style='color:red'>Fail,<span style='color:green'>Lift,<span style='color:green'>Lift,<span style='color:red'>Fail,<span style='color:red'>Fail,<span style='color:red'>Fail,<span style='color:red'>Fail,<span style='color:red'>Fail,<span style='color:green'>Lift,<span style='color:green'>Lift,<span style='color:red'>Fail","<span style='color:red'>Fail,<span style='color:red'>Fail,<span style='color:green'>Lift,<span style='color:green'>Lift,<span style='color:green'>Lift,<span style='color:green'>Lift,<span style='color:red'>Fail,<span style='color:green'>Lift,<span style='color:green'>Lift,<span style='color:green'>Lift,<span style='color:green'>Lift,<span style='color:red'>Fail","<span style='color:red'>Fail,<span style='color:green'>Lift,<span style='color:green'>Lift,<span style='color:red'>Fail,<span style='color:green'>Lift,<span style='color:green'>Lift","0,0,1,1,0,0,0,0,0,1,1,0","0,0,1,1,1,1,0,1,1,1,1,0","0,1,1,0,1,1",10,20,20,"","","","","{""Q0"":""It consists of multiple contests, each contest with three rounds."",""Q1"":""When a new contest begins."",""Q2"":""The box weight always stays the same (equivalent to strength of 5)."",""Q3"":""Each will get $20."",""Q4"":""How close my guesses are to the actual outcome.""}","[0,1,2,3,4]",NA,"",NA,NA,NA,NA,NA,NA,NA,NA,NA,NA,NA,NA,NA,NA,NA,NA,NA,NA,NA,NA,NA,NA,NA,NA,NA,NA,NA,NA,NA,NA,NA,NA,NA,NA,NA,NA,NA,NA,NA,"",NA,NA,NA,NA,NA,NA,NA,NA,NA,2025-11-21 02:32:12
"10954.200000047684","https://psyc-201.github.io/xiang2023/exp/index1.html?PROLIFIC_PID=REDACTED&STUDY_ID=691f8ca61c6b4dcbb0aeb5f4&SESSION_ID=691fc954de7270f3e6b596b1","instructions",5,547325,"0.0-305.0","Oo4IY41Rt/qn3Fdbwwith7U1KM8K4TT+uh+Uc4JHxLM98ULSJMeWic5sSJBg8MwnwywM2iPBFQBHUOeMcjzSNqx/67bN2ZGbuLRRQktY13o28idpAXRD9vGuH6GAnjgTysIZ9SzQzBv/xcckRPDp0Z3uxTA7IaIqthyMvO508Vvk+8ljma6+ZRZ1Z3pGT9Tgo5HhqvoxP2IJDM3xBYUuiVGGUdRv7xFKYdI1Up1eMvm7YHSnybwFrIK3LCJhNxZugdYJY6Y9iufhkZ/h2Pc2UW+yyumCq443eCBrwLgr8yvmUEWm+57F7grF+VuvUweTj82KVhorkKvIul4Mwe62rg==","691f8ca61c6b4dcbb0aeb5f4","691fc954de7270f3e6b596b1","index1","<span style='color:red'>Fail,<span style='color:red'>Fail,<span style='color:green'>Lift,<span style='color:green'>Lift,<span style='color:red'>Fail,<span style='color:red'>Fail,<span style='color:red'>Fail,<span style='color:red'>Fail,<span style='color:red'>Fail,<span style='color:green'>Lift,<span style='color:green'>Lift,<span style='color:red'>Fail","<span style='color:red'>Fail,<span style='color:red'>Fail,<span style='color:green'>Lift,<span style='color:green'>Lift,<span style='color:green'>Lift,<span style='color:green'>Lift,<span style='color:red'>Fail,<span style='color:green'>Lift,<span style='color:green'>Lift,<span style='color:green'>Lift,<span style='color:green'>Lift,<span style='color:red'>Fail","<span style='color:red'>Fail,<span style='color:green'>Lift,<span style='color:green'>Lift,<span style='color:red'>Fail,<span style='color:green'>Lift,<span style='color:green'>Lift","0,0,1,1,0,0,0,0,0,1,1,0","0,0,1,1,1,1,0,1,1,1,1,0","0,1,1,0,1,1",10,20,20,"","[{""page_index"":0,""viewing_time"":5818.400000095367},{""page_index"":1,""viewing_time"":5135.5}]","","","","",NA,"",NA,NA,NA,NA,NA,NA,NA,NA,NA,NA,NA,NA,NA,NA,NA,NA,NA,NA,NA,NA,NA,NA,NA,NA,NA,NA,NA,NA,NA,NA,NA,NA,NA,NA,NA,NA,NA,NA,NA,"",NA,NA,NA,NA,NA,NA,NA,NA,NA,2025-11-21 02:32:12
"null","https://psyc-201.github.io/xiang2023/exp/index1.html?PROLIFIC_PID=REDACTED&STUDY_ID=691f8ca61c6b4dcbb0aeb5f4&SESSION_ID=691fc954de7270f3e6b596b1","html-keyboard-response",6,548329,"0.0-306.0","Oo4IY41Rt/qn3Fdbwwith7U1KM8K4TT+uh+Uc4JHxLM98ULSJMeWic5sSJBg8MwnwywM2iPBFQBHUOeMcjzSNqx/67bN2ZGbuLRRQktY13o28idpAXRD9vGuH6GAnjgTysIZ9SzQzBv/xcckRPDp0Z3uxTA7IaIqthyMvO508Vvk+8ljma6+ZRZ1Z3pGT9Tgo5HhqvoxP2IJDM3xBYUuiVGGUdRv7xFKYdI1Up1eMvm7YHSnybwFrIK3LCJhNxZugdYJY6Y9iufhkZ/h2Pc2UW+yyumCq443eCBrwLgr8yvmUEWm+57F7grF+VuvUweTj82KVhorkKvIul4Mwe62rg==","691f8ca61c6b4dcbb0aeb5f4","691fc954de7270f3e6b596b1","index1","<span style='color:red'>Fail,<span style='color:red'>Fail,<span style='color:green'>Lift,<span style='color:green'>Lift,<span style='color:red'>Fail,<span style='color:red'>Fail,<span style='color:red'>Fail,<span style='color:red'>Fail,<span style='color:red'>Fail,<span style='color:green'>Lift,<span style='color:green'>Lift,<span style='color:red'>Fail","<span style='color:red'>Fail,<span style='color:red'>Fail,<span style='color:green'>Lift,<span style='color:green'>Lift,<span style='color:green'>Lift,<span style='color:green'>Lift,<span style='color:red'>Fail,<span style='color:green'>Lift,<span style='color:green'>Lift,<span style='color:green'>Lift,<span style='color:green'>Lift,<span style='color:red'>Fail","<span style='color:red'>Fail,<span style='color:green'>Lift,<span style='color:green'>Lift,<span style='color:red'>Fail,<span style='color:green'>Lift,<span style='color:green'>Lift","0,0,1,1,0,0,0,0,0,1,1,0","0,0,1,1,1,1,0,1,1,1,1,0","0,1,1,0,1,1",10,20,20,"",""," ","null","","",1,"",NA,NA,NA,NA,NA,NA,NA,NA,NA,NA,NA,NA,NA,NA,NA,NA,NA,NA,NA,NA,NA,NA,NA,NA,NA,NA,NA,NA,NA,NA,NA,NA,NA,NA,NA,NA,NA,NA,NA,"",NA,NA,NA,NA,NA,NA,NA,NA,NA,2025-11-21 02:32:12
"null","https://psyc-201.github.io/xiang2023/exp/index1.html?PROLIFIC_PID=REDACTED&STUDY_ID=691f8ca61c6b4dcbb0aeb5f4&SESSION_ID=691fc954de7270f3e6b596b1","html-keyboard-response",7,551344,"0.0-307.0","Oo4IY41Rt/qn3Fdbwwith7U1KM8K4TT+uh+Uc4JHxLM98ULSJMeWic5sSJBg8MwnwywM2iPBFQBHUOeMcjzSNqx/67bN2ZGbuLRRQktY13o28idpAXRD9vGuH6GAnjgTysIZ9SzQzBv/xcckRPDp0Z3uxTA7IaIqthyMvO508Vvk+8ljma6+ZRZ1Z3pGT9Tgo5HhqvoxP2IJDM3xBYUuiVGGUdRv7xFKYdI1Up1eMvm7YHSnybwFrIK3LCJhNxZugdYJY6Y9iufhkZ/h2Pc2UW+yyumCq443eCBrwLgr8yvmUEWm+57F7grF+VuvUweTj82KVhorkKvIul4Mwe62rg==","691f8ca61c6b4dcbb0aeb5f4","691fc954de7270f3e6b596b1","index1","<span style='color:red'>Fail,<span style='color:red'>Fail,<span style='color:green'>Lift,<span style='color:green'>Lift,<span style='color:red'>Fail,<span style='color:red'>Fail,<span style='color:red'>Fail,<span style='color:red'>Fail,<span style='color:red'>Fail,<span style='color:green'>Lift,<span style='color:green'>Lift,<span style='color:red'>Fail","<span style='color:red'>Fail,<span style='color:red'>Fail,<span style='color:green'>Lift,<span style='color:green'>Lift,<span style='color:green'>Lift,<span style='color:green'>Lift,<span style='color:red'>Fail,<span style='color:green'>Lift,<span style='color:green'>Lift,<span style='color:green'>Lift,<span style='color:green'>Lift,<span style='color:red'>Fail","<span style='color:red'>Fail,<span style='color:green'>Lift,<span style='color:green'>Lift,<span style='color:red'>Fail,<span style='color:green'>Lift,<span style='color:green'>Lift","0,0,1,1,0,0,0,0,0,1,1,0","0,0,1,1,1,1,0,1,1,1,1,0","0,1,1,0,1,1",10,20,20,"","","<p style='font-size:30px'><b> New Contest! </b></p>","null","","",1,"",NA,NA,NA,NA,NA,NA,NA,NA,NA,NA,NA,NA,NA,NA,NA,NA,NA,NA,NA,NA,NA,NA,NA,NA,NA,NA,NA,NA,NA,NA,NA,NA,NA,NA,NA,NA,NA,NA,NA,"",NA,NA,NA,NA,NA,NA,NA,NA,NA,2025-11-21 02:32:12
"157953.5","https://psyc-201.github.io/xiang2023/exp/index1.html?PROLIFIC_PID=REDACTED&STUDY_ID=691f8ca61c6b4dcbb0aeb5f4&SESSION_ID=691fc954de7270f3e6b596b1","survey-html-form",8,709313,"0.0-308.0","Oo4IY41Rt/qn3Fdbwwith7U1KM8K4TT+uh+Uc4JHxLM98ULSJMeWic5sSJBg8MwnwywM2iPBFQBHUOeMcjzSNqx/67bN2ZGbuLRRQktY13o28idpAXRD9vGuH6GAnjgTysIZ9SzQzBv/xcckRPDp0Z3uxTA7IaIqthyMvO508Vvk+8ljma6+ZRZ1Z3pGT9Tgo5HhqvoxP2IJDM3xBYUuiVGGUdRv7xFKYdI1Up1eMvm7YHSnybwFrIK3LCJhNxZugdYJY6Y9iufhkZ/h2Pc2UW+yyumCq443eCBrwLgr8yvmUEWm+57F7grF+VuvUweTj82KVhorkKvIul4Mwe62rg==","691f8ca61c6b4dcbb0aeb5f4","691fc954de7270f3e6b596b1","index1","<span style='color:red'>Fail,<span style='color:red'>Fail,<span style='color:green'>Lift,<span style='color:green'>Lift,<span style='color:red'>Fail,<span style='color:red'>Fail,<span style='color:red'>Fail,<span style='color:red'>Fail,<span style='color:red'>Fail,<span style='color:green'>Lift,<span style='color:green'>Lift,<span style='color:red'>Fail","<span style='color:red'>Fail,<span style='color:red'>Fail,<span style='color:green'>Lift,<span style='color:green'>Lift,<span style='color:green'>Lift,<span style='color:green'>Lift,<span style='color:red'>Fail,<span style='color:green'>Lift,<span style='color:green'>Lift,<span style='color:green'>Lift,<span style='color:green'>Lift,<span style='color:red'>Fail","<span style='color:red'>Fail,<span style='color:green'>Lift,<span style='color:green'>Lift,<span style='color:red'>Fail,<span style='color:green'>Lift,<span style='color:green'>Lift","0,0,1,1,0,0,0,0,0,1,1,0","0,0,1,1,1,1,0,1,1,1,1,0","0,1,1,0,1,1",10,20,20,"","","","","{""box1"":""5"",""box2"":""4"",""box3"":""85""}","",1,"round1_outcome",1,1,1,5,4,85,NA,1,0,10,5,4,85,NA,1,0,10,NA,NA,NA,NA,NA,NA,NA,NA,NA,NA,NA,NA,NA,NA,NA,NA,NA,NA,NA,NA,NA,NA,"",NA,NA,NA,NA,NA,NA,NA,NA,NA,2025-11-21 02:32:12
"116962.89999997616","https://psyc-201.github.io/xiang2023/exp/index1.html?PROLIFIC_PID=REDACTED&STUDY_ID=691f8ca61c6b4dcbb0aeb5f4&SESSION_ID=691fc954de7270f3e6b596b1","survey-html-form",9,826290,"0.0-309.0","Oo4IY41Rt/qn3Fdbwwith7U1KM8K4TT+uh+Uc4JHxLM98ULSJMeWic5sSJBg8MwnwywM2iPBFQBHUOeMcjzSNqx/67bN2ZGbuLRRQktY13o28idpAXRD9vGuH6GAnjgTysIZ9SzQzBv/xcckRPDp0Z3uxTA7IaIqthyMvO508Vvk+8ljma6+ZRZ1Z3pGT9Tgo5HhqvoxP2IJDM3xBYUuiVGGUdRv7xFKYdI1Up1eMvm7YHSnybwFrIK3LCJhNxZugdYJY6Y9iufhkZ/h2Pc2UW+yyumCq443eCBrwLgr8yvmUEWm+57F7grF+VuvUweTj82KVhorkKvIul4Mwe62rg==","691f8ca61c6b4dcbb0aeb5f4","691fc954de7270f3e6b596b1","index1","<span style='color:red'>Fail,<span style='color:red'>Fail,<span style='color:green'>Lift,<span style='color:green'>Lift,<span style='color:red'>Fail,<span style='color:red'>Fail,<span style='color:red'>Fail,<span style='color:red'>Fail,<span style='color:red'>Fail,<span style='color:green'>Lift,<span style='color:green'>Lift,<span style='color:red'>Fail","<span style='color:red'>Fail,<span style='color:red'>Fail,<span style='color:green'>Lift,<span style='color:green'>Lift,<span style='color:green'>Lift,<span style='color:green'>Lift,<span style='color:red'>Fail,<span style='color:green'>Lift,<span style='color:green'>Lift,<span style='color:green'>Lift,<span style='color:green'>Lift,<span style='color:red'>Fail","<span style='color:red'>Fail,<span style='color:green'>Lift,<span style='color:green'>Lift,<span style='color:red'>Fail,<span style='color:green'>Lift,<span style='color:green'>Lift","0,0,1,1,0,0,0,0,0,1,1,0","0,0,1,1,1,1,0,1,1,1,1,0","0,1,1,0,1,1",10,20,20,"","","","","{""box1"":""85"",""box2"":""25""}","",1,"round2_ready",2,1,2,NA,NA,NA,NA,NA,NA,NA,NA,NA,NA,NA,NA,NA,NA,85,25,85,25,NA,NA,NA,NA,NA,NA,NA,NA,NA,NA,NA,NA,NA,NA,NA,NA,NA,NA,"",NA,NA,NA,NA,NA,NA,NA,NA,NA,2025-11-21 02:32:12
"125381","https://psyc-201.github.io/xiang2023/exp/index1.html?PROLIFIC_PID=REDACTED&STUDY_ID=691f8ca61c6b4dcbb0aeb5f4&SESSION_ID=691fc954de7270f3e6b596b1","survey-html-form",10,951687,"0.0-310.0","Oo4IY41Rt/qn3Fdbwwith7U1KM8K4TT+uh+Uc4JHxLM98ULSJMeWic5sSJBg8MwnwywM2iPBFQBHUOeMcjzSNqx/67bN2ZGbuLRRQktY13o28idpAXRD9vGuH6GAnjgTysIZ9SzQzBv/xcckRPDp0Z3uxTA7IaIqthyMvO508Vvk+8ljma6+ZRZ1Z3pGT9Tgo5HhqvoxP2IJDM3xBYUuiVGGUdRv7xFKYdI1Up1eMvm7YHSnybwFrIK3LCJhNxZugdYJY6Y9iufhkZ/h2Pc2UW+yyumCq443eCBrwLgr8yvmUEWm+57F7grF+VuvUweTj82KVhorkKvIul4Mwe62rg==","691f8ca61c6b4dcbb0aeb5f4","691fc954de7270f3e6b596b1","index1","<span style='color:red'>Fail,<span style='color:red'>Fail,<span style='color:green'>Lift,<span style='color:green'>Lift,<span style='color:red'>Fail,<span style='color:red'>Fail,<span style='color:red'>Fail,<span style='color:red'>Fail,<span style='color:red'>Fail,<span style='color:green'>Lift,<span style='color:green'>Lift,<span style='color:red'>Fail","<span style='color:red'>Fail,<span style='color:red'>Fail,<span style='color:green'>Lift,<span style='color:green'>Lift,<span style='color:green'>Lift,<span style='color:green'>Lift,<span style='color:red'>Fail,<span style='color:green'>Lift,<span style='color:green'>Lift,<span style='color:green'>Lift,<span style='color:green'>Lift,<span style='color:red'>Fail","<span style='color:red'>Fail,<span style='color:green'>Lift,<span style='color:green'>Lift,<span style='color:red'>Fail,<span style='color:green'>Lift,<span style='color:green'>Lift","0,0,1,1,0,0,0,0,0,1,1,0","0,0,1,1,1,1,0,1,1,1,1,0","0,1,1,0,1,1",10,20,20,"","","","","{""box1"":""6"",""box2"":""4"",""box3"":""90""}","",1,"round2_outcome",3,1,2,6,4,90,NA,1,0,20,NA,NA,NA,NA,NA,NA,NA,NA,NA,NA,NA,6,4,90,NA,1,0,20,NA,NA,NA,NA,NA,NA,NA,NA,NA,NA,NA,"",NA,NA,NA,NA,NA,NA,NA,NA,NA,2025-11-21 02:32:12
"21837.600000023842","https://psyc-201.github.io/xiang2023/exp/index1.html?PROLIFIC_PID=REDACTED&STUDY_ID=691f8ca61c6b4dcbb0aeb5f4&SESSION_ID=691fc954de7270f3e6b596b1","survey-html-form",11,973527,"0.0-311.0","Oo4IY41Rt/qn3Fdbwwith7U1KM8K4TT+uh+Uc4JHxLM98ULSJMeWic5sSJBg8MwnwywM2iPBFQBHUOeMcjzSNqx/67bN2ZGbuLRRQktY13o28idpAXRD9vGuH6GAnjgTysIZ9SzQzBv/xcckRPDp0Z3uxTA7IaIqthyMvO508Vvk+8ljma6+ZRZ1Z3pGT9Tgo5HhqvoxP2IJDM3xBYUuiVGGUdRv7xFKYdI1Up1eMvm7YHSnybwFrIK3LCJhNxZugdYJY6Y9iufhkZ/h2Pc2UW+yyumCq443eCBrwLgr8yvmUEWm+57F7grF+VuvUweTj82KVhorkKvIul4Mwe62rg==","691f8ca61c6b4dcbb0aeb5f4","691fc954de7270f3e6b596b1","index1","<span style='color:red'>Fail,<span style='color:red'>Fail,<span style='color:green'>Lift,<span style='color:green'>Lift,<span style='color:red'>Fail,<span style='color:red'>Fail,<span style='color:red'>Fail,<span style='color:red'>Fail,<span style='color:red'>Fail,<span style='color:green'>Lift,<span style='color:green'>Lift,<span style='color:red'>Fail","<span style='color:red'>Fail,<span style='color:red'>Fail,<span style='color:green'>Lift,<span style='color:green'>Lift,<span style='color:green'>Lift,<span style='color:green'>Lift,<span style='color:red'>Fail,<span style='color:green'>Lift,<span style='color:green'>Lift,<span style='color:green'>Lift,<span style='color:green'>Lift,<span style='color:red'>Fail","<span style='color:red'>Fail,<span style='color:green'>Lift,<span style='color:green'>Lift,<span style='color:red'>Fail,<span style='color:green'>Lift,<span style='color:green'>Lift","0,0,1,1,0,0,0,0,0,1,1,0","0,0,1,1,1,1,0,1,1,1,1,0","0,1,1,0,1,1",10,20,20,"","","","","{""box1"":""98""}","",1,"round3_ready",4,1,3,NA,NA,NA,NA,NA,NA,NA,NA,NA,NA,NA,NA,NA,NA,98,98,NA,NA,NA,NA,NA,NA,NA,NA,NA,98,98,NA,NA,NA,NA,NA,NA,NA,NA,NA,"",NA,NA,NA,NA,NA,NA,NA,NA,NA,2025-11-21 02:32:12
"121276","https://psyc-201.github.io/xiang2023/exp/index1.html?PROLIFIC_PID=REDACTED&STUDY_ID=691f8ca61c6b4dcbb0aeb5f4&SESSION_ID=691fc954de7270f3e6b596b1","survey-html-form",12,1094815,"0.0-312.0-0.0","Oo4IY41Rt/qn3Fdbwwith7U1KM8K4TT+uh+Uc4JHxLM98ULSJMeWic5sSJBg8MwnwywM2iPBFQBHUOeMcjzSNqx/67bN2ZGbuLRRQktY13o28idpAXRD9vGuH6GAnjgTysIZ9SzQzBv/xcckRPDp0Z3uxTA7IaIqthyMvO508Vvk+8ljma6+ZRZ1Z3pGT9Tgo5HhqvoxP2IJDM3xBYUuiVGGUdRv7xFKYdI1Up1eMvm7YHSnybwFrIK3LCJhNxZugdYJY6Y9iufhkZ/h2Pc2UW+yyumCq443eCBrwLgr8yvmUEWm+57F7grF+VuvUweTj82KVhorkKvIul4Mwe62rg==","691f8ca61c6b4dcbb0aeb5f4","691fc954de7270f3e6b596b1","index1","<span style='color:red'>Fail,<span style='color:red'>Fail,<span style='color:green'>Lift,<span style='color:green'>Lift,<span style='color:red'>Fail,<span style='color:red'>Fail,<span style='color:red'>Fail,<span style='color:red'>Fail,<span style='color:red'>Fail,<span style='color:green'>Lift,<span style='color:green'>Lift,<span style='color:red'>Fail","<span style='color:red'>Fail,<span style='color:red'>Fail,<span style='color:green'>Lift,<span style='color:green'>Lift,<span style='color:green'>Lift,<span style='color:green'>Lift,<span style='color:red'>Fail,<span style='color:green'>Lift,<span style='color:green'>Lift,<span style='color:green'>Lift,<span style='color:green'>Lift,<span style='color:red'>Fail","<span style='color:red'>Fail,<span style='color:green'>Lift,<span style='color:green'>Lift,<span style='color:red'>Fail,<span style='color:green'>Lift,<span style='color:green'>Lift","0,0,1,1,0,0,0,0,0,1,1,0","0,0,1,1,1,1,0,1,1,1,1,0","0,1,1,0,1,1",10,20,20,"","","","","{""box1"":""6"",""box2"":""4"",""box3"":""50"",""box4"":""50""}","",2,"round3_lift",5,1,3,6,4,50,50,1,1,20,NA,NA,NA,NA,NA,NA,NA,NA,NA,NA,NA,NA,NA,NA,NA,NA,NA,NA,NA,NA,6,4,50,50,1,1,20,NA,NA,"",NA,NA,NA,NA,NA,NA,NA,NA,NA,2025-11-21 02:32:12
"null","https://psyc-201.github.io/xiang2023/exp/index1.html?PROLIFIC_PID=REDACTED&STUDY_ID=691f8ca61c6b4dcbb0aeb5f4&SESSION_ID=691fc954de7270f3e6b596b1","html-keyboard-response",13,1097824,"0.0-316.0","Oo4IY41Rt/qn3Fdbwwith7U1KM8K4TT+uh+Uc4JHxLM98ULSJMeWic5sSJBg8MwnwywM2iPBFQBHUOeMcjzSNqx/67bN2ZGbuLRRQktY13o28idpAXRD9vGuH6GAnjgTysIZ9SzQzBv/xcckRPDp0Z3uxTA7IaIqthyMvO508Vvk+8ljma6+ZRZ1Z3pGT9Tgo5HhqvoxP2IJDM3xBYUuiVGGUdRv7xFKYdI1Up1eMvm7YHSnybwFrIK3LCJhNxZugdYJY6Y9iufhkZ/h2Pc2UW+yyumCq443eCBrwLgr8yvmUEWm+57F7grF+VuvUweTj82KVhorkKvIul4Mwe62rg==","691f8ca61c6b4dcbb0aeb5f4","691fc954de7270f3e6b596b1","index1","<span style='color:red'>Fail,<span style='color:red'>Fail,<span style='color:green'>Lift,<span style='color:green'>Lift,<span style='color:red'>Fail,<span style='color:red'>Fail,<span style='color:red'>Fail,<span style='color:red'>Fail,<span style='color:red'>Fail,<span style='color:green'>Lift,<span style='color:green'>Lift,<span style='color:red'>Fail","<span style='color:red'>Fail,<span style='color:red'>Fail,<span style='color:green'>Lift,<span style='color:green'>Lift,<span style='color:green'>Lift,<span style='color:green'>Lift,<span style='color:red'>Fail,<span style='color:green'>Lift,<span style='color:green'>Lift,<span style='color:green'>Lift,<span style='color:green'>Lift,<span style='color:red'>Fail","<span style='color:red'>Fail,<span style='color:green'>Lift,<span style='color:green'>Lift,<span style='color:red'>Fail,<span style='color:green'>Lift,<span style='color:green'>Lift","0,0,1,1,0,0,0,0,0,1,1,0","0,0,1,1,1,1,0,1,1,1,1,0","0,1,1,0,1,1",10,20,20,"","","<p style='font-size:30px'><b> New Contest! </b></p>","null","","",2,"",NA,NA,NA,NA,NA,NA,NA,NA,NA,NA,NA,NA,NA,NA,NA,NA,NA,NA,NA,NA,NA,NA,NA,NA,NA,NA,NA,NA,NA,NA,NA,NA,NA,NA,NA,NA,NA,NA,NA,"",NA,NA,NA,NA,NA,NA,NA,NA,NA,2025-11-21 02:32:12
"9734","https://psyc-201.github.io/xiang2023/exp/index1.html?PROLIFIC_PID=REDACTED&STUDY_ID=691f8ca61c6b4dcbb0aeb5f4&SESSION_ID=691fc954de7270f3e6b596b1","survey-html-form",14,1107560,"0.0-317.0","Oo4IY41Rt/qn3Fdbwwith7U1KM8K4TT+uh+Uc4JHxLM98ULSJMeWic5sSJBg8MwnwywM2iPBFQBHUOeMcjzSNqx/67bN2ZGbuLRRQktY13o28idpAXRD9vGuH6GAnjgTysIZ9SzQzBv/xcckRPDp0Z3uxTA7IaIqthyMvO508Vvk+8ljma6+ZRZ1Z3pGT9Tgo5HhqvoxP2IJDM3xBYUuiVGGUdRv7xFKYdI1Up1eMvm7YHSnybwFrIK3LCJhNxZugdYJY6Y9iufhkZ/h2Pc2UW+yyumCq443eCBrwLgr8yvmUEWm+57F7grF+VuvUweTj82KVhorkKvIul4Mwe62rg==","691f8ca61c6b4dcbb0aeb5f4","691fc954de7270f3e6b596b1","index1","<span style='color:red'>Fail,<span style='color:red'>Fail,<span style='color:green'>Lift,<span style='color:green'>Lift,<span style='color:red'>Fail,<span style='color:red'>Fail,<span style='color:red'>Fail,<span style='color:red'>Fail,<span style='color:red'>Fail,<span style='color:green'>Lift,<span style='color:green'>Lift,<span style='color:red'>Fail","<span style='color:red'>Fail,<span style='color:red'>Fail,<span style='color:green'>Lift,<span style='color:green'>Lift,<span style='color:green'>Lift,<span style='color:green'>Lift,<span style='color:red'>Fail,<span style='color:green'>Lift,<span style='color:green'>Lift,<span style='color:green'>Lift,<span style='color:green'>Lift,<span style='color:red'>Fail","<span style='color:red'>Fail,<span style='color:green'>Lift,<span style='color:green'>Lift,<span style='color:red'>Fail,<span style='color:green'>Lift,<span style='color:green'>Lift","0,0,1,1,0,0,0,0,0,1,1,0","0,0,1,1,1,1,0,1,1,1,1,0","0,1,1,0,1,1",10,20,20,"","","","","{""box1"":""4"",""box2"":""4""}","",2,"round1_outcome",1,2,1,4,4,NA,NA,0,0,10,4,4,NA,NA,0,0,10,NA,NA,NA,NA,NA,NA,NA,NA,NA,NA,NA,NA,NA,NA,NA,NA,NA,NA,NA,NA,NA,NA,"",NA,NA,NA,NA,NA,NA,NA,NA,NA,2025-11-21 02:32:12
"11709.400000095367","https://psyc-201.github.io/xiang2023/exp/index1.html?PROLIFIC_PID=REDACTED&STUDY_ID=691f8ca61c6b4dcbb0aeb5f4&SESSION_ID=691fc954de7270f3e6b596b1","survey-html-form",15,1119271,"0.0-318.0","Oo4IY41Rt/qn3Fdbwwith7U1KM8K4TT+uh+Uc4JHxLM98ULSJMeWic5sSJBg8MwnwywM2iPBFQBHUOeMcjzSNqx/67bN2ZGbuLRRQktY13o28idpAXRD9vGuH6GAnjgTysIZ9SzQzBv/xcckRPDp0Z3uxTA7IaIqthyMvO508Vvk+8ljma6+ZRZ1Z3pGT9Tgo5HhqvoxP2IJDM3xBYUuiVGGUdRv7xFKYdI1Up1eMvm7YHSnybwFrIK3LCJhNxZugdYJY6Y9iufhkZ/h2Pc2UW+yyumCq443eCBrwLgr8yvmUEWm+57F7grF+VuvUweTj82KVhorkKvIul4Mwe62rg==","691f8ca61c6b4dcbb0aeb5f4","691fc954de7270f3e6b596b1","index1","<span style='color:red'>Fail,<span style='color:red'>Fail,<span style='color:green'>Lift,<span style='color:green'>Lift,<span style='color:red'>Fail,<span style='color:red'>Fail,<span style='color:red'>Fail,<span style='color:red'>Fail,<span style='color:red'>Fail,<span style='color:green'>Lift,<span style='color:green'>Lift,<span style='color:red'>Fail","<span style='color:red'>Fail,<span style='color:red'>Fail,<span style='color:green'>Lift,<span style='color:green'>Lift,<span style='color:green'>Lift,<span style='color:green'>Lift,<span style='color:red'>Fail,<span style='color:green'>Lift,<span style='color:green'>Lift,<span style='color:green'>Lift,<span style='color:green'>Lift,<span style='color:red'>Fail","<span style='color:red'>Fail,<span style='color:green'>Lift,<span style='color:green'>Lift,<span style='color:red'>Fail,<span style='color:green'>Lift,<span style='color:green'>Lift","0,0,1,1,0,0,0,0,0,1,1,0","0,0,1,1,1,1,0,1,1,1,1,0","0,1,1,0,1,1",10,20,20,"","","","","{""box1"":""50"",""box2"":""50""}","",2,"round2_ready",2,2,2,NA,NA,NA,NA,NA,NA,NA,NA,NA,NA,NA,NA,NA,NA,50,50,50,50,NA,NA,NA,NA,NA,NA,NA,NA,NA,NA,NA,NA,NA,NA,NA,NA,NA,NA,"",NA,NA,NA,NA,NA,NA,NA,NA,NA,2025-11-21 02:32:12
"6446.800000071526","https://psyc-201.github.io/xiang2023/exp/index1.html?PROLIFIC_PID=REDACTED&STUDY_ID=691f8ca61c6b4dcbb0aeb5f4&SESSION_ID=691fc954de7270f3e6b596b1","survey-html-form",16,1125720,"0.0-319.0","Oo4IY41Rt/qn3Fdbwwith7U1KM8K4TT+uh+Uc4JHxLM98ULSJMeWic5sSJBg8MwnwywM2iPBFQBHUOeMcjzSNqx/67bN2ZGbuLRRQktY13o28idpAXRD9vGuH6GAnjgTysIZ9SzQzBv/xcckRPDp0Z3uxTA7IaIqthyMvO508Vvk+8ljma6+ZRZ1Z3pGT9Tgo5HhqvoxP2IJDM3xBYUuiVGGUdRv7xFKYdI1Up1eMvm7YHSnybwFrIK3LCJhNxZugdYJY6Y9iufhkZ/h2Pc2UW+yyumCq443eCBrwLgr8yvmUEWm+57F7grF+VuvUweTj82KVhorkKvIul4Mwe62rg==","691f8ca61c6b4dcbb0aeb5f4","691fc954de7270f3e6b596b1","index1","<span style='color:red'>Fail,<span style='color:red'>Fail,<span style='color:green'>Lift,<span style='color:green'>Lift,<span style='color:red'>Fail,<span style='color:red'>Fail,<span style='color:red'>Fail,<span style='color:red'>Fail,<span style='color:red'>Fail,<span style='color:green'>Lift,<span style='color:green'>Lift,<span style='color:red'>Fail","<span style='color:red'>Fail,<span style='color:red'>Fail,<span style='color:green'>Lift,<span style='color:green'>Lift,<span style='color:green'>Lift,<span style='color:green'>Lift,<span style='color:red'>Fail,<span style='color:green'>Lift,<span style='color:green'>Lift,<span style='color:green'>Lift,<span style='color:green'>Lift,<span style='color:red'>Fail","<span style='color:red'>Fail,<span style='color:green'>Lift,<span style='color:green'>Lift,<span style='color:red'>Fail,<span style='color:green'>Lift,<span style='color:green'>Lift","0,0,1,1,0,0,0,0,0,1,1,0","0,0,1,1,1,1,0,1,1,1,1,0","0,1,1,0,1,1",10,20,20,"","","","","{""box1"":""4"",""box2"":""4""}","",2,"round2_outcome",3,2,2,4,4,NA,NA,0,0,20,NA,NA,NA,NA,NA,NA,NA,NA,NA,NA,NA,4,4,NA,NA,0,0,20,NA,NA,NA,NA,NA,NA,NA,NA,NA,NA,NA,"",NA,NA,NA,NA,NA,NA,NA,NA,NA,2025-11-21 02:32:12
"4709.399999976158","https://psyc-201.github.io/xiang2023/exp/index1.html?PROLIFIC_PID=REDACTED&STUDY_ID=691f8ca61c6b4dcbb0aeb5f4&SESSION_ID=691fc954de7270f3e6b596b1","survey-html-form",17,1130435,"0.0-320.0","Oo4IY41Rt/qn3Fdbwwith7U1KM8K4TT+uh+Uc4JHxLM98ULSJMeWic5sSJBg8MwnwywM2iPBFQBHUOeMcjzSNqx/67bN2ZGbuLRRQktY13o28idpAXRD9vGuH6GAnjgTysIZ9SzQzBv/xcckRPDp0Z3uxTA7IaIqthyMvO508Vvk+8ljma6+ZRZ1Z3pGT9Tgo5HhqvoxP2IJDM3xBYUuiVGGUdRv7xFKYdI1Up1eMvm7YHSnybwFrIK3LCJhNxZugdYJY6Y9iufhkZ/h2Pc2UW+yyumCq443eCBrwLgr8yvmUEWm+57F7grF+VuvUweTj82KVhorkKvIul4Mwe62rg==","691f8ca61c6b4dcbb0aeb5f4","691fc954de7270f3e6b596b1","index1","<span style='color:red'>Fail,<span style='color:red'>Fail,<span style='color:green'>Lift,<span style='color:green'>Lift,<span style='color:red'>Fail,<span style='color:red'>Fail,<span style='color:red'>Fail,<span style='color:red'>Fail,<span style='color:red'>Fail,<span style='color:green'>Lift,<span style='color:green'>Lift,<span style='color:red'>Fail","<span style='color:red'>Fail,<span style='color:red'>Fail,<span style='color:green'>Lift,<span style='color:green'>Lift,<span style='color:green'>Lift,<span style='color:green'>Lift,<span style='color:red'>Fail,<span style='color:green'>Lift,<span style='color:green'>Lift,<span style='color:green'>Lift,<span style='color:green'>Lift,<span style='color:red'>Fail","<span style='color:red'>Fail,<span style='color:green'>Lift,<span style='color:green'>Lift,<span style='color:red'>Fail,<span style='color:green'>Lift,<span style='color:green'>Lift","0,0,1,1,0,0,0,0,0,1,1,0","0,0,1,1,1,1,0,1,1,1,1,0","0,1,1,0,1,1",10,20,20,"","","","","{""box1"":""99""}","",2,"round3_ready",4,2,3,NA,NA,NA,NA,NA,NA,NA,NA,NA,NA,NA,NA,NA,NA,99,99,NA,NA,NA,NA,NA,NA,NA,NA,NA,99,99,NA,NA,NA,NA,NA,NA,NA,NA,NA,"",NA,NA,NA,NA,NA,NA,NA,NA,NA,2025-11-21 02:32:12
"14773.600000023842","https://psyc-201.github.io/xiang2023/exp/index1.html?PROLIFIC_PID=REDACTED&STUDY_ID=691f8ca61c6b4dcbb0aeb5f4&SESSION_ID=691fc954de7270f3e6b596b1","survey-html-form",18,1145211,"0.0-322.0-0.0","Oo4IY41Rt/qn3Fdbwwith7U1KM8K4TT+uh+Uc4JHxLM98ULSJMeWic5sSJBg8MwnwywM2iPBFQBHUOeMcjzSNqx/67bN2ZGbuLRRQktY13o28idpAXRD9vGuH6GAnjgTysIZ9SzQzBv/xcckRPDp0Z3uxTA7IaIqthyMvO508Vvk+8ljma6+ZRZ1Z3pGT9Tgo5HhqvoxP2IJDM3xBYUuiVGGUdRv7xFKYdI1Up1eMvm7YHSnybwFrIK3LCJhNxZugdYJY6Y9iufhkZ/h2Pc2UW+yyumCq443eCBrwLgr8yvmUEWm+57F7grF+VuvUweTj82KVhorkKvIul4Mwe62rg==","691f8ca61c6b4dcbb0aeb5f4","691fc954de7270f3e6b596b1","index1","<span style='color:red'>Fail,<span style='color:red'>Fail,<span style='color:green'>Lift,<span style='color:green'>Lift,<span style='color:red'>Fail,<span style='color:red'>Fail,<span style='color:red'>Fail,<span style='color:red'>Fail,<span style='color:red'>Fail,<span style='color:green'>Lift,<span style='color:green'>Lift,<span style='color:red'>Fail","<span style='color:red'>Fail,<span style='color:red'>Fail,<span style='color:green'>Lift,<span style='color:green'>Lift,<span style='color:green'>Lift,<span style='color:green'>Lift,<span style='color:red'>Fail,<span style='color:green'>Lift,<span style='color:green'>Lift,<span style='color:green'>Lift,<span style='color:green'>Lift,<span style='color:red'>Fail","<span style='color:red'>Fail,<span style='color:green'>Lift,<span style='color:green'>Lift,<span style='color:red'>Fail,<span style='color:green'>Lift,<span style='color:green'>Lift","0,0,1,1,0,0,0,0,0,1,1,0","0,0,1,1,1,1,0,1,1,1,1,0","0,1,1,0,1,1",10,20,20,"","","","","{""box1"":""1"",""box2"":""1"",""box3"":""999"",""box4"":""999""}","",3,"round3_fail",5,2,3,1,1,NA,NA,0,0,20,NA,NA,NA,NA,NA,NA,NA,NA,NA,NA,NA,NA,NA,NA,NA,NA,NA,NA,NA,NA,1,1,NA,NA,0,0,20,1,1,"",NA,NA,NA,NA,NA,NA,NA,NA,NA,2025-11-21 02:32:12
"null","https://psyc-201.github.io/xiang2023/exp/index1.html?PROLIFIC_PID=REDACTED&STUDY_ID=691f8ca61c6b4dcbb0aeb5f4&SESSION_ID=691fc954de7270f3e6b596b1","html-keyboard-response",19,1148229,"0.0-325.0","Oo4IY41Rt/qn3Fdbwwith7U1KM8K4TT+uh+Uc4JHxLM98ULSJMeWic5sSJBg8MwnwywM2iPBFQBHUOeMcjzSNqx/67bN2ZGbuLRRQktY13o28idpAXRD9vGuH6GAnjgTysIZ9SzQzBv/xcckRPDp0Z3uxTA7IaIqthyMvO508Vvk+8ljma6+ZRZ1Z3pGT9Tgo5HhqvoxP2IJDM3xBYUuiVGGUdRv7xFKYdI1Up1eMvm7YHSnybwFrIK3LCJhNxZugdYJY6Y9iufhkZ/h2Pc2UW+yyumCq443eCBrwLgr8yvmUEWm+57F7grF+VuvUweTj82KVhorkKvIul4Mwe62rg==","691f8ca61c6b4dcbb0aeb5f4","691fc954de7270f3e6b596b1","index1","<span style='color:red'>Fail,<span style='color:red'>Fail,<span style='color:green'>Lift,<span style='color:green'>Lift,<span style='color:red'>Fail,<span style='color:red'>Fail,<span style='color:red'>Fail,<span style='color:red'>Fail,<span style='color:red'>Fail,<span style='color:green'>Lift,<span style='color:green'>Lift,<span style='color:red'>Fail","<span style='color:red'>Fail,<span style='color:red'>Fail,<span style='color:green'>Lift,<span style='color:green'>Lift,<span style='color:green'>Lift,<span style='color:green'>Lift,<span style='color:red'>Fail,<span style='color:green'>Lift,<span style='color:green'>Lift,<span style='color:green'>Lift,<span style='color:green'>Lift,<span style='color:red'>Fail","<span style='color:red'>Fail,<span style='color:green'>Lift,<span style='color:green'>Lift,<span style='color:red'>Fail,<span style='color:green'>Lift,<span style='color:green'>Lift","0,0,1,1,0,0,0,0,0,1,1,0","0,0,1,1,1,1,0,1,1,1,1,0","0,1,1,0,1,1",10,20,20,"","","<p style='font-size:30px'><b> New Contest! </b></p>","null","","",3,"",NA,NA,NA,NA,NA,NA,NA,NA,NA,NA,NA,NA,NA,NA,NA,NA,NA,NA,NA,NA,NA,NA,NA,NA,NA,NA,NA,NA,NA,NA,NA,NA,NA,NA,NA,NA,NA,NA,NA,"",NA,NA,NA,NA,NA,NA,NA,NA,NA,2025-11-21 02:32:12
"10123.399999976158","https://psyc-201.github.io/xiang2023/exp/index1.html?PROLIFIC_PID=REDACTED&STUDY_ID=691f8ca61c6b4dcbb0aeb5f4&SESSION_ID=691fc954de7270f3e6b596b1","survey-html-form",20,1158357,"0.0-326.0","Oo4IY41Rt/qn3Fdbwwith7U1KM8K4TT+uh+Uc4JHxLM98ULSJMeWic5sSJBg8MwnwywM2iPBFQBHUOeMcjzSNqx/67bN2ZGbuLRRQktY13o28idpAXRD9vGuH6GAnjgTysIZ9SzQzBv/xcckRPDp0Z3uxTA7IaIqthyMvO508Vvk+8ljma6+ZRZ1Z3pGT9Tgo5HhqvoxP2IJDM3xBYUuiVGGUdRv7xFKYdI1Up1eMvm7YHSnybwFrIK3LCJhNxZugdYJY6Y9iufhkZ/h2Pc2UW+yyumCq443eCBrwLgr8yvmUEWm+57F7grF+VuvUweTj82KVhorkKvIul4Mwe62rg==","691f8ca61c6b4dcbb0aeb5f4","691fc954de7270f3e6b596b1","index1","<span style='color:red'>Fail,<span style='color:red'>Fail,<span style='color:green'>Lift,<span style='color:green'>Lift,<span style='color:red'>Fail,<span style='color:red'>Fail,<span style='color:red'>Fail,<span style='color:red'>Fail,<span style='color:red'>Fail,<span style='color:green'>Lift,<span style='color:green'>Lift,<span style='color:red'>Fail","<span style='color:red'>Fail,<span style='color:red'>Fail,<span style='color:green'>Lift,<span style='color:green'>Lift,<span style='color:green'>Lift,<span style='color:green'>Lift,<span style='color:red'>Fail,<span style='color:green'>Lift,<span style='color:green'>Lift,<span style='color:green'>Lift,<span style='color:green'>Lift,<span style='color:red'>Fail","<span style='color:red'>Fail,<span style='color:green'>Lift,<span style='color:green'>Lift,<span style='color:red'>Fail,<span style='color:green'>Lift,<span style='color:green'>Lift","0,0,1,1,0,0,0,0,0,1,1,0","0,0,1,1,1,1,0,1,1,1,1,0","0,1,1,0,1,1",10,20,20,"","","","","{""box1"":""5"",""box2"":""5"",""box3"":""80"",""box4"":""80""}","",3,"round1_outcome",1,3,1,5,5,80,80,1,1,10,5,5,80,80,1,1,10,NA,NA,NA,NA,NA,NA,NA,NA,NA,NA,NA,NA,NA,NA,NA,NA,NA,NA,NA,NA,NA,NA,"",NA,NA,NA,NA,NA,NA,NA,NA,NA,2025-11-21 02:32:12
"7579.799999952316","https://psyc-201.github.io/xiang2023/exp/index1.html?PROLIFIC_PID=REDACTED&STUDY_ID=691f8ca61c6b4dcbb0aeb5f4&SESSION_ID=691fc954de7270f3e6b596b1","survey-html-form",21,1165940,"0.0-327.0","Oo4IY41Rt/qn3Fdbwwith7U1KM8K4TT+uh+Uc4JHxLM98ULSJMeWic5sSJBg8MwnwywM2iPBFQBHUOeMcjzSNqx/67bN2ZGbuLRRQktY13o28idpAXRD9vGuH6GAnjgTysIZ9SzQzBv/xcckRPDp0Z3uxTA7IaIqthyMvO508Vvk+8ljma6+ZRZ1Z3pGT9Tgo5HhqvoxP2IJDM3xBYUuiVGGUdRv7xFKYdI1Up1eMvm7YHSnybwFrIK3LCJhNxZugdYJY6Y9iufhkZ/h2Pc2UW+yyumCq443eCBrwLgr8yvmUEWm+57F7grF+VuvUweTj82KVhorkKvIul4Mwe62rg==","691f8ca61c6b4dcbb0aeb5f4","691fc954de7270f3e6b596b1","index1","<span style='color:red'>Fail,<span style='color:red'>Fail,<span style='color:green'>Lift,<span style='color:green'>Lift,<span style='color:red'>Fail,<span style='color:red'>Fail,<span style='color:red'>Fail,<span style='color:red'>Fail,<span style='color:red'>Fail,<span style='color:green'>Lift,<span style='color:green'>Lift,<span style='color:red'>Fail","<span style='color:red'>Fail,<span style='color:red'>Fail,<span style='color:green'>Lift,<span style='color:green'>Lift,<span style='color:green'>Lift,<span style='color:green'>Lift,<span style='color:red'>Fail,<span style='color:green'>Lift,<span style='color:green'>Lift,<span style='color:green'>Lift,<span style='color:green'>Lift,<span style='color:red'>Fail","<span style='color:red'>Fail,<span style='color:green'>Lift,<span style='color:green'>Lift,<span style='color:red'>Fail,<span style='color:green'>Lift,<span style='color:green'>Lift","0,0,1,1,0,0,0,0,0,1,1,0","0,0,1,1,1,1,0,1,1,1,1,0","0,1,1,0,1,1",10,20,20,"","","","","{""box1"":""80"",""box2"":""80""}","",3,"round2_ready",2,3,2,NA,NA,NA,NA,NA,NA,NA,NA,NA,NA,NA,NA,NA,NA,80,80,80,80,NA,NA,NA,NA,NA,NA,NA,NA,NA,NA,NA,NA,NA,NA,NA,NA,NA,NA,"",NA,NA,NA,NA,NA,NA,NA,NA,NA,2025-11-21 02:32:12
"18636.100000023842","https://psyc-201.github.io/xiang2023/exp/index1.html?PROLIFIC_PID=REDACTED&STUDY_ID=691f8ca61c6b4dcbb0aeb5f4&SESSION_ID=691fc954de7270f3e6b596b1","survey-html-form",22,1184579,"0.0-328.0","Oo4IY41Rt/qn3Fdbwwith7U1KM8K4TT+uh+Uc4JHxLM98ULSJMeWic5sSJBg8MwnwywM2iPBFQBHUOeMcjzSNqx/67bN2ZGbuLRRQktY13o28idpAXRD9vGuH6GAnjgTysIZ9SzQzBv/xcckRPDp0Z3uxTA7IaIqthyMvO508Vvk+8ljma6+ZRZ1Z3pGT9Tgo5HhqvoxP2IJDM3xBYUuiVGGUdRv7xFKYdI1Up1eMvm7YHSnybwFrIK3LCJhNxZugdYJY6Y9iufhkZ/h2Pc2UW+yyumCq443eCBrwLgr8yvmUEWm+57F7grF+VuvUweTj82KVhorkKvIul4Mwe62rg==","691f8ca61c6b4dcbb0aeb5f4","691fc954de7270f3e6b596b1","index1","<span style='color:red'>Fail,<span style='color:red'>Fail,<span style='color:green'>Lift,<span style='color:green'>Lift,<span style='color:red'>Fail,<span style='color:red'>Fail,<span style='color:red'>Fail,<span style='color:red'>Fail,<span style='color:red'>Fail,<span style='color:green'>Lift,<span style='color:green'>Lift,<span style='color:red'>Fail","<span style='color:red'>Fail,<span style='color:red'>Fail,<span style='color:green'>Lift,<span style='color:green'>Lift,<span style='color:green'>Lift,<span style='color:green'>Lift,<span style='color:red'>Fail,<span style='color:green'>Lift,<span style='color:green'>Lift,<span style='color:green'>Lift,<span style='color:green'>Lift,<span style='color:red'>Fail","<span style='color:red'>Fail,<span style='color:green'>Lift,<span style='color:green'>Lift,<span style='color:red'>Fail,<span style='color:green'>Lift,<span style='color:green'>Lift","0,0,1,1,0,0,0,0,0,1,1,0","0,0,1,1,1,1,0,1,1,1,1,0","0,1,1,0,1,1",10,20,20,"","","","","{""box1"":""6"",""box2"":""6"",""box3"":""80"",""box4"":""80""}","",3,"round2_outcome",3,3,2,6,6,80,80,1,1,20,NA,NA,NA,NA,NA,NA,NA,NA,NA,NA,NA,6,6,80,80,1,1,20,NA,NA,NA,NA,NA,NA,NA,NA,NA,NA,NA,"",NA,NA,NA,NA,NA,NA,NA,NA,NA,2025-11-21 02:32:12
"7461.799999952316","https://psyc-201.github.io/xiang2023/exp/index1.html?PROLIFIC_PID=REDACTED&STUDY_ID=691f8ca61c6b4dcbb0aeb5f4&SESSION_ID=691fc954de7270f3e6b596b1","survey-html-form",23,1192046,"0.0-329.0","Oo4IY41Rt/qn3Fdbwwith7U1KM8K4TT+uh+Uc4JHxLM98ULSJMeWic5sSJBg8MwnwywM2iPBFQBHUOeMcjzSNqx/67bN2ZGbuLRRQktY13o28idpAXRD9vGuH6GAnjgTysIZ9SzQzBv/xcckRPDp0Z3uxTA7IaIqthyMvO508Vvk+8ljma6+ZRZ1Z3pGT9Tgo5HhqvoxP2IJDM3xBYUuiVGGUdRv7xFKYdI1Up1eMvm7YHSnybwFrIK3LCJhNxZugdYJY6Y9iufhkZ/h2Pc2UW+yyumCq443eCBrwLgr8yvmUEWm+57F7grF+VuvUweTj82KVhorkKvIul4Mwe62rg==","691f8ca61c6b4dcbb0aeb5f4","691fc954de7270f3e6b596b1","index1","<span style='color:red'>Fail,<span style='color:red'>Fail,<span style='color:green'>Lift,<span style='color:green'>Lift,<span style='color:red'>Fail,<span style='color:red'>Fail,<span style='color:red'>Fail,<span style='color:red'>Fail,<span style='color:red'>Fail,<span style='color:green'>Lift,<span style='color:green'>Lift,<span style='color:red'>Fail","<span style='color:red'>Fail,<span style='color:red'>Fail,<span style='color:green'>Lift,<span style='color:green'>Lift,<span style='color:green'>Lift,<span style='color:green'>Lift,<span style='color:red'>Fail,<span style='color:green'>Lift,<span style='color:green'>Lift,<span style='color:green'>Lift,<span style='color:green'>Lift,<span style='color:red'>Fail","<span style='color:red'>Fail,<span style='color:green'>Lift,<span style='color:green'>Lift,<span style='color:red'>Fail,<span style='color:green'>Lift,<span style='color:green'>Lift","0,0,1,1,0,0,0,0,0,1,1,0","0,0,1,1,1,1,0,1,1,1,1,0","0,1,1,0,1,1",10,20,20,"","","","","{""box1"":""98""}","",3,"round3_ready",4,3,3,NA,NA,NA,NA,NA,NA,NA,NA,NA,NA,NA,NA,NA,NA,98,98,NA,NA,NA,NA,NA,NA,NA,NA,NA,98,98,NA,NA,NA,NA,NA,NA,NA,NA,NA,"",NA,NA,NA,NA,NA,NA,NA,NA,NA,2025-11-21 02:32:12
"13740.100000023842","https://psyc-201.github.io/xiang2023/exp/index1.html?PROLIFIC_PID=REDACTED&STUDY_ID=691f8ca61c6b4dcbb0aeb5f4&SESSION_ID=691fc954de7270f3e6b596b1","survey-html-form",24,1205789,"0.0-330.0-0.0","Oo4IY41Rt/qn3Fdbwwith7U1KM8K4TT+uh+Uc4JHxLM98ULSJMeWic5sSJBg8MwnwywM2iPBFQBHUOeMcjzSNqx/67bN2ZGbuLRRQktY13o28idpAXRD9vGuH6GAnjgTysIZ9SzQzBv/xcckRPDp0Z3uxTA7IaIqthyMvO508Vvk+8ljma6+ZRZ1Z3pGT9Tgo5HhqvoxP2IJDM3xBYUuiVGGUdRv7xFKYdI1Up1eMvm7YHSnybwFrIK3LCJhNxZugdYJY6Y9iufhkZ/h2Pc2UW+yyumCq443eCBrwLgr8yvmUEWm+57F7grF+VuvUweTj82KVhorkKvIul4Mwe62rg==","691f8ca61c6b4dcbb0aeb5f4","691fc954de7270f3e6b596b1","index1","<span style='color:red'>Fail,<span style='color:red'>Fail,<span style='color:green'>Lift,<span style='color:green'>Lift,<span style='color:red'>Fail,<span style='color:red'>Fail,<span style='color:red'>Fail,<span style='color:red'>Fail,<span style='color:red'>Fail,<span style='color:green'>Lift,<span style='color:green'>Lift,<span style='color:red'>Fail","<span style='color:red'>Fail,<span style='color:red'>Fail,<span style='color:green'>Lift,<span style='color:green'>Lift,<span style='color:green'>Lift,<span style='color:green'>Lift,<span style='color:red'>Fail,<span style='color:green'>Lift,<span style='color:green'>Lift,<span style='color:green'>Lift,<span style='color:green'>Lift,<span style='color:red'>Fail","<span style='color:red'>Fail,<span style='color:green'>Lift,<span style='color:green'>Lift,<span style='color:red'>Fail,<span style='color:green'>Lift,<span style='color:green'>Lift","0,0,1,1,0,0,0,0,0,1,1,0","0,0,1,1,1,1,0,1,1,1,1,0","0,1,1,0,1,1",10,20,20,"","","","","{""box1"":""6"",""box2"":""6"",""box3"":""50"",""box4"":""50""}","",4,"round3_lift",5,3,3,6,6,50,50,1,1,20,NA,NA,NA,NA,NA,NA,NA,NA,NA,NA,NA,NA,NA,NA,NA,NA,NA,NA,NA,NA,6,6,50,50,1,1,20,NA,NA,"",NA,NA,NA,NA,NA,NA,NA,NA,NA,2025-11-21 02:32:12
"null","https://psyc-201.github.io/xiang2023/exp/index1.html?PROLIFIC_PID=REDACTED&STUDY_ID=691f8ca61c6b4dcbb0aeb5f4&SESSION_ID=691fc954de7270f3e6b596b1","html-keyboard-response",25,1208792,"0.0-334.0","Oo4IY41Rt/qn3Fdbwwith7U1KM8K4TT+uh+Uc4JHxLM98ULSJMeWic5sSJBg8MwnwywM2iPBFQBHUOeMcjzSNqx/67bN2ZGbuLRRQktY13o28idpAXRD9vGuH6GAnjgTysIZ9SzQzBv/xcckRPDp0Z3uxTA7IaIqthyMvO508Vvk+8ljma6+ZRZ1Z3pGT9Tgo5HhqvoxP2IJDM3xBYUuiVGGUdRv7xFKYdI1Up1eMvm7YHSnybwFrIK3LCJhNxZugdYJY6Y9iufhkZ/h2Pc2UW+yyumCq443eCBrwLgr8yvmUEWm+57F7grF+VuvUweTj82KVhorkKvIul4Mwe62rg==","691f8ca61c6b4dcbb0aeb5f4","691fc954de7270f3e6b596b1","index1","<span style='color:red'>Fail,<span style='color:red'>Fail,<span style='color:green'>Lift,<span style='color:green'>Lift,<span style='color:red'>Fail,<span style='color:red'>Fail,<span style='color:red'>Fail,<span style='color:red'>Fail,<span style='color:red'>Fail,<span style='color:green'>Lift,<span style='color:green'>Lift,<span style='color:red'>Fail","<span style='color:red'>Fail,<span style='color:red'>Fail,<span style='color:green'>Lift,<span style='color:green'>Lift,<span style='color:green'>Lift,<span style='color:green'>Lift,<span style='color:red'>Fail,<span style='color:green'>Lift,<span style='color:green'>Lift,<span style='color:green'>Lift,<span style='color:green'>Lift,<span style='color:red'>Fail","<span style='color:red'>Fail,<span style='color:green'>Lift,<span style='color:green'>Lift,<span style='color:red'>Fail,<span style='color:green'>Lift,<span style='color:green'>Lift","0,0,1,1,0,0,0,0,0,1,1,0","0,0,1,1,1,1,0,1,1,1,1,0","0,1,1,0,1,1",10,20,20,"","","<p style='font-size:30px'><b> New Contest! </b></p>","null","","",4,"",NA,NA,NA,NA,NA,NA,NA,NA,NA,NA,NA,NA,NA,NA,NA,NA,NA,NA,NA,NA,NA,NA,NA,NA,NA,NA,NA,NA,NA,NA,NA,NA,NA,NA,NA,NA,NA,NA,NA,"",NA,NA,NA,NA,NA,NA,NA,NA,NA,2025-11-21 02:32:12
"9222.100000023842","https://psyc-201.github.io/xiang2023/exp/index1.html?PROLIFIC_PID=REDACTED&STUDY_ID=691f8ca61c6b4dcbb0aeb5f4&SESSION_ID=691fc954de7270f3e6b596b1","survey-html-form",26,1218016,"0.0-335.0","Oo4IY41Rt/qn3Fdbwwith7U1KM8K4TT+uh+Uc4JHxLM98ULSJMeWic5sSJBg8MwnwywM2iPBFQBHUOeMcjzSNqx/67bN2ZGbuLRRQktY13o28idpAXRD9vGuH6GAnjgTysIZ9SzQzBv/xcckRPDp0Z3uxTA7IaIqthyMvO508Vvk+8ljma6+ZRZ1Z3pGT9Tgo5HhqvoxP2IJDM3xBYUuiVGGUdRv7xFKYdI1Up1eMvm7YHSnybwFrIK3LCJhNxZugdYJY6Y9iufhkZ/h2Pc2UW+yyumCq443eCBrwLgr8yvmUEWm+57F7grF+VuvUweTj82KVhorkKvIul4Mwe62rg==","691f8ca61c6b4dcbb0aeb5f4","691fc954de7270f3e6b596b1","index1","<span style='color:red'>Fail,<span style='color:red'>Fail,<span style='color:green'>Lift,<span style='color:green'>Lift,<span style='color:red'>Fail,<span style='color:red'>Fail,<span style='color:red'>Fail,<span style='color:red'>Fail,<span style='color:red'>Fail,<span style='color:green'>Lift,<span style='color:green'>Lift,<span style='color:red'>Fail","<span style='color:red'>Fail,<span style='color:red'>Fail,<span style='color:green'>Lift,<span style='color:green'>Lift,<span style='color:green'>Lift,<span style='color:green'>Lift,<span style='color:red'>Fail,<span style='color:green'>Lift,<span style='color:green'>Lift,<span style='color:green'>Lift,<span style='color:green'>Lift,<span style='color:red'>Fail","<span style='color:red'>Fail,<span style='color:green'>Lift,<span style='color:green'>Lift,<span style='color:red'>Fail,<span style='color:green'>Lift,<span style='color:green'>Lift","0,0,1,1,0,0,0,0,0,1,1,0","0,0,1,1,1,1,0,1,1,1,1,0","0,1,1,0,1,1",10,20,20,"","","","","{""box1"":""4"",""box2"":""6"",""box4"":""80""}","",4,"round1_outcome",1,4,1,4,6,NA,80,0,1,10,4,6,NA,80,0,1,10,NA,NA,NA,NA,NA,NA,NA,NA,NA,NA,NA,NA,NA,NA,NA,NA,NA,NA,NA,NA,NA,NA,"",NA,NA,NA,NA,NA,NA,NA,NA,NA,2025-11-21 02:32:12
"15674.800000071526","https://psyc-201.github.io/xiang2023/exp/index1.html?PROLIFIC_PID=REDACTED&STUDY_ID=691f8ca61c6b4dcbb0aeb5f4&SESSION_ID=691fc954de7270f3e6b596b1","survey-html-form",27,1233694,"0.0-336.0","Oo4IY41Rt/qn3Fdbwwith7U1KM8K4TT+uh+Uc4JHxLM98ULSJMeWic5sSJBg8MwnwywM2iPBFQBHUOeMcjzSNqx/67bN2ZGbuLRRQktY13o28idpAXRD9vGuH6GAnjgTysIZ9SzQzBv/xcckRPDp0Z3uxTA7IaIqthyMvO508Vvk+8ljma6+ZRZ1Z3pGT9Tgo5HhqvoxP2IJDM3xBYUuiVGGUdRv7xFKYdI1Up1eMvm7YHSnybwFrIK3LCJhNxZugdYJY6Y9iufhkZ/h2Pc2UW+yyumCq443eCBrwLgr8yvmUEWm+57F7grF+VuvUweTj82KVhorkKvIul4Mwe62rg==","691f8ca61c6b4dcbb0aeb5f4","691fc954de7270f3e6b596b1","index1","<span style='color:red'>Fail,<span style='color:red'>Fail,<span style='color:green'>Lift,<span style='color:green'>Lift,<span style='color:red'>Fail,<span style='color:red'>Fail,<span style='color:red'>Fail,<span style='color:red'>Fail,<span style='color:red'>Fail,<span style='color:green'>Lift,<span style='color:green'>Lift,<span style='color:red'>Fail","<span style='color:red'>Fail,<span style='color:red'>Fail,<span style='color:green'>Lift,<span style='color:green'>Lift,<span style='color:green'>Lift,<span style='color:green'>Lift,<span style='color:red'>Fail,<span style='color:green'>Lift,<span style='color:green'>Lift,<span style='color:green'>Lift,<span style='color:green'>Lift,<span style='color:red'>Fail","<span style='color:red'>Fail,<span style='color:green'>Lift,<span style='color:green'>Lift,<span style='color:red'>Fail,<span style='color:green'>Lift,<span style='color:green'>Lift","0,0,1,1,0,0,0,0,0,1,1,0","0,0,1,1,1,1,0,1,1,1,1,0","0,1,1,0,1,1",10,20,20,"","","","","{""box1"":""45"",""box2"":""55""}","",4,"round2_ready",2,4,2,NA,NA,NA,NA,NA,NA,NA,NA,NA,NA,NA,NA,NA,NA,45,55,45,55,NA,NA,NA,NA,NA,NA,NA,NA,NA,NA,NA,NA,NA,NA,NA,NA,NA,NA,"",NA,NA,NA,NA,NA,NA,NA,NA,NA,2025-11-21 02:32:12
"14935.700000047684","https://psyc-201.github.io/xiang2023/exp/index1.html?PROLIFIC_PID=REDACTED&STUDY_ID=691f8ca61c6b4dcbb0aeb5f4&SESSION_ID=691fc954de7270f3e6b596b1","survey-html-form",28,1248632,"0.0-337.0","Oo4IY41Rt/qn3Fdbwwith7U1KM8K4TT+uh+Uc4JHxLM98ULSJMeWic5sSJBg8MwnwywM2iPBFQBHUOeMcjzSNqx/67bN2ZGbuLRRQktY13o28idpAXRD9vGuH6GAnjgTysIZ9SzQzBv/xcckRPDp0Z3uxTA7IaIqthyMvO508Vvk+8ljma6+ZRZ1Z3pGT9Tgo5HhqvoxP2IJDM3xBYUuiVGGUdRv7xFKYdI1Up1eMvm7YHSnybwFrIK3LCJhNxZugdYJY6Y9iufhkZ/h2Pc2UW+yyumCq443eCBrwLgr8yvmUEWm+57F7grF+VuvUweTj82KVhorkKvIul4Mwe62rg==","691f8ca61c6b4dcbb0aeb5f4","691fc954de7270f3e6b596b1","index1","<span style='color:red'>Fail,<span style='color:red'>Fail,<span style='color:green'>Lift,<span style='color:green'>Lift,<span style='color:red'>Fail,<span style='color:red'>Fail,<span style='color:red'>Fail,<span style='color:red'>Fail,<span style='color:red'>Fail,<span style='color:green'>Lift,<span style='color:green'>Lift,<span style='color:red'>Fail","<span style='color:red'>Fail,<span style='color:red'>Fail,<span style='color:green'>Lift,<span style='color:green'>Lift,<span style='color:green'>Lift,<span style='color:green'>Lift,<span style='color:red'>Fail,<span style='color:green'>Lift,<span style='color:green'>Lift,<span style='color:green'>Lift,<span style='color:green'>Lift,<span style='color:red'>Fail","<span style='color:red'>Fail,<span style='color:green'>Lift,<span style='color:green'>Lift,<span style='color:red'>Fail,<span style='color:green'>Lift,<span style='color:green'>Lift","0,0,1,1,0,0,0,0,0,1,1,0","0,0,1,1,1,1,0,1,1,1,1,0","0,1,1,0,1,1",10,20,20,"","","","","{""box1"":""6"",""box2"":""7"",""box3"":""80"",""box4"":""85""}","",4,"round2_outcome",3,4,2,6,7,80,85,1,1,20,NA,NA,NA,NA,NA,NA,NA,NA,NA,NA,NA,6,7,80,85,1,1,20,NA,NA,NA,NA,NA,NA,NA,NA,NA,NA,NA,"",NA,NA,NA,NA,NA,NA,NA,NA,NA,2025-11-21 02:32:12
"5851.600000023842","https://psyc-201.github.io/xiang2023/exp/index1.html?PROLIFIC_PID=REDACTED&STUDY_ID=691f8ca61c6b4dcbb0aeb5f4&SESSION_ID=691fc954de7270f3e6b596b1","survey-html-form",29,1254490,"0.0-338.0","Oo4IY41Rt/qn3Fdbwwith7U1KM8K4TT+uh+Uc4JHxLM98ULSJMeWic5sSJBg8MwnwywM2iPBFQBHUOeMcjzSNqx/67bN2ZGbuLRRQktY13o28idpAXRD9vGuH6GAnjgTysIZ9SzQzBv/xcckRPDp0Z3uxTA7IaIqthyMvO508Vvk+8ljma6+ZRZ1Z3pGT9Tgo5HhqvoxP2IJDM3xBYUuiVGGUdRv7xFKYdI1Up1eMvm7YHSnybwFrIK3LCJhNxZugdYJY6Y9iufhkZ/h2Pc2UW+yyumCq443eCBrwLgr8yvmUEWm+57F7grF+VuvUweTj82KVhorkKvIul4Mwe62rg==","691f8ca61c6b4dcbb0aeb5f4","691fc954de7270f3e6b596b1","index1","<span style='color:red'>Fail,<span style='color:red'>Fail,<span style='color:green'>Lift,<span style='color:green'>Lift,<span style='color:red'>Fail,<span style='color:red'>Fail,<span style='color:red'>Fail,<span style='color:red'>Fail,<span style='color:red'>Fail,<span style='color:green'>Lift,<span style='color:green'>Lift,<span style='color:red'>Fail","<span style='color:red'>Fail,<span style='color:red'>Fail,<span style='color:green'>Lift,<span style='color:green'>Lift,<span style='color:green'>Lift,<span style='color:green'>Lift,<span style='color:red'>Fail,<span style='color:green'>Lift,<span style='color:green'>Lift,<span style='color:green'>Lift,<span style='color:green'>Lift,<span style='color:red'>Fail","<span style='color:red'>Fail,<span style='color:green'>Lift,<span style='color:green'>Lift,<span style='color:red'>Fail,<span style='color:green'>Lift,<span style='color:green'>Lift","0,0,1,1,0,0,0,0,0,1,1,0","0,0,1,1,1,1,0,1,1,1,1,0","0,1,1,0,1,1",10,20,20,"","","","","{""box1"":""90""}","",4,"round3_ready",4,4,3,NA,NA,NA,NA,NA,NA,NA,NA,NA,NA,NA,NA,NA,NA,90,90,NA,NA,NA,NA,NA,NA,NA,NA,NA,90,90,NA,NA,NA,NA,NA,NA,NA,NA,NA,"",NA,NA,NA,NA,NA,NA,NA,NA,NA,2025-11-21 02:32:12
"7526.699999928474","https://psyc-201.github.io/xiang2023/exp/index1.html?PROLIFIC_PID=REDACTED&STUDY_ID=691f8ca61c6b4dcbb0aeb5f4&SESSION_ID=691fc954de7270f3e6b596b1","survey-html-form",30,1262020,"0.0-339.0-0.0","Oo4IY41Rt/qn3Fdbwwith7U1KM8K4TT+uh+Uc4JHxLM98ULSJMeWic5sSJBg8MwnwywM2iPBFQBHUOeMcjzSNqx/67bN2ZGbuLRRQktY13o28idpAXRD9vGuH6GAnjgTysIZ9SzQzBv/xcckRPDp0Z3uxTA7IaIqthyMvO508Vvk+8ljma6+ZRZ1Z3pGT9Tgo5HhqvoxP2IJDM3xBYUuiVGGUdRv7xFKYdI1Up1eMvm7YHSnybwFrIK3LCJhNxZugdYJY6Y9iufhkZ/h2Pc2UW+yyumCq443eCBrwLgr8yvmUEWm+57F7grF+VuvUweTj82KVhorkKvIul4Mwe62rg==","691f8ca61c6b4dcbb0aeb5f4","691fc954de7270f3e6b596b1","index1","<span style='color:red'>Fail,<span style='color:red'>Fail,<span style='color:green'>Lift,<span style='color:green'>Lift,<span style='color:red'>Fail,<span style='color:red'>Fail,<span style='color:red'>Fail,<span style='color:red'>Fail,<span style='color:red'>Fail,<span style='color:green'>Lift,<span style='color:green'>Lift,<span style='color:red'>Fail","<span style='color:red'>Fail,<span style='color:red'>Fail,<span style='color:green'>Lift,<span style='color:green'>Lift,<span style='color:green'>Lift,<span style='color:green'>Lift,<span style='color:red'>Fail,<span style='color:green'>Lift,<span style='color:green'>Lift,<span style='color:green'>Lift,<span style='color:green'>Lift,<span style='color:red'>Fail","<span style='color:red'>Fail,<span style='color:green'>Lift,<span style='color:green'>Lift,<span style='color:red'>Fail,<span style='color:green'>Lift,<span style='color:green'>Lift","0,0,1,1,0,0,0,0,0,1,1,0","0,0,1,1,1,1,0,1,1,1,1,0","0,1,1,0,1,1",10,20,20,"","","","","{""box1"":""6"",""box2"":""7"",""box3"":""50"",""box4"":""50""}","",5,"round3_lift",5,4,3,6,7,50,50,1,1,20,NA,NA,NA,NA,NA,NA,NA,NA,NA,NA,NA,NA,NA,NA,NA,NA,NA,NA,NA,NA,6,7,50,50,1,1,20,NA,NA,"",NA,NA,NA,NA,NA,NA,NA,NA,NA,2025-11-21 02:32:12
"null","https://psyc-201.github.io/xiang2023/exp/index1.html?PROLIFIC_PID=REDACTED&STUDY_ID=691f8ca61c6b4dcbb0aeb5f4&SESSION_ID=691fc954de7270f3e6b596b1","html-keyboard-response",31,1265031,"0.0-343.0","Oo4IY41Rt/qn3Fdbwwith7U1KM8K4TT+uh+Uc4JHxLM98ULSJMeWic5sSJBg8MwnwywM2iPBFQBHUOeMcjzSNqx/67bN2ZGbuLRRQktY13o28idpAXRD9vGuH6GAnjgTysIZ9SzQzBv/xcckRPDp0Z3uxTA7IaIqthyMvO508Vvk+8ljma6+ZRZ1Z3pGT9Tgo5HhqvoxP2IJDM3xBYUuiVGGUdRv7xFKYdI1Up1eMvm7YHSnybwFrIK3LCJhNxZugdYJY6Y9iufhkZ/h2Pc2UW+yyumCq443eCBrwLgr8yvmUEWm+57F7grF+VuvUweTj82KVhorkKvIul4Mwe62rg==","691f8ca61c6b4dcbb0aeb5f4","691fc954de7270f3e6b596b1","index1","<span style='color:red'>Fail,<span style='color:red'>Fail,<span style='color:green'>Lift,<span style='color:green'>Lift,<span style='color:red'>Fail,<span style='color:red'>Fail,<span style='color:red'>Fail,<span style='color:red'>Fail,<span style='color:red'>Fail,<span style='color:green'>Lift,<span style='color:green'>Lift,<span style='color:red'>Fail","<span style='color:red'>Fail,<span style='color:red'>Fail,<span style='color:green'>Lift,<span style='color:green'>Lift,<span style='color:green'>Lift,<span style='color:green'>Lift,<span style='color:red'>Fail,<span style='color:green'>Lift,<span style='color:green'>Lift,<span style='color:green'>Lift,<span style='color:green'>Lift,<span style='color:red'>Fail","<span style='color:red'>Fail,<span style='color:green'>Lift,<span style='color:green'>Lift,<span style='color:red'>Fail,<span style='color:green'>Lift,<span style='color:green'>Lift","0,0,1,1,0,0,0,0,0,1,1,0","0,0,1,1,1,1,0,1,1,1,1,0","0,1,1,0,1,1",10,20,20,"","","<p style='font-size:30px'><b> New Contest! </b></p>","null","","",5,"",NA,NA,NA,NA,NA,NA,NA,NA,NA,NA,NA,NA,NA,NA,NA,NA,NA,NA,NA,NA,NA,NA,NA,NA,NA,NA,NA,NA,NA,NA,NA,NA,NA,NA,NA,NA,NA,NA,NA,"",NA,NA,NA,NA,NA,NA,NA,NA,NA,2025-11-21 02:32:12
"24433.600000023842","https://psyc-201.github.io/xiang2023/exp/index1.html?PROLIFIC_PID=REDACTED&STUDY_ID=691f8ca61c6b4dcbb0aeb5f4&SESSION_ID=691fc954de7270f3e6b596b1","survey-html-form",32,1289467,"0.0-344.0","Oo4IY41Rt/qn3Fdbwwith7U1KM8K4TT+uh+Uc4JHxLM98ULSJMeWic5sSJBg8MwnwywM2iPBFQBHUOeMcjzSNqx/67bN2ZGbuLRRQktY13o28idpAXRD9vGuH6GAnjgTysIZ9SzQzBv/xcckRPDp0Z3uxTA7IaIqthyMvO508Vvk+8ljma6+ZRZ1Z3pGT9Tgo5HhqvoxP2IJDM3xBYUuiVGGUdRv7xFKYdI1Up1eMvm7YHSnybwFrIK3LCJhNxZugdYJY6Y9iufhkZ/h2Pc2UW+yyumCq443eCBrwLgr8yvmUEWm+57F7grF+VuvUweTj82KVhorkKvIul4Mwe62rg==","691f8ca61c6b4dcbb0aeb5f4","691fc954de7270f3e6b596b1","index1","<span style='color:red'>Fail,<span style='color:red'>Fail,<span style='color:green'>Lift,<span style='color:green'>Lift,<span style='color:red'>Fail,<span style='color:red'>Fail,<span style='color:red'>Fail,<span style='color:red'>Fail,<span style='color:red'>Fail,<span style='color:green'>Lift,<span style='color:green'>Lift,<span style='color:red'>Fail","<span style='color:red'>Fail,<span style='color:red'>Fail,<span style='color:green'>Lift,<span style='color:green'>Lift,<span style='color:green'>Lift,<span style='color:green'>Lift,<span style='color:red'>Fail,<span style='color:green'>Lift,<span style='color:green'>Lift,<span style='color:green'>Lift,<span style='color:green'>Lift,<span style='color:red'>Fail","<span style='color:red'>Fail,<span style='color:green'>Lift,<span style='color:green'>Lift,<span style='color:red'>Fail,<span style='color:green'>Lift,<span style='color:green'>Lift","0,0,1,1,0,0,0,0,0,1,1,0","0,0,1,1,1,1,0,1,1,1,1,0","0,1,1,0,1,1",10,20,20,"","","","","{""box1"":""3"",""box2"":""4""}","",5,"round1_outcome",1,5,1,3,4,NA,NA,0,0,10,3,4,NA,NA,0,0,10,NA,NA,NA,NA,NA,NA,NA,NA,NA,NA,NA,NA,NA,NA,NA,NA,NA,NA,NA,NA,NA,NA,"",NA,NA,NA,NA,NA,NA,NA,NA,NA,2025-11-21 02:32:12
"12204.399999976158","https://psyc-201.github.io/xiang2023/exp/index1.html?PROLIFIC_PID=REDACTED&STUDY_ID=691f8ca61c6b4dcbb0aeb5f4&SESSION_ID=691fc954de7270f3e6b596b1","survey-html-form",33,1301674,"0.0-345.0","Oo4IY41Rt/qn3Fdbwwith7U1KM8K4TT+uh+Uc4JHxLM98ULSJMeWic5sSJBg8MwnwywM2iPBFQBHUOeMcjzSNqx/67bN2ZGbuLRRQktY13o28idpAXRD9vGuH6GAnjgTysIZ9SzQzBv/xcckRPDp0Z3uxTA7IaIqthyMvO508Vvk+8ljma6+ZRZ1Z3pGT9Tgo5HhqvoxP2IJDM3xBYUuiVGGUdRv7xFKYdI1Up1eMvm7YHSnybwFrIK3LCJhNxZugdYJY6Y9iufhkZ/h2Pc2UW+yyumCq443eCBrwLgr8yvmUEWm+57F7grF+VuvUweTj82KVhorkKvIul4Mwe62rg==","691f8ca61c6b4dcbb0aeb5f4","691fc954de7270f3e6b596b1","index1","<span style='color:red'>Fail,<span style='color:red'>Fail,<span style='color:green'>Lift,<span style='color:green'>Lift,<span style='color:red'>Fail,<span style='color:red'>Fail,<span style='color:red'>Fail,<span style='color:red'>Fail,<span style='color:red'>Fail,<span style='color:green'>Lift,<span style='color:green'>Lift,<span style='color:red'>Fail","<span style='color:red'>Fail,<span style='color:red'>Fail,<span style='color:green'>Lift,<span style='color:green'>Lift,<span style='color:green'>Lift,<span style='color:green'>Lift,<span style='color:red'>Fail,<span style='color:green'>Lift,<span style='color:green'>Lift,<span style='color:green'>Lift,<span style='color:green'>Lift,<span style='color:red'>Fail","<span style='color:red'>Fail,<span style='color:green'>Lift,<span style='color:green'>Lift,<span style='color:red'>Fail,<span style='color:green'>Lift,<span style='color:green'>Lift","0,0,1,1,0,0,0,0,0,1,1,0","0,0,1,1,1,1,0,1,1,1,1,0","0,1,1,0,1,1",10,20,20,"","","","","{""box1"":""45"",""box2"":""45""}","",5,"round2_ready",2,5,2,NA,NA,NA,NA,NA,NA,NA,NA,NA,NA,NA,NA,NA,NA,45,45,45,45,NA,NA,NA,NA,NA,NA,NA,NA,NA,NA,NA,NA,NA,NA,NA,NA,NA,NA,"",NA,NA,NA,NA,NA,NA,NA,NA,NA,2025-11-21 02:32:12
"8446.5","https://psyc-201.github.io/xiang2023/exp/index1.html?PROLIFIC_PID=REDACTED&STUDY_ID=691f8ca61c6b4dcbb0aeb5f4&SESSION_ID=691fc954de7270f3e6b596b1","survey-html-form",34,1310126,"0.0-346.0","Oo4IY41Rt/qn3Fdbwwith7U1KM8K4TT+uh+Uc4JHxLM98ULSJMeWic5sSJBg8MwnwywM2iPBFQBHUOeMcjzSNqx/67bN2ZGbuLRRQktY13o28idpAXRD9vGuH6GAnjgTysIZ9SzQzBv/xcckRPDp0Z3uxTA7IaIqthyMvO508Vvk+8ljma6+ZRZ1Z3pGT9Tgo5HhqvoxP2IJDM3xBYUuiVGGUdRv7xFKYdI1Up1eMvm7YHSnybwFrIK3LCJhNxZugdYJY6Y9iufhkZ/h2Pc2UW+yyumCq443eCBrwLgr8yvmUEWm+57F7grF+VuvUweTj82KVhorkKvIul4Mwe62rg==","691f8ca61c6b4dcbb0aeb5f4","691fc954de7270f3e6b596b1","index1","<span style='color:red'>Fail,<span style='color:red'>Fail,<span style='color:green'>Lift,<span style='color:green'>Lift,<span style='color:red'>Fail,<span style='color:red'>Fail,<span style='color:red'>Fail,<span style='color:red'>Fail,<span style='color:red'>Fail,<span style='color:green'>Lift,<span style='color:green'>Lift,<span style='color:red'>Fail","<span style='color:red'>Fail,<span style='color:red'>Fail,<span style='color:green'>Lift,<span style='color:green'>Lift,<span style='color:green'>Lift,<span style='color:green'>Lift,<span style='color:red'>Fail,<span style='color:green'>Lift,<span style='color:green'>Lift,<span style='color:green'>Lift,<span style='color:green'>Lift,<span style='color:red'>Fail","<span style='color:red'>Fail,<span style='color:green'>Lift,<span style='color:green'>Lift,<span style='color:red'>Fail,<span style='color:green'>Lift,<span style='color:green'>Lift","0,0,1,1,0,0,0,0,0,1,1,0","0,0,1,1,1,1,0,1,1,1,1,0","0,1,1,0,1,1",10,20,20,"","","","","{""box1"":""4"",""box2"":""6"",""box4"":""85""}","",5,"round2_outcome",3,5,2,4,6,NA,85,0,1,20,NA,NA,NA,NA,NA,NA,NA,NA,NA,NA,NA,4,6,NA,85,0,1,20,NA,NA,NA,NA,NA,NA,NA,NA,NA,NA,NA,"",NA,NA,NA,NA,NA,NA,NA,NA,NA,2025-11-21 02:32:12
"4342.399999976158","https://psyc-201.github.io/xiang2023/exp/index1.html?PROLIFIC_PID=REDACTED&STUDY_ID=691f8ca61c6b4dcbb0aeb5f4&SESSION_ID=691fc954de7270f3e6b596b1","survey-html-form",35,1314471,"0.0-347.0","Oo4IY41Rt/qn3Fdbwwith7U1KM8K4TT+uh+Uc4JHxLM98ULSJMeWic5sSJBg8MwnwywM2iPBFQBHUOeMcjzSNqx/67bN2ZGbuLRRQktY13o28idpAXRD9vGuH6GAnjgTysIZ9SzQzBv/xcckRPDp0Z3uxTA7IaIqthyMvO508Vvk+8ljma6+ZRZ1Z3pGT9Tgo5HhqvoxP2IJDM3xBYUuiVGGUdRv7xFKYdI1Up1eMvm7YHSnybwFrIK3LCJhNxZugdYJY6Y9iufhkZ/h2Pc2UW+yyumCq443eCBrwLgr8yvmUEWm+57F7grF+VuvUweTj82KVhorkKvIul4Mwe62rg==","691f8ca61c6b4dcbb0aeb5f4","691fc954de7270f3e6b596b1","index1","<span style='color:red'>Fail,<span style='color:red'>Fail,<span style='color:green'>Lift,<span style='color:green'>Lift,<span style='color:red'>Fail,<span style='color:red'>Fail,<span style='color:red'>Fail,<span style='color:red'>Fail,<span style='color:red'>Fail,<span style='color:green'>Lift,<span style='color:green'>Lift,<span style='color:red'>Fail","<span style='color:red'>Fail,<span style='color:red'>Fail,<span style='color:green'>Lift,<span style='color:green'>Lift,<span style='color:green'>Lift,<span style='color:green'>Lift,<span style='color:red'>Fail,<span style='color:green'>Lift,<span style='color:green'>Lift,<span style='color:green'>Lift,<span style='color:green'>Lift,<span style='color:red'>Fail","<span style='color:red'>Fail,<span style='color:green'>Lift,<span style='color:green'>Lift,<span style='color:red'>Fail,<span style='color:green'>Lift,<span style='color:green'>Lift","0,0,1,1,0,0,0,0,0,1,1,0","0,0,1,1,1,1,0,1,1,1,1,0","0,1,1,0,1,1",10,20,20,"","","","","{""box1"":""75""}","",5,"round3_ready",4,5,3,NA,NA,NA,NA,NA,NA,NA,NA,NA,NA,NA,NA,NA,NA,75,75,NA,NA,NA,NA,NA,NA,NA,NA,NA,75,75,NA,NA,NA,NA,NA,NA,NA,NA,NA,"",NA,NA,NA,NA,NA,NA,NA,NA,NA,2025-11-21 02:32:12
"9893.100000023842","https://psyc-201.github.io/xiang2023/exp/index1.html?PROLIFIC_PID=REDACTED&STUDY_ID=691f8ca61c6b4dcbb0aeb5f4&SESSION_ID=691fc954de7270f3e6b596b1","survey-html-form",36,1324368,"0.0-349.0-0.0","Oo4IY41Rt/qn3Fdbwwith7U1KM8K4TT+uh+Uc4JHxLM98ULSJMeWic5sSJBg8MwnwywM2iPBFQBHUOeMcjzSNqx/67bN2ZGbuLRRQktY13o28idpAXRD9vGuH6GAnjgTysIZ9SzQzBv/xcckRPDp0Z3uxTA7IaIqthyMvO508Vvk+8ljma6+ZRZ1Z3pGT9Tgo5HhqvoxP2IJDM3xBYUuiVGGUdRv7xFKYdI1Up1eMvm7YHSnybwFrIK3LCJhNxZugdYJY6Y9iufhkZ/h2Pc2UW+yyumCq443eCBrwLgr8yvmUEWm+57F7grF+VuvUweTj82KVhorkKvIul4Mwe62rg==","691f8ca61c6b4dcbb0aeb5f4","691fc954de7270f3e6b596b1","index1","<span style='color:red'>Fail,<span style='color:red'>Fail,<span style='color:green'>Lift,<span style='color:green'>Lift,<span style='color:red'>Fail,<span style='color:red'>Fail,<span style='color:red'>Fail,<span style='color:red'>Fail,<span style='color:red'>Fail,<span style='color:green'>Lift,<span style='color:green'>Lift,<span style='color:red'>Fail","<span style='color:red'>Fail,<span style='color:red'>Fail,<span style='color:green'>Lift,<span style='color:green'>Lift,<span style='color:green'>Lift,<span style='color:green'>Lift,<span style='color:red'>Fail,<span style='color:green'>Lift,<span style='color:green'>Lift,<span style='color:green'>Lift,<span style='color:green'>Lift,<span style='color:red'>Fail","<span style='color:red'>Fail,<span style='color:green'>Lift,<span style='color:green'>Lift,<span style='color:red'>Fail,<span style='color:green'>Lift,<span style='color:green'>Lift","0,0,1,1,0,0,0,0,0,1,1,0","0,0,1,1,1,1,0,1,1,1,1,0","0,1,1,0,1,1",10,20,20,"","","","","{""box1"":""4"",""box2"":""5"",""box3"":""999"",""box4"":""999""}","",6,"round3_fail",5,5,3,4,5,NA,NA,0,0,20,NA,NA,NA,NA,NA,NA,NA,NA,NA,NA,NA,NA,NA,NA,NA,NA,NA,NA,NA,NA,4,5,NA,NA,0,0,20,1,1,"",NA,NA,NA,NA,NA,NA,NA,NA,NA,2025-11-21 02:32:12
"null","https://psyc-201.github.io/xiang2023/exp/index1.html?PROLIFIC_PID=REDACTED&STUDY_ID=691f8ca61c6b4dcbb0aeb5f4&SESSION_ID=691fc954de7270f3e6b596b1","html-keyboard-response",37,1327373,"0.0-352.0","Oo4IY41Rt/qn3Fdbwwith7U1KM8K4TT+uh+Uc4JHxLM98ULSJMeWic5sSJBg8MwnwywM2iPBFQBHUOeMcjzSNqx/67bN2ZGbuLRRQktY13o28idpAXRD9vGuH6GAnjgTysIZ9SzQzBv/xcckRPDp0Z3uxTA7IaIqthyMvO508Vvk+8ljma6+ZRZ1Z3pGT9Tgo5HhqvoxP2IJDM3xBYUuiVGGUdRv7xFKYdI1Up1eMvm7YHSnybwFrIK3LCJhNxZugdYJY6Y9iufhkZ/h2Pc2UW+yyumCq443eCBrwLgr8yvmUEWm+57F7grF+VuvUweTj82KVhorkKvIul4Mwe62rg==","691f8ca61c6b4dcbb0aeb5f4","691fc954de7270f3e6b596b1","index1","<span style='color:red'>Fail,<span style='color:red'>Fail,<span style='color:green'>Lift,<span style='color:green'>Lift,<span style='color:red'>Fail,<span style='color:red'>Fail,<span style='color:red'>Fail,<span style='color:red'>Fail,<span style='color:red'>Fail,<span style='color:green'>Lift,<span style='color:green'>Lift,<span style='color:red'>Fail","<span style='color:red'>Fail,<span style='color:red'>Fail,<span style='color:green'>Lift,<span style='color:green'>Lift,<span style='color:green'>Lift,<span style='color:green'>Lift,<span style='color:red'>Fail,<span style='color:green'>Lift,<span style='color:green'>Lift,<span style='color:green'>Lift,<span style='color:green'>Lift,<span style='color:red'>Fail","<span style='color:red'>Fail,<span style='color:green'>Lift,<span style='color:green'>Lift,<span style='color:red'>Fail,<span style='color:green'>Lift,<span style='color:green'>Lift","0,0,1,1,0,0,0,0,0,1,1,0","0,0,1,1,1,1,0,1,1,1,1,0","0,1,1,0,1,1",10,20,20,"","","<p style='font-size:30px'><b> New Contest! </b></p>","null","","",6,"",NA,NA,NA,NA,NA,NA,NA,NA,NA,NA,NA,NA,NA,NA,NA,NA,NA,NA,NA,NA,NA,NA,NA,NA,NA,NA,NA,NA,NA,NA,NA,NA,NA,NA,NA,NA,NA,NA,NA,"",NA,NA,NA,NA,NA,NA,NA,NA,NA,2025-11-21 02:32:12
"27005.600000023842","https://psyc-201.github.io/xiang2023/exp/index1.html?PROLIFIC_PID=REDACTED&STUDY_ID=691f8ca61c6b4dcbb0aeb5f4&SESSION_ID=691fc954de7270f3e6b596b1","survey-html-form",38,1354382,"0.0-353.0","Oo4IY41Rt/qn3Fdbwwith7U1KM8K4TT+uh+Uc4JHxLM98ULSJMeWic5sSJBg8MwnwywM2iPBFQBHUOeMcjzSNqx/67bN2ZGbuLRRQktY13o28idpAXRD9vGuH6GAnjgTysIZ9SzQzBv/xcckRPDp0Z3uxTA7IaIqthyMvO508Vvk+8ljma6+ZRZ1Z3pGT9Tgo5HhqvoxP2IJDM3xBYUuiVGGUdRv7xFKYdI1Up1eMvm7YHSnybwFrIK3LCJhNxZugdYJY6Y9iufhkZ/h2Pc2UW+yyumCq443eCBrwLgr8yvmUEWm+57F7grF+VuvUweTj82KVhorkKvIul4Mwe62rg==","691f8ca61c6b4dcbb0aeb5f4","691fc954de7270f3e6b596b1","index1","<span style='color:red'>Fail,<span style='color:red'>Fail,<span style='color:green'>Lift,<span style='color:green'>Lift,<span style='color:red'>Fail,<span style='color:red'>Fail,<span style='color:red'>Fail,<span style='color:red'>Fail,<span style='color:red'>Fail,<span style='color:green'>Lift,<span style='color:green'>Lift,<span style='color:red'>Fail","<span style='color:red'>Fail,<span style='color:red'>Fail,<span style='color:green'>Lift,<span style='color:green'>Lift,<span style='color:green'>Lift,<span style='color:green'>Lift,<span style='color:red'>Fail,<span style='color:green'>Lift,<span style='color:green'>Lift,<span style='color:green'>Lift,<span style='color:green'>Lift,<span style='color:red'>Fail","<span style='color:red'>Fail,<span style='color:green'>Lift,<span style='color:green'>Lift,<span style='color:red'>Fail,<span style='color:green'>Lift,<span style='color:green'>Lift","0,0,1,1,0,0,0,0,0,1,1,0","0,0,1,1,1,1,0,1,1,1,1,0","0,1,1,0,1,1",10,20,20,"","","","","{""box1"":""3"",""box2"":""2""}","",6,"round1_outcome",1,6,1,3,2,NA,NA,0,0,10,3,2,NA,NA,0,0,10,NA,NA,NA,NA,NA,NA,NA,NA,NA,NA,NA,NA,NA,NA,NA,NA,NA,NA,NA,NA,NA,NA,"",NA,NA,NA,NA,NA,NA,NA,NA,NA,2025-11-21 02:32:12
"13922","https://psyc-201.github.io/xiang2023/exp/index1.html?PROLIFIC_PID=REDACTED&STUDY_ID=691f8ca61c6b4dcbb0aeb5f4&SESSION_ID=691fc954de7270f3e6b596b1","survey-html-form",39,1368308,"0.0-354.0","Oo4IY41Rt/qn3Fdbwwith7U1KM8K4TT+uh+Uc4JHxLM98ULSJMeWic5sSJBg8MwnwywM2iPBFQBHUOeMcjzSNqx/67bN2ZGbuLRRQktY13o28idpAXRD9vGuH6GAnjgTysIZ9SzQzBv/xcckRPDp0Z3uxTA7IaIqthyMvO508Vvk+8ljma6+ZRZ1Z3pGT9Tgo5HhqvoxP2IJDM3xBYUuiVGGUdRv7xFKYdI1Up1eMvm7YHSnybwFrIK3LCJhNxZugdYJY6Y9iufhkZ/h2Pc2UW+yyumCq443eCBrwLgr8yvmUEWm+57F7grF+VuvUweTj82KVhorkKvIul4Mwe62rg==","691f8ca61c6b4dcbb0aeb5f4","691fc954de7270f3e6b596b1","index1","<span style='color:red'>Fail,<span style='color:red'>Fail,<span style='color:green'>Lift,<span style='color:green'>Lift,<span style='color:red'>Fail,<span style='color:red'>Fail,<span style='color:red'>Fail,<span style='color:red'>Fail,<span style='color:red'>Fail,<span style='color:green'>Lift,<span style='color:green'>Lift,<span style='color:red'>Fail","<span style='color:red'>Fail,<span style='color:red'>Fail,<span style='color:green'>Lift,<span style='color:green'>Lift,<span style='color:green'>Lift,<span style='color:green'>Lift,<span style='color:red'>Fail,<span style='color:green'>Lift,<span style='color:green'>Lift,<span style='color:green'>Lift,<span style='color:green'>Lift,<span style='color:red'>Fail","<span style='color:red'>Fail,<span style='color:green'>Lift,<span style='color:green'>Lift,<span style='color:red'>Fail,<span style='color:green'>Lift,<span style='color:green'>Lift","0,0,1,1,0,0,0,0,0,1,1,0","0,0,1,1,1,1,0,1,1,1,1,0","0,1,1,0,1,1",10,20,20,"","","","","{""box1"":""40"",""box2"":""35""}","",6,"round2_ready",2,6,2,NA,NA,NA,NA,NA,NA,NA,NA,NA,NA,NA,NA,NA,NA,40,35,40,35,NA,NA,NA,NA,NA,NA,NA,NA,NA,NA,NA,NA,NA,NA,NA,NA,NA,NA,"",NA,NA,NA,NA,NA,NA,NA,NA,NA,2025-11-21 02:32:12
"9383.399999976158","https://psyc-201.github.io/xiang2023/exp/index1.html?PROLIFIC_PID=REDACTED&STUDY_ID=691f8ca61c6b4dcbb0aeb5f4&SESSION_ID=691fc954de7270f3e6b596b1","survey-html-form",40,1377697,"0.0-355.0","Oo4IY41Rt/qn3Fdbwwith7U1KM8K4TT+uh+Uc4JHxLM98ULSJMeWic5sSJBg8MwnwywM2iPBFQBHUOeMcjzSNqx/67bN2ZGbuLRRQktY13o28idpAXRD9vGuH6GAnjgTysIZ9SzQzBv/xcckRPDp0Z3uxTA7IaIqthyMvO508Vvk+8ljma6+ZRZ1Z3pGT9Tgo5HhqvoxP2IJDM3xBYUuiVGGUdRv7xFKYdI1Up1eMvm7YHSnybwFrIK3LCJhNxZugdYJY6Y9iufhkZ/h2Pc2UW+yyumCq443eCBrwLgr8yvmUEWm+57F7grF+VuvUweTj82KVhorkKvIul4Mwe62rg==","691f8ca61c6b4dcbb0aeb5f4","691fc954de7270f3e6b596b1","index1","<span style='color:red'>Fail,<span style='color:red'>Fail,<span style='color:green'>Lift,<span style='color:green'>Lift,<span style='color:red'>Fail,<span style='color:red'>Fail,<span style='color:red'>Fail,<span style='color:red'>Fail,<span style='color:red'>Fail,<span style='color:green'>Lift,<span style='color:green'>Lift,<span style='color:red'>Fail","<span style='color:red'>Fail,<span style='color:red'>Fail,<span style='color:green'>Lift,<span style='color:green'>Lift,<span style='color:green'>Lift,<span style='color:green'>Lift,<span style='color:red'>Fail,<span style='color:green'>Lift,<span style='color:green'>Lift,<span style='color:green'>Lift,<span style='color:green'>Lift,<span style='color:red'>Fail","<span style='color:red'>Fail,<span style='color:green'>Lift,<span style='color:green'>Lift,<span style='color:red'>Fail,<span style='color:green'>Lift,<span style='color:green'>Lift","0,0,1,1,0,0,0,0,0,1,1,0","0,0,1,1,1,1,0,1,1,1,1,0","0,1,1,0,1,1",10,20,20,"","","","","{""box1"":""6"",""box2"":""6"",""box3"":""85"",""box4"":""85""}","",6,"round2_outcome",3,6,2,6,6,85,85,1,1,20,NA,NA,NA,NA,NA,NA,NA,NA,NA,NA,NA,6,6,85,85,1,1,20,NA,NA,NA,NA,NA,NA,NA,NA,NA,NA,NA,"",NA,NA,NA,NA,NA,NA,NA,NA,NA,2025-11-21 02:32:12
"4718.199999928474","https://psyc-201.github.io/xiang2023/exp/index1.html?PROLIFIC_PID=REDACTED&STUDY_ID=691f8ca61c6b4dcbb0aeb5f4&SESSION_ID=691fc954de7270f3e6b596b1","survey-html-form",41,1382418,"0.0-356.0","Oo4IY41Rt/qn3Fdbwwith7U1KM8K4TT+uh+Uc4JHxLM98ULSJMeWic5sSJBg8MwnwywM2iPBFQBHUOeMcjzSNqx/67bN2ZGbuLRRQktY13o28idpAXRD9vGuH6GAnjgTysIZ9SzQzBv/xcckRPDp0Z3uxTA7IaIqthyMvO508Vvk+8ljma6+ZRZ1Z3pGT9Tgo5HhqvoxP2IJDM3xBYUuiVGGUdRv7xFKYdI1Up1eMvm7YHSnybwFrIK3LCJhNxZugdYJY6Y9iufhkZ/h2Pc2UW+yyumCq443eCBrwLgr8yvmUEWm+57F7grF+VuvUweTj82KVhorkKvIul4Mwe62rg==","691f8ca61c6b4dcbb0aeb5f4","691fc954de7270f3e6b596b1","index1","<span style='color:red'>Fail,<span style='color:red'>Fail,<span style='color:green'>Lift,<span style='color:green'>Lift,<span style='color:red'>Fail,<span style='color:red'>Fail,<span style='color:red'>Fail,<span style='color:red'>Fail,<span style='color:red'>Fail,<span style='color:green'>Lift,<span style='color:green'>Lift,<span style='color:red'>Fail","<span style='color:red'>Fail,<span style='color:red'>Fail,<span style='color:green'>Lift,<span style='color:green'>Lift,<span style='color:green'>Lift,<span style='color:green'>Lift,<span style='color:red'>Fail,<span style='color:green'>Lift,<span style='color:green'>Lift,<span style='color:green'>Lift,<span style='color:green'>Lift,<span style='color:red'>Fail","<span style='color:red'>Fail,<span style='color:green'>Lift,<span style='color:green'>Lift,<span style='color:red'>Fail,<span style='color:green'>Lift,<span style='color:green'>Lift","0,0,1,1,0,0,0,0,0,1,1,0","0,0,1,1,1,1,0,1,1,1,1,0","0,1,1,0,1,1",10,20,20,"","","","","{""box1"":""90""}","",6,"round3_ready",4,6,3,NA,NA,NA,NA,NA,NA,NA,NA,NA,NA,NA,NA,NA,NA,90,90,NA,NA,NA,NA,NA,NA,NA,NA,NA,90,90,NA,NA,NA,NA,NA,NA,NA,NA,NA,"",NA,NA,NA,NA,NA,NA,NA,NA,NA,2025-11-21 02:32:12
"6500.5","https://psyc-201.github.io/xiang2023/exp/index1.html?PROLIFIC_PID=REDACTED&STUDY_ID=691f8ca61c6b4dcbb0aeb5f4&SESSION_ID=691fc954de7270f3e6b596b1","survey-html-form",42,1388921,"0.0-357.0-0.0","Oo4IY41Rt/qn3Fdbwwith7U1KM8K4TT+uh+Uc4JHxLM98ULSJMeWic5sSJBg8MwnwywM2iPBFQBHUOeMcjzSNqx/67bN2ZGbuLRRQktY13o28idpAXRD9vGuH6GAnjgTysIZ9SzQzBv/xcckRPDp0Z3uxTA7IaIqthyMvO508Vvk+8ljma6+ZRZ1Z3pGT9Tgo5HhqvoxP2IJDM3xBYUuiVGGUdRv7xFKYdI1Up1eMvm7YHSnybwFrIK3LCJhNxZugdYJY6Y9iufhkZ/h2Pc2UW+yyumCq443eCBrwLgr8yvmUEWm+57F7grF+VuvUweTj82KVhorkKvIul4Mwe62rg==","691f8ca61c6b4dcbb0aeb5f4","691fc954de7270f3e6b596b1","index1","<span style='color:red'>Fail,<span style='color:red'>Fail,<span style='color:green'>Lift,<span style='color:green'>Lift,<span style='color:red'>Fail,<span style='color:red'>Fail,<span style='color:red'>Fail,<span style='color:red'>Fail,<span style='color:red'>Fail,<span style='color:green'>Lift,<span style='color:green'>Lift,<span style='color:red'>Fail","<span style='color:red'>Fail,<span style='color:red'>Fail,<span style='color:green'>Lift,<span style='color:green'>Lift,<span style='color:green'>Lift,<span style='color:green'>Lift,<span style='color:red'>Fail,<span style='color:green'>Lift,<span style='color:green'>Lift,<span style='color:green'>Lift,<span style='color:green'>Lift,<span style='color:red'>Fail","<span style='color:red'>Fail,<span style='color:green'>Lift,<span style='color:green'>Lift,<span style='color:red'>Fail,<span style='color:green'>Lift,<span style='color:green'>Lift","0,0,1,1,0,0,0,0,0,1,1,0","0,0,1,1,1,1,0,1,1,1,1,0","0,1,1,0,1,1",10,20,20,"","","","","{""box1"":""6"",""box2"":""6"",""box3"":""50"",""box4"":""50""}","",6,"round3_lift",5,6,3,6,6,50,50,1,1,20,NA,NA,NA,NA,NA,NA,NA,NA,NA,NA,NA,NA,NA,NA,NA,NA,NA,NA,NA,NA,6,6,50,50,1,1,20,NA,NA,"",NA,NA,NA,NA,NA,NA,NA,NA,NA,2025-11-21 02:32:12
"83219.70000004768","https://psyc-201.github.io/xiang2023/exp/index1.html?PROLIFIC_PID=REDACTED&STUDY_ID=691f8ca61c6b4dcbb0aeb5f4&SESSION_ID=691fc954de7270f3e6b596b1","survey-text",43,1472150,"0.0-361.0","Oo4IY41Rt/qn3Fdbwwith7U1KM8K4TT+uh+Uc4JHxLM98ULSJMeWic5sSJBg8MwnwywM2iPBFQBHUOeMcjzSNqx/67bN2ZGbuLRRQktY13o28idpAXRD9vGuH6GAnjgTysIZ9SzQzBv/xcckRPDp0Z3uxTA7IaIqthyMvO508Vvk+8ljma6+ZRZ1Z3pGT9Tgo5HhqvoxP2IJDM3xBYUuiVGGUdRv7xFKYdI1Up1eMvm7YHSnybwFrIK3LCJhNxZugdYJY6Y9iufhkZ/h2Pc2UW+yyumCq443eCBrwLgr8yvmUEWm+57F7grF+VuvUweTj82KVhorkKvIul4Mwe62rg==","691f8ca61c6b4dcbb0aeb5f4","691fc954de7270f3e6b596b1","index1","<span style='color:red'>Fail,<span style='color:red'>Fail,<span style='color:green'>Lift,<span style='color:green'>Lift,<span style='color:red'>Fail,<span style='color:red'>Fail,<span style='color:red'>Fail,<span style='color:red'>Fail,<span style='color:red'>Fail,<span style='color:green'>Lift,<span style='color:green'>Lift,<span style='color:red'>Fail","<span style='color:red'>Fail,<span style='color:red'>Fail,<span style='color:green'>Lift,<span style='color:green'>Lift,<span style='color:green'>Lift,<span style='color:green'>Lift,<span style='color:red'>Fail,<span style='color:green'>Lift,<span style='color:green'>Lift,<span style='color:green'>Lift,<span style='color:green'>Lift,<span style='color:red'>Fail","<span style='color:red'>Fail,<span style='color:green'>Lift,<span style='color:green'>Lift,<span style='color:red'>Fail,<span style='color:green'>Lift,<span style='color:green'>Lift","0,0,1,1,0,0,0,0,0,1,1,0","0,0,1,1,1,1,0,1,1,1,1,0","0,1,1,0,1,1",10,20,20,"","","","","{""Q0"":""I have been estimating strength and motivation of contestants and applying percentages to their likelihood of lifting the box and applying a number from 1-10 for their strength.""}","",NA,"",NA,NA,NA,NA,NA,NA,NA,NA,NA,NA,NA,NA,NA,NA,NA,NA,NA,NA,NA,NA,NA,NA,NA,NA,NA,NA,NA,NA,NA,NA,NA,NA,NA,NA,NA,NA,NA,NA,NA,"",NA,NA,NA,NA,NA,NA,NA,NA,NA,2025-11-21 02:32:12
"4018.100000023842","https://psyc-201.github.io/xiang2023/exp/index1.html?PROLIFIC_PID=REDACTED&STUDY_ID=691f8ca61c6b4dcbb0aeb5f4&SESSION_ID=691fc954de7270f3e6b596b1","survey-text",44,1476172,"0.0-362.0","Oo4IY41Rt/qn3Fdbwwith7U1KM8K4TT+uh+Uc4JHxLM98ULSJMeWic5sSJBg8MwnwywM2iPBFQBHUOeMcjzSNqx/67bN2ZGbuLRRQktY13o28idpAXRD9vGuH6GAnjgTysIZ9SzQzBv/xcckRPDp0Z3uxTA7IaIqthyMvO508Vvk+8ljma6+ZRZ1Z3pGT9Tgo5HhqvoxP2IJDM3xBYUuiVGGUdRv7xFKYdI1Up1eMvm7YHSnybwFrIK3LCJhNxZugdYJY6Y9iufhkZ/h2Pc2UW+yyumCq443eCBrwLgr8yvmUEWm+57F7grF+VuvUweTj82KVhorkKvIul4Mwe62rg==","691f8ca61c6b4dcbb0aeb5f4","691fc954de7270f3e6b596b1","index1","<span style='color:red'>Fail,<span style='color:red'>Fail,<span style='color:green'>Lift,<span style='color:green'>Lift,<span style='color:red'>Fail,<span style='color:red'>Fail,<span style='color:red'>Fail,<span style='color:red'>Fail,<span style='color:red'>Fail,<span style='color:green'>Lift,<span style='color:green'>Lift,<span style='color:red'>Fail","<span style='color:red'>Fail,<span style='color:red'>Fail,<span style='color:green'>Lift,<span style='color:green'>Lift,<span style='color:green'>Lift,<span style='color:green'>Lift,<span style='color:red'>Fail,<span style='color:green'>Lift,<span style='color:green'>Lift,<span style='color:green'>Lift,<span style='color:green'>Lift,<span style='color:red'>Fail","<span style='color:red'>Fail,<span style='color:green'>Lift,<span style='color:green'>Lift,<span style='color:red'>Fail,<span style='color:green'>Lift,<span style='color:green'>Lift","0,0,1,1,0,0,0,0,0,1,1,0","0,0,1,1,1,1,0,1,1,1,1,0","0,1,1,0,1,1",10,20,20,"","","","","{""Q0"":""""}","",NA,"",NA,NA,NA,NA,NA,NA,NA,NA,NA,NA,NA,NA,NA,NA,NA,NA,NA,NA,NA,NA,NA,NA,NA,NA,NA,NA,NA,NA,NA,NA,NA,NA,NA,NA,NA,NA,NA,NA,NA,"[{""event"":""fullscreenenter"",""trial"":1,""time"":9275},{""event"":""fullscreenexit"",""trial"":2,""time"":10741},{""event"":""blur"",""trial"":2,""time"":14718},{""event"":""focus"",""trial"":2,""time"":175042},{""event"":""blur"",""trial"":2,""time"":194412},{""event"":""focus"",""trial"":2,""time"":201376},{""event"":""blur"",""trial"":2,""time"":209380},{""event"":""focus"",""trial"":2,""time"":212036},{""event"":""blur"",""trial"":2,""time"":212684},{""event"":""focus"",""trial"":2,""time"":220295},{""event"":""blur"",""trial"":2,""time"":224674},{""event"":""focus"",""trial"":2,""time"":227447},{""event"":""blur"",""trial"":2,""time"":250817},{""event"":""focus"",""trial"":2,""time"":253547},{""event"":""blur"",""trial"":2,""time"":259649},{""event"":""focus"",""trial"":2,""time"":262663},{""event"":""blur"",""trial"":2,""time"":263238},{""event"":""focus"",""trial"":2,""time"":327685},{""event"":""blur"",""trial"":2,""time"":329528},{""event"":""focus"",""trial"":2,""time"":336040},{""event"":""blur"",""trial"":2,""time"":340695},{""event"":""focus"",""trial"":2,""time"":341786},{""event"":""blur"",""trial"":2,""time"":344359},{""event"":""focus"",""trial"":2,""time"":346292},{""event"":""blur"",""trial"":2,""time"":346777},{""event"":""focus"",""trial"":2,""time"":349389},{""event"":""blur"",""trial"":2,""time"":385030},{""event"":""focus"",""trial"":2,""time"":389441},{""event"":""blur"",""trial"":2,""time"":393685},{""event"":""focus"",""trial"":2,""time"":395492},{""event"":""blur"",""trial"":2,""time"":415733},{""event"":""focus"",""trial"":2,""time"":417577},{""event"":""blur"",""trial"":2,""time"":418203},{""event"":""focus"",""trial"":2,""time"":450277},{""event"":""blur"",""trial"":2,""time"":451234},{""event"":""focus"",""trial"":2,""time"":455603},{""event"":""blur"",""trial"":2,""time"":457390},{""event"":""focus"",""trial"":2,""time"":491814},{""event"":""blur"",""trial"":4,""time"":496449},{""event"":""focus"",""trial"":4,""time"":504949},{""event"":""blur"",""trial"":4,""time"":507259},{""event"":""focus"",""trial"":4,""time"":509504},{""event"":""blur"",""trial"":4,""time"":511480},{""event"":""focus"",""trial"":4,""time"":512889},{""event"":""blur"",""trial"":4,""time"":515612},{""event"":""focus"",""trial"":4,""time"":518152},{""event"":""blur"",""trial"":4,""time"":521526},{""event"":""focus"",""trial"":4,""time"":523606},{""event"":""blur"",""trial"":4,""time"":526597},{""event"":""focus"",""trial"":4,""time"":534132},{""event"":""blur"",""trial"":8,""time"":560727},{""event"":""focus"",""trial"":8,""time"":563333},{""event"":""blur"",""trial"":8,""time"":575124},{""event"":""focus"",""trial"":8,""time"":618763},{""event"":""blur"",""trial"":8,""time"":620114},{""event"":""focus"",""trial"":8,""time"":652019},{""event"":""blur"",""trial"":8,""time"":677002},{""event"":""focus"",""trial"":8,""time"":692921},{""event"":""blur"",""trial"":8,""time"":697551},{""event"":""focus"",""trial"":8,""time"":699578},{""event"":""blur"",""trial"":9,""time"":717164},{""event"":""focus"",""trial"":9,""time"":719829},{""event"":""blur"",""trial"":9,""time"":720171},{""event"":""focus"",""trial"":9,""time"":742109},{""event"":""blur"",""trial"":9,""time"":743847},{""event"":""focus"",""trial"":9,""time"":791517},{""event"":""blur"",""trial"":9,""time"":809582},{""event"":""focus"",""trial"":9,""time"":821274},{""event"":""blur"",""trial"":10,""time"":848855},{""event"":""focus"",""trial"":10,""time"":861678},{""event"":""blur"",""trial"":10,""time"":863386},{""event"":""focus"",""trial"":10,""time"":869570},{""event"":""blur"",""trial"":10,""time"":876299},{""event"":""focus"",""trial"":10,""time"":879200},{""event"":""blur"",""trial"":10,""time"":880055},{""event"":""focus"",""trial"":10,""time"":945110},{""event"":""blur"",""trial"":11,""time"":961927},{""event"":""focus"",""trial"":11,""time"":968772},{""event"":""blur"",""trial"":12,""time"":974765},{""event"":""focus"",""trial"":12,""time"":986647},{""event"":""blur"",""trial"":12,""time"":1013367},{""event"":""focus"",""trial"":12,""time"":1015312},{""event"":""blur"",""trial"":12,""time"":1016044},{""event"":""focus"",""trial"":12,""time"":1020710},{""event"":""blur"",""trial"":12,""time"":1020715},{""event"":""focus"",""trial"":12,""time"":1068576},{""event"":""blur"",""trial"":12,""time"":1070632},{""event"":""focus"",""trial"":12,""time"":1071698},{""event"":""blur"",""trial"":12,""time"":1073704},{""event"":""focus"",""trial"":12,""time"":1083606},{""event"":""blur"",""trial"":32,""time"":1268109},{""event"":""focus"",""trial"":32,""time"":1283126},{""event"":""blur"",""trial"":43,""time"":1395804},{""event"":""focus"",""trial"":43,""time"":1401855},{""event"":""blur"",""trial"":43,""time"":1411589},{""event"":""focus"",""trial"":43,""time"":1413545}]",3,2,1,80,1,0.8,NA,NA,NA,2025-11-21 02:32:12
"7901.800000071526","https://psyc-201.github.io/xiang2023/exp/index1.html?PROLIFIC_PID=REDACTED&STUDY_ID=691f8ca61c6b4dcbb0aeb5f4&SESSION_ID=691fc954de7270f3e6b596b1","html-button-response",45,1484076,"0.0-363.0","Oo4IY41Rt/qn3Fdbwwith7U1KM8K4TT+uh+Uc4JHxLM98ULSJMeWic5sSJBg8MwnwywM2iPBFQBHUOeMcjzSNqx/67bN2ZGbuLRRQktY13o28idpAXRD9vGuH6GAnjgTysIZ9SzQzBv/xcckRPDp0Z3uxTA7IaIqthyMvO508Vvk+8ljma6+ZRZ1Z3pGT9Tgo5HhqvoxP2IJDM3xBYUuiVGGUdRv7xFKYdI1Up1eMvm7YHSnybwFrIK3LCJhNxZugdYJY6Y9iufhkZ/h2Pc2UW+yyumCq443eCBrwLgr8yvmUEWm+57F7grF+VuvUweTj82KVhorkKvIul4Mwe62rg==","691f8ca61c6b4dcbb0aeb5f4","691fc954de7270f3e6b596b1","index1","<span style='color:red'>Fail,<span style='color:red'>Fail,<span style='color:green'>Lift,<span style='color:green'>Lift,<span style='color:red'>Fail,<span style='color:red'>Fail,<span style='color:red'>Fail,<span style='color:red'>Fail,<span style='color:red'>Fail,<span style='color:green'>Lift,<span style='color:green'>Lift,<span style='color:red'>Fail","<span style='color:red'>Fail,<span style='color:red'>Fail,<span style='color:green'>Lift,<span style='color:green'>Lift,<span style='color:green'>Lift,<span style='color:green'>Lift,<span style='color:red'>Fail,<span style='color:green'>Lift,<span style='color:green'>Lift,<span style='color:green'>Lift,<span style='color:green'>Lift,<span style='color:red'>Fail","<span style='color:red'>Fail,<span style='color:green'>Lift,<span style='color:green'>Lift,<span style='color:red'>Fail,<span style='color:green'>Lift,<span style='color:green'>Lift","0,0,1,1,0,0,0,0,0,1,1,0","0,0,1,1,1,1,0,1,1,1,1,0","0,1,1,0,1,1",10,20,20,"","","<p> We randomly picked <b>Contest 3, Round 2</b> to calculate your bonus. </p><p> The outcome of Contestant F on that round is <span style='color:green'>Lift</span>. </p><p> The probability you entered was 80. </p><p><b> You won a bonus of $0.80!</b></p><p> IMPORTANT: Please click 'Next' to complete the game.</p>","","","",NA,"",NA,NA,NA,NA,NA,NA,NA,NA,NA,NA,NA,NA,NA,NA,NA,NA,NA,NA,NA,NA,NA,NA,NA,NA,NA,NA,NA,NA,NA,NA,NA,NA,NA,NA,NA,NA,NA,NA,NA,"",NA,NA,NA,NA,NA,NA,0,2,1,2025-11-21 02:32:12
