"rt","url","trial_type","trial_index","time_elapsed","internal_node_id","encryptedProlificId","studyId","sessionId","expIndex","round1_outcomes","round2_outcomes","round3_outcomes","round1_o","round2_o","round3_o","round1_reward","round2_reward","round3_reward","success","view_history","stimulus","key_press","responses","question_order","j","Stage","stage","contest","round","strength_a","strength_b","effort_a","effort_b","outcome_a","outcome_b","reward","r1_strength_a","r1_strength_b","r1_effort_a","r1_effort_b","r1_outcome_a","r1_outcome_b","r1_reward","probability_a","probability_b","r2_prob_a","r2_prob_b","r2_strength_a","r2_strength_b","r2_effort_a","r2_effort_b","r2_outcome_a","r2_outcome_b","r2_reward","r3_prob_a","r3_prob_b","attention_check","count","r3_strength_a","r3_strength_b","r3_outcome_a","r3_outcome_b","r3_reward","r3_effort_a","r3_effort_b","screen","pick_contest","pick_round","pick_side","trial_probability","trial_outcome","bonus","button_pressed","attention_sum","attention","datapipe_meta.attributes.date_modified"
"2839.800000011921","https://psyc-201.github.io/xiang2023/exp/index1.html?PROLIFIC_PID=REDACTED&STUDY_ID=69168b21477cff9ada6cb980&SESSION_ID=691bdef8ccef6a324b05b3b3","external-html",0,2998,"0.0-0.0","FeMmCCMHBYpgJlsD29iciL/A1TqFdYCQ+BQpHoCEG0IIYm/Dxr6XFyixUfnbRnO74C0URm6etCFixf+EkzQcKk+mRiyjq16pk8o4x8frYk8k5tdx4uGUlzaPH13oDYR9qJv7036hfTwQLrKsya4PHgt9R1dmqisl6yukI2h96lrhf95OWOg6HXvQ2hfZ1e0VEY6RXGd06deSnFunwoHi6ZeEmtg2Yn+3SwygiX3Y5hzj/g5a2TysJpw/UIYZhsfyDedYafMD3SV/VdPRJRYgUZJ5phELF4/Vu6iKQ90KDIpS9vbBm/6D0gDwcG8urzg9qLk6QBOtkeZfzf7a/QWv/w==","69168b21477cff9ada6cb980","691bdef8ccef6a324b05b3b3","index1","<span style='color:red'>Fail,<span style='color:red'>Fail,<span style='color:green'>Lift,<span style='color:green'>Lift,<span style='color:red'>Fail,<span style='color:red'>Fail,<span style='color:red'>Fail,<span style='color:red'>Fail,<span style='color:red'>Fail,<span style='color:green'>Lift,<span style='color:red'>Fail,<span style='color:green'>Lift","<span style='color:red'>Fail,<span style='color:red'>Fail,<span style='color:green'>Lift,<span style='color:green'>Lift,<span style='color:green'>Lift,<span style='color:green'>Lift,<span style='color:green'>Lift,<span style='color:red'>Fail,<span style='color:green'>Lift,<span style='color:green'>Lift,<span style='color:red'>Fail,<span style='color:green'>Lift","<span style='color:red'>Fail,<span style='color:green'>Lift,<span style='color:green'>Lift,<span style='color:red'>Fail,<span style='color:green'>Lift,<span style='color:green'>Lift","0,0,1,1,0,0,0,0,0,1,0,1","0,0,1,1,1,1,1,0,1,1,0,1","0,1,1,0,1,1",10,20,20,"","","","","","",NA,"",NA,NA,NA,NA,NA,NA,NA,NA,NA,NA,NA,NA,NA,NA,NA,NA,NA,NA,NA,NA,NA,NA,NA,NA,NA,NA,NA,NA,NA,NA,NA,NA,NA,NA,NA,NA,NA,NA,NA,"",NA,NA,NA,NA,NA,NA,NA,NA,NA,2025-11-18 03:02:11
"","https://psyc-201.github.io/xiang2023/exp/index1.html?PROLIFIC_PID=REDACTED&STUDY_ID=69168b21477cff9ada6cb980&SESSION_ID=691bdef8ccef6a324b05b3b3","fullscreen",1,9744,"0.0-1.0","FeMmCCMHBYpgJlsD29iciL/A1TqFdYCQ+BQpHoCEG0IIYm/Dxr6XFyixUfnbRnO74C0URm6etCFixf+EkzQcKk+mRiyjq16pk8o4x8frYk8k5tdx4uGUlzaPH13oDYR9qJv7036hfTwQLrKsya4PHgt9R1dmqisl6yukI2h96lrhf95OWOg6HXvQ2hfZ1e0VEY6RXGd06deSnFunwoHi6ZeEmtg2Yn+3SwygiX3Y5hzj/g5a2TysJpw/UIYZhsfyDedYafMD3SV/VdPRJRYgUZJ5phELF4/Vu6iKQ90KDIpS9vbBm/6D0gDwcG8urzg9qLk6QBOtkeZfzf7a/QWv/w==","69168b21477cff9ada6cb980","691bdef8ccef6a324b05b3b3","index1","<span style='color:red'>Fail,<span style='color:red'>Fail,<span style='color:green'>Lift,<span style='color:green'>Lift,<span style='color:red'>Fail,<span style='color:red'>Fail,<span style='color:red'>Fail,<span style='color:red'>Fail,<span style='color:red'>Fail,<span style='color:green'>Lift,<span style='color:red'>Fail,<span style='color:green'>Lift","<span style='color:red'>Fail,<span style='color:red'>Fail,<span style='color:green'>Lift,<span style='color:green'>Lift,<span style='color:green'>Lift,<span style='color:green'>Lift,<span style='color:green'>Lift,<span style='color:red'>Fail,<span style='color:green'>Lift,<span style='color:green'>Lift,<span style='color:red'>Fail,<span style='color:green'>Lift","<span style='color:red'>Fail,<span style='color:green'>Lift,<span style='color:green'>Lift,<span style='color:red'>Fail,<span style='color:green'>Lift,<span style='color:green'>Lift","0,0,1,1,0,0,0,0,0,1,0,1","0,0,1,1,1,1,1,0,1,1,0,1","0,1,1,0,1,1",10,20,20,"true","","","","","",NA,"",NA,NA,NA,NA,NA,NA,NA,NA,NA,NA,NA,NA,NA,NA,NA,NA,NA,NA,NA,NA,NA,NA,NA,NA,NA,NA,NA,NA,NA,NA,NA,NA,NA,NA,NA,NA,NA,NA,NA,"",NA,NA,NA,NA,NA,NA,NA,NA,NA,2025-11-18 03:02:11
"128801.5","https://psyc-201.github.io/xiang2023/exp/index1.html?PROLIFIC_PID=REDACTED&STUDY_ID=69168b21477cff9ada6cb980&SESSION_ID=691bdef8ccef6a324b05b3b3","instructions",2,138550,"0.0-2.0","FeMmCCMHBYpgJlsD29iciL/A1TqFdYCQ+BQpHoCEG0IIYm/Dxr6XFyixUfnbRnO74C0URm6etCFixf+EkzQcKk+mRiyjq16pk8o4x8frYk8k5tdx4uGUlzaPH13oDYR9qJv7036hfTwQLrKsya4PHgt9R1dmqisl6yukI2h96lrhf95OWOg6HXvQ2hfZ1e0VEY6RXGd06deSnFunwoHi6ZeEmtg2Yn+3SwygiX3Y5hzj/g5a2TysJpw/UIYZhsfyDedYafMD3SV/VdPRJRYgUZJ5phELF4/Vu6iKQ90KDIpS9vbBm/6D0gDwcG8urzg9qLk6QBOtkeZfzf7a/QWv/w==","69168b21477cff9ada6cb980","691bdef8ccef6a324b05b3b3","index1","<span style='color:red'>Fail,<span style='color:red'>Fail,<span style='color:green'>Lift,<span style='color:green'>Lift,<span style='color:red'>Fail,<span style='color:red'>Fail,<span style='color:red'>Fail,<span style='color:red'>Fail,<span style='color:red'>Fail,<span style='color:green'>Lift,<span style='color:red'>Fail,<span style='color:green'>Lift","<span style='color:red'>Fail,<span style='color:red'>Fail,<span style='color:green'>Lift,<span style='color:green'>Lift,<span style='color:green'>Lift,<span style='color:green'>Lift,<span style='color:green'>Lift,<span style='color:red'>Fail,<span style='color:green'>Lift,<span style='color:green'>Lift,<span style='color:red'>Fail,<span style='color:green'>Lift","<span style='color:red'>Fail,<span style='color:green'>Lift,<span style='color:green'>Lift,<span style='color:red'>Fail,<span style='color:green'>Lift,<span style='color:green'>Lift","0,0,1,1,0,0,0,0,0,1,0,1","0,0,1,1,1,1,1,0,1,1,0,1","0,1,1,0,1,1",10,20,20,"","[{""page_index"":0,""viewing_time"":28088.399999976158},{""page_index"":1,""viewing_time"":30185.700000047684},{""page_index"":2,""viewing_time"":16407.299999952316},{""page_index"":3,""viewing_time"":23407.600000023842},{""page_index"":4,""viewing_time"":12379.100000023842},{""page_index"":5,""viewing_time"":14771.599999964237},{""page_index"":6,""viewing_time"":3561.300000011921}]","","","","",NA,"",NA,NA,NA,NA,NA,NA,NA,NA,NA,NA,NA,NA,NA,NA,NA,NA,NA,NA,NA,NA,NA,NA,NA,NA,NA,NA,NA,NA,NA,NA,NA,NA,NA,NA,NA,NA,NA,NA,NA,"",NA,NA,NA,NA,NA,NA,NA,NA,NA,2025-11-18 03:02:11
"null","https://psyc-201.github.io/xiang2023/exp/index1.html?PROLIFIC_PID=REDACTED&STUDY_ID=69168b21477cff9ada6cb980&SESSION_ID=691bdef8ccef6a324b05b3b3","html-keyboard-response",3,139553,"0.0-3.0","FeMmCCMHBYpgJlsD29iciL/A1TqFdYCQ+BQpHoCEG0IIYm/Dxr6XFyixUfnbRnO74C0URm6etCFixf+EkzQcKk+mRiyjq16pk8o4x8frYk8k5tdx4uGUlzaPH13oDYR9qJv7036hfTwQLrKsya4PHgt9R1dmqisl6yukI2h96lrhf95OWOg6HXvQ2hfZ1e0VEY6RXGd06deSnFunwoHi6ZeEmtg2Yn+3SwygiX3Y5hzj/g5a2TysJpw/UIYZhsfyDedYafMD3SV/VdPRJRYgUZJ5phELF4/Vu6iKQ90KDIpS9vbBm/6D0gDwcG8urzg9qLk6QBOtkeZfzf7a/QWv/w==","69168b21477cff9ada6cb980","691bdef8ccef6a324b05b3b3","index1","<span style='color:red'>Fail,<span style='color:red'>Fail,<span style='color:green'>Lift,<span style='color:green'>Lift,<span style='color:red'>Fail,<span style='color:red'>Fail,<span style='color:red'>Fail,<span style='color:red'>Fail,<span style='color:red'>Fail,<span style='color:green'>Lift,<span style='color:red'>Fail,<span style='color:green'>Lift","<span style='color:red'>Fail,<span style='color:red'>Fail,<span style='color:green'>Lift,<span style='color:green'>Lift,<span style='color:green'>Lift,<span style='color:green'>Lift,<span style='color:green'>Lift,<span style='color:red'>Fail,<span style='color:green'>Lift,<span style='color:green'>Lift,<span style='color:red'>Fail,<span style='color:green'>Lift","<span style='color:red'>Fail,<span style='color:green'>Lift,<span style='color:green'>Lift,<span style='color:red'>Fail,<span style='color:green'>Lift,<span style='color:green'>Lift","0,0,1,1,0,0,0,0,0,1,0,1","0,0,1,1,1,1,1,0,1,1,0,1","0,1,1,0,1,1",10,20,20,"",""," ","null","","",NA,"",NA,NA,NA,NA,NA,NA,NA,NA,NA,NA,NA,NA,NA,NA,NA,NA,NA,NA,NA,NA,NA,NA,NA,NA,NA,NA,NA,NA,NA,NA,NA,NA,NA,NA,NA,NA,NA,NA,NA,"",NA,NA,NA,NA,NA,NA,NA,NA,NA,2025-11-18 03:02:11
"113434.5","https://psyc-201.github.io/xiang2023/exp/index1.html?PROLIFIC_PID=REDACTED&STUDY_ID=69168b21477cff9ada6cb980&SESSION_ID=691bdef8ccef6a324b05b3b3","survey-multi-choice",4,252992,"0.0-4.0","FeMmCCMHBYpgJlsD29iciL/A1TqFdYCQ+BQpHoCEG0IIYm/Dxr6XFyixUfnbRnO74C0URm6etCFixf+EkzQcKk+mRiyjq16pk8o4x8frYk8k5tdx4uGUlzaPH13oDYR9qJv7036hfTwQLrKsya4PHgt9R1dmqisl6yukI2h96lrhf95OWOg6HXvQ2hfZ1e0VEY6RXGd06deSnFunwoHi6ZeEmtg2Yn+3SwygiX3Y5hzj/g5a2TysJpw/UIYZhsfyDedYafMD3SV/VdPRJRYgUZJ5phELF4/Vu6iKQ90KDIpS9vbBm/6D0gDwcG8urzg9qLk6QBOtkeZfzf7a/QWv/w==","69168b21477cff9ada6cb980","691bdef8ccef6a324b05b3b3","index1","<span style='color:red'>Fail,<span style='color:red'>Fail,<span style='color:green'>Lift,<span style='color:green'>Lift,<span style='color:red'>Fail,<span style='color:red'>Fail,<span style='color:red'>Fail,<span style='color:red'>Fail,<span style='color:red'>Fail,<span style='color:green'>Lift,<span style='color:red'>Fail,<span style='color:green'>Lift","<span style='color:red'>Fail,<span style='color:red'>Fail,<span style='color:green'>Lift,<span style='color:green'>Lift,<span style='color:green'>Lift,<span style='color:green'>Lift,<span style='color:green'>Lift,<span style='color:red'>Fail,<span style='color:green'>Lift,<span style='color:green'>Lift,<span style='color:red'>Fail,<span style='color:green'>Lift","<span style='color:red'>Fail,<span style='color:green'>Lift,<span style='color:green'>Lift,<span style='color:red'>Fail,<span style='color:green'>Lift,<span style='color:green'>Lift","0,0,1,1,0,0,0,0,0,1,0,1","0,0,1,1,1,1,1,0,1,1,0,1","0,1,1,0,1,1",10,20,20,"","","","","{""Q0"":""It consists of multiple contests, each contest with three rounds."",""Q1"":""When a new contest begins."",""Q2"":""The box weight always stays the same (equivalent to strength of 5)."",""Q3"":""Each will get $20."",""Q4"":""How close my guesses are to the actual outcome.""}","[0,1,2,3,4]",NA,"",NA,NA,NA,NA,NA,NA,NA,NA,NA,NA,NA,NA,NA,NA,NA,NA,NA,NA,NA,NA,NA,NA,NA,NA,NA,NA,NA,NA,NA,NA,NA,NA,NA,NA,NA,NA,NA,NA,NA,"",NA,NA,NA,NA,NA,NA,NA,NA,NA,2025-11-18 03:02:11
"12550","https://psyc-201.github.io/xiang2023/exp/index1.html?PROLIFIC_PID=REDACTED&STUDY_ID=69168b21477cff9ada6cb980&SESSION_ID=691bdef8ccef6a324b05b3b3","instructions",5,265551,"0.0-305.0","FeMmCCMHBYpgJlsD29iciL/A1TqFdYCQ+BQpHoCEG0IIYm/Dxr6XFyixUfnbRnO74C0URm6etCFixf+EkzQcKk+mRiyjq16pk8o4x8frYk8k5tdx4uGUlzaPH13oDYR9qJv7036hfTwQLrKsya4PHgt9R1dmqisl6yukI2h96lrhf95OWOg6HXvQ2hfZ1e0VEY6RXGd06deSnFunwoHi6ZeEmtg2Yn+3SwygiX3Y5hzj/g5a2TysJpw/UIYZhsfyDedYafMD3SV/VdPRJRYgUZJ5phELF4/Vu6iKQ90KDIpS9vbBm/6D0gDwcG8urzg9qLk6QBOtkeZfzf7a/QWv/w==","69168b21477cff9ada6cb980","691bdef8ccef6a324b05b3b3","index1","<span style='color:red'>Fail,<span style='color:red'>Fail,<span style='color:green'>Lift,<span style='color:green'>Lift,<span style='color:red'>Fail,<span style='color:red'>Fail,<span style='color:red'>Fail,<span style='color:red'>Fail,<span style='color:red'>Fail,<span style='color:green'>Lift,<span style='color:red'>Fail,<span style='color:green'>Lift","<span style='color:red'>Fail,<span style='color:red'>Fail,<span style='color:green'>Lift,<span style='color:green'>Lift,<span style='color:green'>Lift,<span style='color:green'>Lift,<span style='color:green'>Lift,<span style='color:red'>Fail,<span style='color:green'>Lift,<span style='color:green'>Lift,<span style='color:red'>Fail,<span style='color:green'>Lift","<span style='color:red'>Fail,<span style='color:green'>Lift,<span style='color:green'>Lift,<span style='color:red'>Fail,<span style='color:green'>Lift,<span style='color:green'>Lift","0,0,1,1,0,0,0,0,0,1,0,1","0,0,1,1,1,1,1,0,1,1,0,1","0,1,1,0,1,1",10,20,20,"","[{""page_index"":0,""viewing_time"":6748.5},{""page_index"":1,""viewing_time"":5801.099999964237}]","","","","",NA,"",NA,NA,NA,NA,NA,NA,NA,NA,NA,NA,NA,NA,NA,NA,NA,NA,NA,NA,NA,NA,NA,NA,NA,NA,NA,NA,NA,NA,NA,NA,NA,NA,NA,NA,NA,NA,NA,NA,NA,"",NA,NA,NA,NA,NA,NA,NA,NA,NA,2025-11-18 03:02:11
"null","https://psyc-201.github.io/xiang2023/exp/index1.html?PROLIFIC_PID=REDACTED&STUDY_ID=69168b21477cff9ada6cb980&SESSION_ID=691bdef8ccef6a324b05b3b3","html-keyboard-response",6,266566,"0.0-306.0","FeMmCCMHBYpgJlsD29iciL/A1TqFdYCQ+BQpHoCEG0IIYm/Dxr6XFyixUfnbRnO74C0URm6etCFixf+EkzQcKk+mRiyjq16pk8o4x8frYk8k5tdx4uGUlzaPH13oDYR9qJv7036hfTwQLrKsya4PHgt9R1dmqisl6yukI2h96lrhf95OWOg6HXvQ2hfZ1e0VEY6RXGd06deSnFunwoHi6ZeEmtg2Yn+3SwygiX3Y5hzj/g5a2TysJpw/UIYZhsfyDedYafMD3SV/VdPRJRYgUZJ5phELF4/Vu6iKQ90KDIpS9vbBm/6D0gDwcG8urzg9qLk6QBOtkeZfzf7a/QWv/w==","69168b21477cff9ada6cb980","691bdef8ccef6a324b05b3b3","index1","<span style='color:red'>Fail,<span style='color:red'>Fail,<span style='color:green'>Lift,<span style='color:green'>Lift,<span style='color:red'>Fail,<span style='color:red'>Fail,<span style='color:red'>Fail,<span style='color:red'>Fail,<span style='color:red'>Fail,<span style='color:green'>Lift,<span style='color:red'>Fail,<span style='color:green'>Lift","<span style='color:red'>Fail,<span style='color:red'>Fail,<span style='color:green'>Lift,<span style='color:green'>Lift,<span style='color:green'>Lift,<span style='color:green'>Lift,<span style='color:green'>Lift,<span style='color:red'>Fail,<span style='color:green'>Lift,<span style='color:green'>Lift,<span style='color:red'>Fail,<span style='color:green'>Lift","<span style='color:red'>Fail,<span style='color:green'>Lift,<span style='color:green'>Lift,<span style='color:red'>Fail,<span style='color:green'>Lift,<span style='color:green'>Lift","0,0,1,1,0,0,0,0,0,1,0,1","0,0,1,1,1,1,1,0,1,1,0,1","0,1,1,0,1,1",10,20,20,"",""," ","null","","",1,"",NA,NA,NA,NA,NA,NA,NA,NA,NA,NA,NA,NA,NA,NA,NA,NA,NA,NA,NA,NA,NA,NA,NA,NA,NA,NA,NA,NA,NA,NA,NA,NA,NA,NA,NA,NA,NA,NA,NA,"",NA,NA,NA,NA,NA,NA,NA,NA,NA,2025-11-18 03:02:11
"null","https://psyc-201.github.io/xiang2023/exp/index1.html?PROLIFIC_PID=REDACTED&STUDY_ID=69168b21477cff9ada6cb980&SESSION_ID=691bdef8ccef6a324b05b3b3","html-keyboard-response",7,269579,"0.0-307.0","FeMmCCMHBYpgJlsD29iciL/A1TqFdYCQ+BQpHoCEG0IIYm/Dxr6XFyixUfnbRnO74C0URm6etCFixf+EkzQcKk+mRiyjq16pk8o4x8frYk8k5tdx4uGUlzaPH13oDYR9qJv7036hfTwQLrKsya4PHgt9R1dmqisl6yukI2h96lrhf95OWOg6HXvQ2hfZ1e0VEY6RXGd06deSnFunwoHi6ZeEmtg2Yn+3SwygiX3Y5hzj/g5a2TysJpw/UIYZhsfyDedYafMD3SV/VdPRJRYgUZJ5phELF4/Vu6iKQ90KDIpS9vbBm/6D0gDwcG8urzg9qLk6QBOtkeZfzf7a/QWv/w==","69168b21477cff9ada6cb980","691bdef8ccef6a324b05b3b3","index1","<span style='color:red'>Fail,<span style='color:red'>Fail,<span style='color:green'>Lift,<span style='color:green'>Lift,<span style='color:red'>Fail,<span style='color:red'>Fail,<span style='color:red'>Fail,<span style='color:red'>Fail,<span style='color:red'>Fail,<span style='color:green'>Lift,<span style='color:red'>Fail,<span style='color:green'>Lift","<span style='color:red'>Fail,<span style='color:red'>Fail,<span style='color:green'>Lift,<span style='color:green'>Lift,<span style='color:green'>Lift,<span style='color:green'>Lift,<span style='color:green'>Lift,<span style='color:red'>Fail,<span style='color:green'>Lift,<span style='color:green'>Lift,<span style='color:red'>Fail,<span style='color:green'>Lift","<span style='color:red'>Fail,<span style='color:green'>Lift,<span style='color:green'>Lift,<span style='color:red'>Fail,<span style='color:green'>Lift,<span style='color:green'>Lift","0,0,1,1,0,0,0,0,0,1,0,1","0,0,1,1,1,1,1,0,1,1,0,1","0,1,1,0,1,1",10,20,20,"","","<p style='font-size:30px'><b> New Contest! </b></p>","null","","",1,"",NA,NA,NA,NA,NA,NA,NA,NA,NA,NA,NA,NA,NA,NA,NA,NA,NA,NA,NA,NA,NA,NA,NA,NA,NA,NA,NA,NA,NA,NA,NA,NA,NA,NA,NA,NA,NA,NA,NA,"",NA,NA,NA,NA,NA,NA,NA,NA,NA,2025-11-18 03:02:11
"19200.799999952316","https://psyc-201.github.io/xiang2023/exp/index1.html?PROLIFIC_PID=REDACTED&STUDY_ID=69168b21477cff9ada6cb980&SESSION_ID=691bdef8ccef6a324b05b3b3","survey-html-form",8,288784,"0.0-308.0","FeMmCCMHBYpgJlsD29iciL/A1TqFdYCQ+BQpHoCEG0IIYm/Dxr6XFyixUfnbRnO74C0URm6etCFixf+EkzQcKk+mRiyjq16pk8o4x8frYk8k5tdx4uGUlzaPH13oDYR9qJv7036hfTwQLrKsya4PHgt9R1dmqisl6yukI2h96lrhf95OWOg6HXvQ2hfZ1e0VEY6RXGd06deSnFunwoHi6ZeEmtg2Yn+3SwygiX3Y5hzj/g5a2TysJpw/UIYZhsfyDedYafMD3SV/VdPRJRYgUZJ5phELF4/Vu6iKQ90KDIpS9vbBm/6D0gDwcG8urzg9qLk6QBOtkeZfzf7a/QWv/w==","69168b21477cff9ada6cb980","691bdef8ccef6a324b05b3b3","index1","<span style='color:red'>Fail,<span style='color:red'>Fail,<span style='color:green'>Lift,<span style='color:green'>Lift,<span style='color:red'>Fail,<span style='color:red'>Fail,<span style='color:red'>Fail,<span style='color:red'>Fail,<span style='color:red'>Fail,<span style='color:green'>Lift,<span style='color:red'>Fail,<span style='color:green'>Lift","<span style='color:red'>Fail,<span style='color:red'>Fail,<span style='color:green'>Lift,<span style='color:green'>Lift,<span style='color:green'>Lift,<span style='color:green'>Lift,<span style='color:green'>Lift,<span style='color:red'>Fail,<span style='color:green'>Lift,<span style='color:green'>Lift,<span style='color:red'>Fail,<span style='color:green'>Lift","<span style='color:red'>Fail,<span style='color:green'>Lift,<span style='color:green'>Lift,<span style='color:red'>Fail,<span style='color:green'>Lift,<span style='color:green'>Lift","0,0,1,1,0,0,0,0,0,1,0,1","0,0,1,1,1,1,1,0,1,1,0,1","0,1,1,0,1,1",10,20,20,"","","","","{""box1"":""3"",""box2"":""2""}","",1,"round1_outcome",1,1,1,3,2,NA,NA,0,0,10,3,2,NA,NA,0,0,10,NA,NA,NA,NA,NA,NA,NA,NA,NA,NA,NA,NA,NA,NA,NA,NA,NA,NA,NA,NA,NA,NA,"",NA,NA,NA,NA,NA,NA,NA,NA,NA,2025-11-18 03:02:11
"10691.699999988079","https://psyc-201.github.io/xiang2023/exp/index1.html?PROLIFIC_PID=REDACTED&STUDY_ID=69168b21477cff9ada6cb980&SESSION_ID=691bdef8ccef6a324b05b3b3","survey-html-form",9,299479,"0.0-309.0","FeMmCCMHBYpgJlsD29iciL/A1TqFdYCQ+BQpHoCEG0IIYm/Dxr6XFyixUfnbRnO74C0URm6etCFixf+EkzQcKk+mRiyjq16pk8o4x8frYk8k5tdx4uGUlzaPH13oDYR9qJv7036hfTwQLrKsya4PHgt9R1dmqisl6yukI2h96lrhf95OWOg6HXvQ2hfZ1e0VEY6RXGd06deSnFunwoHi6ZeEmtg2Yn+3SwygiX3Y5hzj/g5a2TysJpw/UIYZhsfyDedYafMD3SV/VdPRJRYgUZJ5phELF4/Vu6iKQ90KDIpS9vbBm/6D0gDwcG8urzg9qLk6QBOtkeZfzf7a/QWv/w==","69168b21477cff9ada6cb980","691bdef8ccef6a324b05b3b3","index1","<span style='color:red'>Fail,<span style='color:red'>Fail,<span style='color:green'>Lift,<span style='color:green'>Lift,<span style='color:red'>Fail,<span style='color:red'>Fail,<span style='color:red'>Fail,<span style='color:red'>Fail,<span style='color:red'>Fail,<span style='color:green'>Lift,<span style='color:red'>Fail,<span style='color:green'>Lift","<span style='color:red'>Fail,<span style='color:red'>Fail,<span style='color:green'>Lift,<span style='color:green'>Lift,<span style='color:green'>Lift,<span style='color:green'>Lift,<span style='color:green'>Lift,<span style='color:red'>Fail,<span style='color:green'>Lift,<span style='color:green'>Lift,<span style='color:red'>Fail,<span style='color:green'>Lift","<span style='color:red'>Fail,<span style='color:green'>Lift,<span style='color:green'>Lift,<span style='color:red'>Fail,<span style='color:green'>Lift,<span style='color:green'>Lift","0,0,1,1,0,0,0,0,0,1,0,1","0,0,1,1,1,1,1,0,1,1,0,1","0,1,1,0,1,1",10,20,20,"","","","","{""box1"":""40"",""box2"":""30""}","",1,"round2_ready",2,1,2,NA,NA,NA,NA,NA,NA,NA,NA,NA,NA,NA,NA,NA,NA,40,30,40,30,NA,NA,NA,NA,NA,NA,NA,NA,NA,NA,NA,NA,NA,NA,NA,NA,NA,NA,"",NA,NA,NA,NA,NA,NA,NA,NA,NA,2025-11-18 03:02:11
"8485","https://psyc-201.github.io/xiang2023/exp/index1.html?PROLIFIC_PID=REDACTED&STUDY_ID=69168b21477cff9ada6cb980&SESSION_ID=691bdef8ccef6a324b05b3b3","survey-html-form",10,307968,"0.0-310.0","FeMmCCMHBYpgJlsD29iciL/A1TqFdYCQ+BQpHoCEG0IIYm/Dxr6XFyixUfnbRnO74C0URm6etCFixf+EkzQcKk+mRiyjq16pk8o4x8frYk8k5tdx4uGUlzaPH13oDYR9qJv7036hfTwQLrKsya4PHgt9R1dmqisl6yukI2h96lrhf95OWOg6HXvQ2hfZ1e0VEY6RXGd06deSnFunwoHi6ZeEmtg2Yn+3SwygiX3Y5hzj/g5a2TysJpw/UIYZhsfyDedYafMD3SV/VdPRJRYgUZJ5phELF4/Vu6iKQ90KDIpS9vbBm/6D0gDwcG8urzg9qLk6QBOtkeZfzf7a/QWv/w==","69168b21477cff9ada6cb980","691bdef8ccef6a324b05b3b3","index1","<span style='color:red'>Fail,<span style='color:red'>Fail,<span style='color:green'>Lift,<span style='color:green'>Lift,<span style='color:red'>Fail,<span style='color:red'>Fail,<span style='color:red'>Fail,<span style='color:red'>Fail,<span style='color:red'>Fail,<span style='color:green'>Lift,<span style='color:red'>Fail,<span style='color:green'>Lift","<span style='color:red'>Fail,<span style='color:red'>Fail,<span style='color:green'>Lift,<span style='color:green'>Lift,<span style='color:green'>Lift,<span style='color:green'>Lift,<span style='color:green'>Lift,<span style='color:red'>Fail,<span style='color:green'>Lift,<span style='color:green'>Lift,<span style='color:red'>Fail,<span style='color:green'>Lift","<span style='color:red'>Fail,<span style='color:green'>Lift,<span style='color:green'>Lift,<span style='color:red'>Fail,<span style='color:green'>Lift,<span style='color:green'>Lift","0,0,1,1,0,0,0,0,0,1,0,1","0,0,1,1,1,1,1,0,1,1,0,1","0,1,1,0,1,1",10,20,20,"","","","","{""box1"":""4"",""box2"":""3""}","",1,"round2_outcome",3,1,2,4,3,NA,NA,0,0,20,NA,NA,NA,NA,NA,NA,NA,NA,NA,NA,NA,4,3,NA,NA,0,0,20,NA,NA,NA,NA,NA,NA,NA,NA,NA,NA,NA,"",NA,NA,NA,NA,NA,NA,NA,NA,NA,2025-11-18 03:02:11
"7286.699999988079","https://psyc-201.github.io/xiang2023/exp/index1.html?PROLIFIC_PID=REDACTED&STUDY_ID=69168b21477cff9ada6cb980&SESSION_ID=691bdef8ccef6a324b05b3b3","survey-html-form",11,315259,"0.0-311.0","FeMmCCMHBYpgJlsD29iciL/A1TqFdYCQ+BQpHoCEG0IIYm/Dxr6XFyixUfnbRnO74C0URm6etCFixf+EkzQcKk+mRiyjq16pk8o4x8frYk8k5tdx4uGUlzaPH13oDYR9qJv7036hfTwQLrKsya4PHgt9R1dmqisl6yukI2h96lrhf95OWOg6HXvQ2hfZ1e0VEY6RXGd06deSnFunwoHi6ZeEmtg2Yn+3SwygiX3Y5hzj/g5a2TysJpw/UIYZhsfyDedYafMD3SV/VdPRJRYgUZJ5phELF4/Vu6iKQ90KDIpS9vbBm/6D0gDwcG8urzg9qLk6QBOtkeZfzf7a/QWv/w==","69168b21477cff9ada6cb980","691bdef8ccef6a324b05b3b3","index1","<span style='color:red'>Fail,<span style='color:red'>Fail,<span style='color:green'>Lift,<span style='color:green'>Lift,<span style='color:red'>Fail,<span style='color:red'>Fail,<span style='color:red'>Fail,<span style='color:red'>Fail,<span style='color:red'>Fail,<span style='color:green'>Lift,<span style='color:red'>Fail,<span style='color:green'>Lift","<span style='color:red'>Fail,<span style='color:red'>Fail,<span style='color:green'>Lift,<span style='color:green'>Lift,<span style='color:green'>Lift,<span style='color:green'>Lift,<span style='color:green'>Lift,<span style='color:red'>Fail,<span style='color:green'>Lift,<span style='color:green'>Lift,<span style='color:red'>Fail,<span style='color:green'>Lift","<span style='color:red'>Fail,<span style='color:green'>Lift,<span style='color:green'>Lift,<span style='color:red'>Fail,<span style='color:green'>Lift,<span style='color:green'>Lift","0,0,1,1,0,0,0,0,0,1,0,1","0,0,1,1,1,1,1,0,1,1,0,1","0,1,1,0,1,1",10,20,20,"","","","","{""box1"":""70""}","",1,"round3_ready",4,1,3,NA,NA,NA,NA,NA,NA,NA,NA,NA,NA,NA,NA,NA,NA,70,70,NA,NA,NA,NA,NA,NA,NA,NA,NA,70,70,NA,NA,NA,NA,NA,NA,NA,NA,NA,"",NA,NA,NA,NA,NA,NA,NA,NA,NA,2025-11-18 03:02:11
"11654.699999988079","https://psyc-201.github.io/xiang2023/exp/index1.html?PROLIFIC_PID=REDACTED&STUDY_ID=69168b21477cff9ada6cb980&SESSION_ID=691bdef8ccef6a324b05b3b3","survey-html-form",12,326917,"0.0-313.0-0.0","FeMmCCMHBYpgJlsD29iciL/A1TqFdYCQ+BQpHoCEG0IIYm/Dxr6XFyixUfnbRnO74C0URm6etCFixf+EkzQcKk+mRiyjq16pk8o4x8frYk8k5tdx4uGUlzaPH13oDYR9qJv7036hfTwQLrKsya4PHgt9R1dmqisl6yukI2h96lrhf95OWOg6HXvQ2hfZ1e0VEY6RXGd06deSnFunwoHi6ZeEmtg2Yn+3SwygiX3Y5hzj/g5a2TysJpw/UIYZhsfyDedYafMD3SV/VdPRJRYgUZJ5phELF4/Vu6iKQ90KDIpS9vbBm/6D0gDwcG8urzg9qLk6QBOtkeZfzf7a/QWv/w==","69168b21477cff9ada6cb980","691bdef8ccef6a324b05b3b3","index1","<span style='color:red'>Fail,<span style='color:red'>Fail,<span style='color:green'>Lift,<span style='color:green'>Lift,<span style='color:red'>Fail,<span style='color:red'>Fail,<span style='color:red'>Fail,<span style='color:red'>Fail,<span style='color:red'>Fail,<span style='color:green'>Lift,<span style='color:red'>Fail,<span style='color:green'>Lift","<span style='color:red'>Fail,<span style='color:red'>Fail,<span style='color:green'>Lift,<span style='color:green'>Lift,<span style='color:green'>Lift,<span style='color:green'>Lift,<span style='color:green'>Lift,<span style='color:red'>Fail,<span style='color:green'>Lift,<span style='color:green'>Lift,<span style='color:red'>Fail,<span style='color:green'>Lift","<span style='color:red'>Fail,<span style='color:green'>Lift,<span style='color:green'>Lift,<span style='color:red'>Fail,<span style='color:green'>Lift,<span style='color:green'>Lift","0,0,1,1,0,0,0,0,0,1,0,1","0,0,1,1,1,1,1,0,1,1,0,1","0,1,1,0,1,1",10,20,20,"","","","","{""box1"":""2"",""box2"":""2"",""box3"":""999"",""box4"":""999""}","",2,"round3_fail",5,1,3,2,2,NA,NA,0,0,20,NA,NA,NA,NA,NA,NA,NA,NA,NA,NA,NA,NA,NA,NA,NA,NA,NA,NA,NA,NA,1,1,2,2,0,0,20,NA,NA,"",NA,NA,NA,NA,NA,NA,NA,NA,NA,2025-11-18 03:02:11
"null","https://psyc-201.github.io/xiang2023/exp/index1.html?PROLIFIC_PID=REDACTED&STUDY_ID=69168b21477cff9ada6cb980&SESSION_ID=691bdef8ccef6a324b05b3b3","html-keyboard-response",13,329934,"0.0-316.0","FeMmCCMHBYpgJlsD29iciL/A1TqFdYCQ+BQpHoCEG0IIYm/Dxr6XFyixUfnbRnO74C0URm6etCFixf+EkzQcKk+mRiyjq16pk8o4x8frYk8k5tdx4uGUlzaPH13oDYR9qJv7036hfTwQLrKsya4PHgt9R1dmqisl6yukI2h96lrhf95OWOg6HXvQ2hfZ1e0VEY6RXGd06deSnFunwoHi6ZeEmtg2Yn+3SwygiX3Y5hzj/g5a2TysJpw/UIYZhsfyDedYafMD3SV/VdPRJRYgUZJ5phELF4/Vu6iKQ90KDIpS9vbBm/6D0gDwcG8urzg9qLk6QBOtkeZfzf7a/QWv/w==","69168b21477cff9ada6cb980","691bdef8ccef6a324b05b3b3","index1","<span style='color:red'>Fail,<span style='color:red'>Fail,<span style='color:green'>Lift,<span style='color:green'>Lift,<span style='color:red'>Fail,<span style='color:red'>Fail,<span style='color:red'>Fail,<span style='color:red'>Fail,<span style='color:red'>Fail,<span style='color:green'>Lift,<span style='color:red'>Fail,<span style='color:green'>Lift","<span style='color:red'>Fail,<span style='color:red'>Fail,<span style='color:green'>Lift,<span style='color:green'>Lift,<span style='color:green'>Lift,<span style='color:green'>Lift,<span style='color:green'>Lift,<span style='color:red'>Fail,<span style='color:green'>Lift,<span style='color:green'>Lift,<span style='color:red'>Fail,<span style='color:green'>Lift","<span style='color:red'>Fail,<span style='color:green'>Lift,<span style='color:green'>Lift,<span style='color:red'>Fail,<span style='color:green'>Lift,<span style='color:green'>Lift","0,0,1,1,0,0,0,0,0,1,0,1","0,0,1,1,1,1,1,0,1,1,0,1","0,1,1,0,1,1",10,20,20,"","","<p style='font-size:30px'><b> New Contest! </b></p>","null","","",2,"",NA,NA,NA,NA,NA,NA,NA,NA,NA,NA,NA,NA,NA,NA,NA,NA,NA,NA,NA,NA,NA,NA,NA,NA,NA,NA,NA,NA,NA,NA,NA,NA,NA,NA,NA,NA,NA,NA,NA,"",NA,NA,NA,NA,NA,NA,NA,NA,NA,2025-11-18 03:02:11
"15464","https://psyc-201.github.io/xiang2023/exp/index1.html?PROLIFIC_PID=REDACTED&STUDY_ID=69168b21477cff9ada6cb980&SESSION_ID=691bdef8ccef6a324b05b3b3","survey-html-form",14,345401,"0.0-317.0","FeMmCCMHBYpgJlsD29iciL/A1TqFdYCQ+BQpHoCEG0IIYm/Dxr6XFyixUfnbRnO74C0URm6etCFixf+EkzQcKk+mRiyjq16pk8o4x8frYk8k5tdx4uGUlzaPH13oDYR9qJv7036hfTwQLrKsya4PHgt9R1dmqisl6yukI2h96lrhf95OWOg6HXvQ2hfZ1e0VEY6RXGd06deSnFunwoHi6ZeEmtg2Yn+3SwygiX3Y5hzj/g5a2TysJpw/UIYZhsfyDedYafMD3SV/VdPRJRYgUZJ5phELF4/Vu6iKQ90KDIpS9vbBm/6D0gDwcG8urzg9qLk6QBOtkeZfzf7a/QWv/w==","69168b21477cff9ada6cb980","691bdef8ccef6a324b05b3b3","index1","<span style='color:red'>Fail,<span style='color:red'>Fail,<span style='color:green'>Lift,<span style='color:green'>Lift,<span style='color:red'>Fail,<span style='color:red'>Fail,<span style='color:red'>Fail,<span style='color:red'>Fail,<span style='color:red'>Fail,<span style='color:green'>Lift,<span style='color:red'>Fail,<span style='color:green'>Lift","<span style='color:red'>Fail,<span style='color:red'>Fail,<span style='color:green'>Lift,<span style='color:green'>Lift,<span style='color:green'>Lift,<span style='color:green'>Lift,<span style='color:green'>Lift,<span style='color:red'>Fail,<span style='color:green'>Lift,<span style='color:green'>Lift,<span style='color:red'>Fail,<span style='color:green'>Lift","<span style='color:red'>Fail,<span style='color:green'>Lift,<span style='color:green'>Lift,<span style='color:red'>Fail,<span style='color:green'>Lift,<span style='color:green'>Lift","0,0,1,1,0,0,0,0,0,1,0,1","0,0,1,1,1,1,1,0,1,1,0,1","0,1,1,0,1,1",10,20,20,"","","","","{""box1"":""6"",""box2"":""7"",""box3"":""70"",""box4"":""60""}","",2,"round1_outcome",1,2,1,6,7,70,60,1,1,10,6,7,70,60,1,1,10,NA,NA,NA,NA,NA,NA,NA,NA,NA,NA,NA,NA,NA,NA,NA,NA,NA,NA,NA,NA,NA,NA,"",NA,NA,NA,NA,NA,NA,NA,NA,NA,2025-11-18 03:02:11
"5468.300000011921","https://psyc-201.github.io/xiang2023/exp/index1.html?PROLIFIC_PID=REDACTED&STUDY_ID=69168b21477cff9ada6cb980&SESSION_ID=691bdef8ccef6a324b05b3b3","survey-html-form",15,350872,"0.0-318.0","FeMmCCMHBYpgJlsD29iciL/A1TqFdYCQ+BQpHoCEG0IIYm/Dxr6XFyixUfnbRnO74C0URm6etCFixf+EkzQcKk+mRiyjq16pk8o4x8frYk8k5tdx4uGUlzaPH13oDYR9qJv7036hfTwQLrKsya4PHgt9R1dmqisl6yukI2h96lrhf95OWOg6HXvQ2hfZ1e0VEY6RXGd06deSnFunwoHi6ZeEmtg2Yn+3SwygiX3Y5hzj/g5a2TysJpw/UIYZhsfyDedYafMD3SV/VdPRJRYgUZJ5phELF4/Vu6iKQ90KDIpS9vbBm/6D0gDwcG8urzg9qLk6QBOtkeZfzf7a/QWv/w==","69168b21477cff9ada6cb980","691bdef8ccef6a324b05b3b3","index1","<span style='color:red'>Fail,<span style='color:red'>Fail,<span style='color:green'>Lift,<span style='color:green'>Lift,<span style='color:red'>Fail,<span style='color:red'>Fail,<span style='color:red'>Fail,<span style='color:red'>Fail,<span style='color:red'>Fail,<span style='color:green'>Lift,<span style='color:red'>Fail,<span style='color:green'>Lift","<span style='color:red'>Fail,<span style='color:red'>Fail,<span style='color:green'>Lift,<span style='color:green'>Lift,<span style='color:green'>Lift,<span style='color:green'>Lift,<span style='color:green'>Lift,<span style='color:red'>Fail,<span style='color:green'>Lift,<span style='color:green'>Lift,<span style='color:red'>Fail,<span style='color:green'>Lift","<span style='color:red'>Fail,<span style='color:green'>Lift,<span style='color:green'>Lift,<span style='color:red'>Fail,<span style='color:green'>Lift,<span style='color:green'>Lift","0,0,1,1,0,0,0,0,0,1,0,1","0,0,1,1,1,1,1,0,1,1,0,1","0,1,1,0,1,1",10,20,20,"","","","","{""box1"":""100"",""box2"":""100""}","",2,"round2_ready",2,2,2,NA,NA,NA,NA,NA,NA,NA,NA,NA,NA,NA,NA,NA,NA,100,100,100,100,NA,NA,NA,NA,NA,NA,NA,NA,NA,NA,NA,NA,NA,NA,NA,NA,NA,NA,"",NA,NA,NA,NA,NA,NA,NA,NA,NA,2025-11-18 03:02:11
"11501.300000011921","https://psyc-201.github.io/xiang2023/exp/index1.html?PROLIFIC_PID=REDACTED&STUDY_ID=69168b21477cff9ada6cb980&SESSION_ID=691bdef8ccef6a324b05b3b3","survey-html-form",16,362376,"0.0-319.0","FeMmCCMHBYpgJlsD29iciL/A1TqFdYCQ+BQpHoCEG0IIYm/Dxr6XFyixUfnbRnO74C0URm6etCFixf+EkzQcKk+mRiyjq16pk8o4x8frYk8k5tdx4uGUlzaPH13oDYR9qJv7036hfTwQLrKsya4PHgt9R1dmqisl6yukI2h96lrhf95OWOg6HXvQ2hfZ1e0VEY6RXGd06deSnFunwoHi6ZeEmtg2Yn+3SwygiX3Y5hzj/g5a2TysJpw/UIYZhsfyDedYafMD3SV/VdPRJRYgUZJ5phELF4/Vu6iKQ90KDIpS9vbBm/6D0gDwcG8urzg9qLk6QBOtkeZfzf7a/QWv/w==","69168b21477cff9ada6cb980","691bdef8ccef6a324b05b3b3","index1","<span style='color:red'>Fail,<span style='color:red'>Fail,<span style='color:green'>Lift,<span style='color:green'>Lift,<span style='color:red'>Fail,<span style='color:red'>Fail,<span style='color:red'>Fail,<span style='color:red'>Fail,<span style='color:red'>Fail,<span style='color:green'>Lift,<span style='color:red'>Fail,<span style='color:green'>Lift","<span style='color:red'>Fail,<span style='color:red'>Fail,<span style='color:green'>Lift,<span style='color:green'>Lift,<span style='color:green'>Lift,<span style='color:green'>Lift,<span style='color:green'>Lift,<span style='color:red'>Fail,<span style='color:green'>Lift,<span style='color:green'>Lift,<span style='color:red'>Fail,<span style='color:green'>Lift","<span style='color:red'>Fail,<span style='color:green'>Lift,<span style='color:green'>Lift,<span style='color:red'>Fail,<span style='color:green'>Lift,<span style='color:green'>Lift","0,0,1,1,0,0,0,0,0,1,0,1","0,0,1,1,1,1,1,0,1,1,0,1","0,1,1,0,1,1",10,20,20,"","","","","{""box1"":""7"",""box2"":""8"",""box3"":""80"",""box4"":""70""}","",2,"round2_outcome",3,2,2,7,8,80,70,1,1,20,NA,NA,NA,NA,NA,NA,NA,NA,NA,NA,NA,7,8,80,70,1,1,20,NA,NA,NA,NA,NA,NA,NA,NA,NA,NA,NA,"",NA,NA,NA,NA,NA,NA,NA,NA,NA,2025-11-18 03:02:11
"3891.5","https://psyc-201.github.io/xiang2023/exp/index1.html?PROLIFIC_PID=REDACTED&STUDY_ID=69168b21477cff9ada6cb980&SESSION_ID=691bdef8ccef6a324b05b3b3","survey-html-form",17,366271,"0.0-320.0","FeMmCCMHBYpgJlsD29iciL/A1TqFdYCQ+BQpHoCEG0IIYm/Dxr6XFyixUfnbRnO74C0URm6etCFixf+EkzQcKk+mRiyjq16pk8o4x8frYk8k5tdx4uGUlzaPH13oDYR9qJv7036hfTwQLrKsya4PHgt9R1dmqisl6yukI2h96lrhf95OWOg6HXvQ2hfZ1e0VEY6RXGd06deSnFunwoHi6ZeEmtg2Yn+3SwygiX3Y5hzj/g5a2TysJpw/UIYZhsfyDedYafMD3SV/VdPRJRYgUZJ5phELF4/Vu6iKQ90KDIpS9vbBm/6D0gDwcG8urzg9qLk6QBOtkeZfzf7a/QWv/w==","69168b21477cff9ada6cb980","691bdef8ccef6a324b05b3b3","index1","<span style='color:red'>Fail,<span style='color:red'>Fail,<span style='color:green'>Lift,<span style='color:green'>Lift,<span style='color:red'>Fail,<span style='color:red'>Fail,<span style='color:red'>Fail,<span style='color:red'>Fail,<span style='color:red'>Fail,<span style='color:green'>Lift,<span style='color:red'>Fail,<span style='color:green'>Lift","<span style='color:red'>Fail,<span style='color:red'>Fail,<span style='color:green'>Lift,<span style='color:green'>Lift,<span style='color:green'>Lift,<span style='color:green'>Lift,<span style='color:green'>Lift,<span style='color:red'>Fail,<span style='color:green'>Lift,<span style='color:green'>Lift,<span style='color:red'>Fail,<span style='color:green'>Lift","<span style='color:red'>Fail,<span style='color:green'>Lift,<span style='color:green'>Lift,<span style='color:red'>Fail,<span style='color:green'>Lift,<span style='color:green'>Lift","0,0,1,1,0,0,0,0,0,1,0,1","0,0,1,1,1,1,1,0,1,1,0,1","0,1,1,0,1,1",10,20,20,"","","","","{""box1"":""100""}","",2,"round3_ready",4,2,3,NA,NA,NA,NA,NA,NA,NA,NA,NA,NA,NA,NA,NA,NA,100,100,NA,NA,NA,NA,NA,NA,NA,NA,NA,100,100,NA,NA,NA,NA,NA,NA,NA,NA,NA,"",NA,NA,NA,NA,NA,NA,NA,NA,NA,2025-11-18 03:02:11
"15235","https://psyc-201.github.io/xiang2023/exp/index1.html?PROLIFIC_PID=REDACTED&STUDY_ID=69168b21477cff9ada6cb980&SESSION_ID=691bdef8ccef6a324b05b3b3","survey-html-form",18,381510,"0.0-321.0-0.0","FeMmCCMHBYpgJlsD29iciL/A1TqFdYCQ+BQpHoCEG0IIYm/Dxr6XFyixUfnbRnO74C0URm6etCFixf+EkzQcKk+mRiyjq16pk8o4x8frYk8k5tdx4uGUlzaPH13oDYR9qJv7036hfTwQLrKsya4PHgt9R1dmqisl6yukI2h96lrhf95OWOg6HXvQ2hfZ1e0VEY6RXGd06deSnFunwoHi6ZeEmtg2Yn+3SwygiX3Y5hzj/g5a2TysJpw/UIYZhsfyDedYafMD3SV/VdPRJRYgUZJ5phELF4/Vu6iKQ90KDIpS9vbBm/6D0gDwcG8urzg9qLk6QBOtkeZfzf7a/QWv/w==","69168b21477cff9ada6cb980","691bdef8ccef6a324b05b3b3","index1","<span style='color:red'>Fail,<span style='color:red'>Fail,<span style='color:green'>Lift,<span style='color:green'>Lift,<span style='color:red'>Fail,<span style='color:red'>Fail,<span style='color:red'>Fail,<span style='color:red'>Fail,<span style='color:red'>Fail,<span style='color:green'>Lift,<span style='color:red'>Fail,<span style='color:green'>Lift","<span style='color:red'>Fail,<span style='color:red'>Fail,<span style='color:green'>Lift,<span style='color:green'>Lift,<span style='color:green'>Lift,<span style='color:green'>Lift,<span style='color:green'>Lift,<span style='color:red'>Fail,<span style='color:green'>Lift,<span style='color:green'>Lift,<span style='color:red'>Fail,<span style='color:green'>Lift","<span style='color:red'>Fail,<span style='color:green'>Lift,<span style='color:green'>Lift,<span style='color:red'>Fail,<span style='color:green'>Lift,<span style='color:green'>Lift","0,0,1,1,0,0,0,0,0,1,0,1","0,0,1,1,1,1,1,0,1,1,0,1","0,1,1,0,1,1",10,20,20,"","","","","{""box1"":""7"",""box2"":""8"",""box3"":""50"",""box4"":""50""}","",3,"round3_lift",5,2,3,7,8,50,50,1,1,20,NA,NA,NA,NA,NA,NA,NA,NA,NA,NA,NA,NA,NA,NA,NA,NA,NA,NA,NA,NA,NA,NA,7,8,1,1,20,50,50,"",NA,NA,NA,NA,NA,NA,NA,NA,NA,2025-11-18 03:02:11
"null","https://psyc-201.github.io/xiang2023/exp/index1.html?PROLIFIC_PID=REDACTED&STUDY_ID=69168b21477cff9ada6cb980&SESSION_ID=691bdef8ccef6a324b05b3b3","html-keyboard-response",19,384512,"0.0-325.0","FeMmCCMHBYpgJlsD29iciL/A1TqFdYCQ+BQpHoCEG0IIYm/Dxr6XFyixUfnbRnO74C0URm6etCFixf+EkzQcKk+mRiyjq16pk8o4x8frYk8k5tdx4uGUlzaPH13oDYR9qJv7036hfTwQLrKsya4PHgt9R1dmqisl6yukI2h96lrhf95OWOg6HXvQ2hfZ1e0VEY6RXGd06deSnFunwoHi6ZeEmtg2Yn+3SwygiX3Y5hzj/g5a2TysJpw/UIYZhsfyDedYafMD3SV/VdPRJRYgUZJ5phELF4/Vu6iKQ90KDIpS9vbBm/6D0gDwcG8urzg9qLk6QBOtkeZfzf7a/QWv/w==","69168b21477cff9ada6cb980","691bdef8ccef6a324b05b3b3","index1","<span style='color:red'>Fail,<span style='color:red'>Fail,<span style='color:green'>Lift,<span style='color:green'>Lift,<span style='color:red'>Fail,<span style='color:red'>Fail,<span style='color:red'>Fail,<span style='color:red'>Fail,<span style='color:red'>Fail,<span style='color:green'>Lift,<span style='color:red'>Fail,<span style='color:green'>Lift","<span style='color:red'>Fail,<span style='color:red'>Fail,<span style='color:green'>Lift,<span style='color:green'>Lift,<span style='color:green'>Lift,<span style='color:green'>Lift,<span style='color:green'>Lift,<span style='color:red'>Fail,<span style='color:green'>Lift,<span style='color:green'>Lift,<span style='color:red'>Fail,<span style='color:green'>Lift","<span style='color:red'>Fail,<span style='color:green'>Lift,<span style='color:green'>Lift,<span style='color:red'>Fail,<span style='color:green'>Lift,<span style='color:green'>Lift","0,0,1,1,0,0,0,0,0,1,0,1","0,0,1,1,1,1,1,0,1,1,0,1","0,1,1,0,1,1",10,20,20,"","","<p style='font-size:30px'><b> New Contest! </b></p>","null","","",3,"",NA,NA,NA,NA,NA,NA,NA,NA,NA,NA,NA,NA,NA,NA,NA,NA,NA,NA,NA,NA,NA,NA,NA,NA,NA,NA,NA,NA,NA,NA,NA,NA,NA,NA,NA,NA,NA,NA,NA,"",NA,NA,NA,NA,NA,NA,NA,NA,NA,2025-11-18 03:02:11
"10080.5","https://psyc-201.github.io/xiang2023/exp/index1.html?PROLIFIC_PID=REDACTED&STUDY_ID=69168b21477cff9ada6cb980&SESSION_ID=691bdef8ccef6a324b05b3b3","survey-html-form",20,394595,"0.0-326.0","FeMmCCMHBYpgJlsD29iciL/A1TqFdYCQ+BQpHoCEG0IIYm/Dxr6XFyixUfnbRnO74C0URm6etCFixf+EkzQcKk+mRiyjq16pk8o4x8frYk8k5tdx4uGUlzaPH13oDYR9qJv7036hfTwQLrKsya4PHgt9R1dmqisl6yukI2h96lrhf95OWOg6HXvQ2hfZ1e0VEY6RXGd06deSnFunwoHi6ZeEmtg2Yn+3SwygiX3Y5hzj/g5a2TysJpw/UIYZhsfyDedYafMD3SV/VdPRJRYgUZJ5phELF4/Vu6iKQ90KDIpS9vbBm/6D0gDwcG8urzg9qLk6QBOtkeZfzf7a/QWv/w==","69168b21477cff9ada6cb980","691bdef8ccef6a324b05b3b3","index1","<span style='color:red'>Fail,<span style='color:red'>Fail,<span style='color:green'>Lift,<span style='color:green'>Lift,<span style='color:red'>Fail,<span style='color:red'>Fail,<span style='color:red'>Fail,<span style='color:red'>Fail,<span style='color:red'>Fail,<span style='color:green'>Lift,<span style='color:red'>Fail,<span style='color:green'>Lift","<span style='color:red'>Fail,<span style='color:red'>Fail,<span style='color:green'>Lift,<span style='color:green'>Lift,<span style='color:green'>Lift,<span style='color:green'>Lift,<span style='color:green'>Lift,<span style='color:red'>Fail,<span style='color:green'>Lift,<span style='color:green'>Lift,<span style='color:red'>Fail,<span style='color:green'>Lift","<span style='color:red'>Fail,<span style='color:green'>Lift,<span style='color:green'>Lift,<span style='color:red'>Fail,<span style='color:green'>Lift,<span style='color:green'>Lift","0,0,1,1,0,0,0,0,0,1,0,1","0,0,1,1,1,1,1,0,1,1,0,1","0,1,1,0,1,1",10,20,20,"","","","","{""box1"":""3"",""box2"":""3""}","",3,"round1_outcome",1,3,1,3,3,NA,NA,0,0,10,3,3,NA,NA,0,0,10,NA,NA,NA,NA,NA,NA,NA,NA,NA,NA,NA,NA,NA,NA,NA,NA,NA,NA,NA,NA,NA,NA,"",NA,NA,NA,NA,NA,NA,NA,NA,NA,2025-11-18 03:02:11
"6996.200000047684","https://psyc-201.github.io/xiang2023/exp/index1.html?PROLIFIC_PID=REDACTED&STUDY_ID=69168b21477cff9ada6cb980&SESSION_ID=691bdef8ccef6a324b05b3b3","survey-html-form",21,401594,"0.0-327.0","FeMmCCMHBYpgJlsD29iciL/A1TqFdYCQ+BQpHoCEG0IIYm/Dxr6XFyixUfnbRnO74C0URm6etCFixf+EkzQcKk+mRiyjq16pk8o4x8frYk8k5tdx4uGUlzaPH13oDYR9qJv7036hfTwQLrKsya4PHgt9R1dmqisl6yukI2h96lrhf95OWOg6HXvQ2hfZ1e0VEY6RXGd06deSnFunwoHi6ZeEmtg2Yn+3SwygiX3Y5hzj/g5a2TysJpw/UIYZhsfyDedYafMD3SV/VdPRJRYgUZJ5phELF4/Vu6iKQ90KDIpS9vbBm/6D0gDwcG8urzg9qLk6QBOtkeZfzf7a/QWv/w==","69168b21477cff9ada6cb980","691bdef8ccef6a324b05b3b3","index1","<span style='color:red'>Fail,<span style='color:red'>Fail,<span style='color:green'>Lift,<span style='color:green'>Lift,<span style='color:red'>Fail,<span style='color:red'>Fail,<span style='color:red'>Fail,<span style='color:red'>Fail,<span style='color:red'>Fail,<span style='color:green'>Lift,<span style='color:red'>Fail,<span style='color:green'>Lift","<span style='color:red'>Fail,<span style='color:red'>Fail,<span style='color:green'>Lift,<span style='color:green'>Lift,<span style='color:green'>Lift,<span style='color:green'>Lift,<span style='color:green'>Lift,<span style='color:red'>Fail,<span style='color:green'>Lift,<span style='color:green'>Lift,<span style='color:red'>Fail,<span style='color:green'>Lift","<span style='color:red'>Fail,<span style='color:green'>Lift,<span style='color:green'>Lift,<span style='color:red'>Fail,<span style='color:green'>Lift,<span style='color:green'>Lift","0,0,1,1,0,0,0,0,0,1,0,1","0,0,1,1,1,1,1,0,1,1,0,1","0,1,1,0,1,1",10,20,20,"","","","","{""box1"":""40"",""box2"":""40""}","",3,"round2_ready",2,3,2,NA,NA,NA,NA,NA,NA,NA,NA,NA,NA,NA,NA,NA,NA,40,40,40,40,NA,NA,NA,NA,NA,NA,NA,NA,NA,NA,NA,NA,NA,NA,NA,NA,NA,NA,"",NA,NA,NA,NA,NA,NA,NA,NA,NA,2025-11-18 03:02:11
"22085.80000001192","https://psyc-201.github.io/xiang2023/exp/index1.html?PROLIFIC_PID=REDACTED&STUDY_ID=69168b21477cff9ada6cb980&SESSION_ID=691bdef8ccef6a324b05b3b3","survey-html-form",22,423682,"0.0-328.0","FeMmCCMHBYpgJlsD29iciL/A1TqFdYCQ+BQpHoCEG0IIYm/Dxr6XFyixUfnbRnO74C0URm6etCFixf+EkzQcKk+mRiyjq16pk8o4x8frYk8k5tdx4uGUlzaPH13oDYR9qJv7036hfTwQLrKsya4PHgt9R1dmqisl6yukI2h96lrhf95OWOg6HXvQ2hfZ1e0VEY6RXGd06deSnFunwoHi6ZeEmtg2Yn+3SwygiX3Y5hzj/g5a2TysJpw/UIYZhsfyDedYafMD3SV/VdPRJRYgUZJ5phELF4/Vu6iKQ90KDIpS9vbBm/6D0gDwcG8urzg9qLk6QBOtkeZfzf7a/QWv/w==","69168b21477cff9ada6cb980","691bdef8ccef6a324b05b3b3","index1","<span style='color:red'>Fail,<span style='color:red'>Fail,<span style='color:green'>Lift,<span style='color:green'>Lift,<span style='color:red'>Fail,<span style='color:red'>Fail,<span style='color:red'>Fail,<span style='color:red'>Fail,<span style='color:red'>Fail,<span style='color:green'>Lift,<span style='color:red'>Fail,<span style='color:green'>Lift","<span style='color:red'>Fail,<span style='color:red'>Fail,<span style='color:green'>Lift,<span style='color:green'>Lift,<span style='color:green'>Lift,<span style='color:green'>Lift,<span style='color:green'>Lift,<span style='color:red'>Fail,<span style='color:green'>Lift,<span style='color:green'>Lift,<span style='color:red'>Fail,<span style='color:green'>Lift","<span style='color:red'>Fail,<span style='color:green'>Lift,<span style='color:green'>Lift,<span style='color:red'>Fail,<span style='color:green'>Lift,<span style='color:green'>Lift","0,0,1,1,0,0,0,0,0,1,0,1","0,0,1,1,1,1,1,0,1,1,0,1","0,1,1,0,1,1",10,20,20,"","","","","{""box1"":""6"",""box2"":""3"",""box3"":""80""}","",3,"round2_outcome",3,3,2,6,3,80,NA,1,0,20,NA,NA,NA,NA,NA,NA,NA,NA,NA,NA,NA,6,3,80,NA,1,0,20,NA,NA,NA,NA,NA,NA,NA,NA,NA,NA,NA,"",NA,NA,NA,NA,NA,NA,NA,NA,NA,2025-11-18 03:02:11
"6952.199999988079","https://psyc-201.github.io/xiang2023/exp/index1.html?PROLIFIC_PID=REDACTED&STUDY_ID=69168b21477cff9ada6cb980&SESSION_ID=691bdef8ccef6a324b05b3b3","survey-html-form",23,430638,"0.0-329.0","FeMmCCMHBYpgJlsD29iciL/A1TqFdYCQ+BQpHoCEG0IIYm/Dxr6XFyixUfnbRnO74C0URm6etCFixf+EkzQcKk+mRiyjq16pk8o4x8frYk8k5tdx4uGUlzaPH13oDYR9qJv7036hfTwQLrKsya4PHgt9R1dmqisl6yukI2h96lrhf95OWOg6HXvQ2hfZ1e0VEY6RXGd06deSnFunwoHi6ZeEmtg2Yn+3SwygiX3Y5hzj/g5a2TysJpw/UIYZhsfyDedYafMD3SV/VdPRJRYgUZJ5phELF4/Vu6iKQ90KDIpS9vbBm/6D0gDwcG8urzg9qLk6QBOtkeZfzf7a/QWv/w==","69168b21477cff9ada6cb980","691bdef8ccef6a324b05b3b3","index1","<span style='color:red'>Fail,<span style='color:red'>Fail,<span style='color:green'>Lift,<span style='color:green'>Lift,<span style='color:red'>Fail,<span style='color:red'>Fail,<span style='color:red'>Fail,<span style='color:red'>Fail,<span style='color:red'>Fail,<span style='color:green'>Lift,<span style='color:red'>Fail,<span style='color:green'>Lift","<span style='color:red'>Fail,<span style='color:red'>Fail,<span style='color:green'>Lift,<span style='color:green'>Lift,<span style='color:green'>Lift,<span style='color:green'>Lift,<span style='color:green'>Lift,<span style='color:red'>Fail,<span style='color:green'>Lift,<span style='color:green'>Lift,<span style='color:red'>Fail,<span style='color:green'>Lift","<span style='color:red'>Fail,<span style='color:green'>Lift,<span style='color:green'>Lift,<span style='color:red'>Fail,<span style='color:green'>Lift,<span style='color:green'>Lift","0,0,1,1,0,0,0,0,0,1,0,1","0,0,1,1,1,1,1,0,1,1,0,1","0,1,1,0,1,1",10,20,20,"","","","","{""box1"":""90""}","",3,"round3_ready",4,3,3,NA,NA,NA,NA,NA,NA,NA,NA,NA,NA,NA,NA,NA,NA,90,90,NA,NA,NA,NA,NA,NA,NA,NA,NA,90,90,NA,NA,NA,NA,NA,NA,NA,NA,NA,"",NA,NA,NA,NA,NA,NA,NA,NA,NA,2025-11-18 03:02:11
"11040.5","https://psyc-201.github.io/xiang2023/exp/index1.html?PROLIFIC_PID=REDACTED&STUDY_ID=69168b21477cff9ada6cb980&SESSION_ID=691bdef8ccef6a324b05b3b3","survey-html-form",24,441681,"0.0-331.0-0.0","FeMmCCMHBYpgJlsD29iciL/A1TqFdYCQ+BQpHoCEG0IIYm/Dxr6XFyixUfnbRnO74C0URm6etCFixf+EkzQcKk+mRiyjq16pk8o4x8frYk8k5tdx4uGUlzaPH13oDYR9qJv7036hfTwQLrKsya4PHgt9R1dmqisl6yukI2h96lrhf95OWOg6HXvQ2hfZ1e0VEY6RXGd06deSnFunwoHi6ZeEmtg2Yn+3SwygiX3Y5hzj/g5a2TysJpw/UIYZhsfyDedYafMD3SV/VdPRJRYgUZJ5phELF4/Vu6iKQ90KDIpS9vbBm/6D0gDwcG8urzg9qLk6QBOtkeZfzf7a/QWv/w==","69168b21477cff9ada6cb980","691bdef8ccef6a324b05b3b3","index1","<span style='color:red'>Fail,<span style='color:red'>Fail,<span style='color:green'>Lift,<span style='color:green'>Lift,<span style='color:red'>Fail,<span style='color:red'>Fail,<span style='color:red'>Fail,<span style='color:red'>Fail,<span style='color:red'>Fail,<span style='color:green'>Lift,<span style='color:red'>Fail,<span style='color:green'>Lift","<span style='color:red'>Fail,<span style='color:red'>Fail,<span style='color:green'>Lift,<span style='color:green'>Lift,<span style='color:green'>Lift,<span style='color:green'>Lift,<span style='color:green'>Lift,<span style='color:red'>Fail,<span style='color:green'>Lift,<span style='color:green'>Lift,<span style='color:red'>Fail,<span style='color:green'>Lift","<span style='color:red'>Fail,<span style='color:green'>Lift,<span style='color:green'>Lift,<span style='color:red'>Fail,<span style='color:green'>Lift,<span style='color:green'>Lift","0,0,1,1,0,0,0,0,0,1,0,1","0,0,1,1,1,1,1,0,1,1,0,1","0,1,1,0,1,1",10,20,20,"","","","","{""box1"":""6"",""box2"":""3"",""box3"":""999"",""box4"":""999""}","",4,"round3_fail",5,3,3,6,3,NA,NA,0,0,20,NA,NA,NA,NA,NA,NA,NA,NA,NA,NA,NA,NA,NA,NA,NA,NA,NA,NA,NA,NA,1,1,6,3,0,0,20,NA,NA,"",NA,NA,NA,NA,NA,NA,NA,NA,NA,2025-11-18 03:02:11
"null","https://psyc-201.github.io/xiang2023/exp/index1.html?PROLIFIC_PID=REDACTED&STUDY_ID=69168b21477cff9ada6cb980&SESSION_ID=691bdef8ccef6a324b05b3b3","html-keyboard-response",25,444695,"0.0-334.0","FeMmCCMHBYpgJlsD29iciL/A1TqFdYCQ+BQpHoCEG0IIYm/Dxr6XFyixUfnbRnO74C0URm6etCFixf+EkzQcKk+mRiyjq16pk8o4x8frYk8k5tdx4uGUlzaPH13oDYR9qJv7036hfTwQLrKsya4PHgt9R1dmqisl6yukI2h96lrhf95OWOg6HXvQ2hfZ1e0VEY6RXGd06deSnFunwoHi6ZeEmtg2Yn+3SwygiX3Y5hzj/g5a2TysJpw/UIYZhsfyDedYafMD3SV/VdPRJRYgUZJ5phELF4/Vu6iKQ90KDIpS9vbBm/6D0gDwcG8urzg9qLk6QBOtkeZfzf7a/QWv/w==","69168b21477cff9ada6cb980","691bdef8ccef6a324b05b3b3","index1","<span style='color:red'>Fail,<span style='color:red'>Fail,<span style='color:green'>Lift,<span style='color:green'>Lift,<span style='color:red'>Fail,<span style='color:red'>Fail,<span style='color:red'>Fail,<span style='color:red'>Fail,<span style='color:red'>Fail,<span style='color:green'>Lift,<span style='color:red'>Fail,<span style='color:green'>Lift","<span style='color:red'>Fail,<span style='color:red'>Fail,<span style='color:green'>Lift,<span style='color:green'>Lift,<span style='color:green'>Lift,<span style='color:green'>Lift,<span style='color:green'>Lift,<span style='color:red'>Fail,<span style='color:green'>Lift,<span style='color:green'>Lift,<span style='color:red'>Fail,<span style='color:green'>Lift","<span style='color:red'>Fail,<span style='color:green'>Lift,<span style='color:green'>Lift,<span style='color:red'>Fail,<span style='color:green'>Lift,<span style='color:green'>Lift","0,0,1,1,0,0,0,0,0,1,0,1","0,0,1,1,1,1,1,0,1,1,0,1","0,1,1,0,1,1",10,20,20,"","","<p style='font-size:30px'><b> New Contest! </b></p>","null","","",4,"",NA,NA,NA,NA,NA,NA,NA,NA,NA,NA,NA,NA,NA,NA,NA,NA,NA,NA,NA,NA,NA,NA,NA,NA,NA,NA,NA,NA,NA,NA,NA,NA,NA,NA,NA,NA,NA,NA,NA,"",NA,NA,NA,NA,NA,NA,NA,NA,NA,2025-11-18 03:02:11
"13153.600000023842","https://psyc-201.github.io/xiang2023/exp/index1.html?PROLIFIC_PID=REDACTED&STUDY_ID=69168b21477cff9ada6cb980&SESSION_ID=691bdef8ccef6a324b05b3b3","survey-html-form",26,457851,"0.0-335.0","FeMmCCMHBYpgJlsD29iciL/A1TqFdYCQ+BQpHoCEG0IIYm/Dxr6XFyixUfnbRnO74C0URm6etCFixf+EkzQcKk+mRiyjq16pk8o4x8frYk8k5tdx4uGUlzaPH13oDYR9qJv7036hfTwQLrKsya4PHgt9R1dmqisl6yukI2h96lrhf95OWOg6HXvQ2hfZ1e0VEY6RXGd06deSnFunwoHi6ZeEmtg2Yn+3SwygiX3Y5hzj/g5a2TysJpw/UIYZhsfyDedYafMD3SV/VdPRJRYgUZJ5phELF4/Vu6iKQ90KDIpS9vbBm/6D0gDwcG8urzg9qLk6QBOtkeZfzf7a/QWv/w==","69168b21477cff9ada6cb980","691bdef8ccef6a324b05b3b3","index1","<span style='color:red'>Fail,<span style='color:red'>Fail,<span style='color:green'>Lift,<span style='color:green'>Lift,<span style='color:red'>Fail,<span style='color:red'>Fail,<span style='color:red'>Fail,<span style='color:red'>Fail,<span style='color:red'>Fail,<span style='color:green'>Lift,<span style='color:red'>Fail,<span style='color:green'>Lift","<span style='color:red'>Fail,<span style='color:red'>Fail,<span style='color:green'>Lift,<span style='color:green'>Lift,<span style='color:green'>Lift,<span style='color:green'>Lift,<span style='color:green'>Lift,<span style='color:red'>Fail,<span style='color:green'>Lift,<span style='color:green'>Lift,<span style='color:red'>Fail,<span style='color:green'>Lift","<span style='color:red'>Fail,<span style='color:green'>Lift,<span style='color:green'>Lift,<span style='color:red'>Fail,<span style='color:green'>Lift,<span style='color:green'>Lift","0,0,1,1,0,0,0,0,0,1,0,1","0,0,1,1,1,1,1,0,1,1,0,1","0,1,1,0,1,1",10,20,20,"","","","","{""box1"":""4"",""box2"":""8"",""box4"":""80""}","",4,"round1_outcome",1,4,1,4,8,NA,80,0,1,10,4,8,NA,80,0,1,10,NA,NA,NA,NA,NA,NA,NA,NA,NA,NA,NA,NA,NA,NA,NA,NA,NA,NA,NA,NA,NA,NA,"",NA,NA,NA,NA,NA,NA,NA,NA,NA,2025-11-18 03:02:11
"8003.200000047684","https://psyc-201.github.io/xiang2023/exp/index1.html?PROLIFIC_PID=REDACTED&STUDY_ID=69168b21477cff9ada6cb980&SESSION_ID=691bdef8ccef6a324b05b3b3","survey-html-form",27,465857,"0.0-336.0","FeMmCCMHBYpgJlsD29iciL/A1TqFdYCQ+BQpHoCEG0IIYm/Dxr6XFyixUfnbRnO74C0URm6etCFixf+EkzQcKk+mRiyjq16pk8o4x8frYk8k5tdx4uGUlzaPH13oDYR9qJv7036hfTwQLrKsya4PHgt9R1dmqisl6yukI2h96lrhf95OWOg6HXvQ2hfZ1e0VEY6RXGd06deSnFunwoHi6ZeEmtg2Yn+3SwygiX3Y5hzj/g5a2TysJpw/UIYZhsfyDedYafMD3SV/VdPRJRYgUZJ5phELF4/Vu6iKQ90KDIpS9vbBm/6D0gDwcG8urzg9qLk6QBOtkeZfzf7a/QWv/w==","69168b21477cff9ada6cb980","691bdef8ccef6a324b05b3b3","index1","<span style='color:red'>Fail,<span style='color:red'>Fail,<span style='color:green'>Lift,<span style='color:green'>Lift,<span style='color:red'>Fail,<span style='color:red'>Fail,<span style='color:red'>Fail,<span style='color:red'>Fail,<span style='color:red'>Fail,<span style='color:green'>Lift,<span style='color:red'>Fail,<span style='color:green'>Lift","<span style='color:red'>Fail,<span style='color:red'>Fail,<span style='color:green'>Lift,<span style='color:green'>Lift,<span style='color:green'>Lift,<span style='color:green'>Lift,<span style='color:green'>Lift,<span style='color:red'>Fail,<span style='color:green'>Lift,<span style='color:green'>Lift,<span style='color:red'>Fail,<span style='color:green'>Lift","<span style='color:red'>Fail,<span style='color:green'>Lift,<span style='color:green'>Lift,<span style='color:red'>Fail,<span style='color:green'>Lift,<span style='color:green'>Lift","0,0,1,1,0,0,0,0,0,1,0,1","0,0,1,1,1,1,1,0,1,1,0,1","0,1,1,0,1,1",10,20,20,"","","","","{""box1"":""40"",""box2"":""80""}","",4,"round2_ready",2,4,2,NA,NA,NA,NA,NA,NA,NA,NA,NA,NA,NA,NA,NA,NA,40,80,40,80,NA,NA,NA,NA,NA,NA,NA,NA,NA,NA,NA,NA,NA,NA,NA,NA,NA,NA,"",NA,NA,NA,NA,NA,NA,NA,NA,NA,2025-11-18 03:02:11
"12730.5","https://psyc-201.github.io/xiang2023/exp/index1.html?PROLIFIC_PID=REDACTED&STUDY_ID=69168b21477cff9ada6cb980&SESSION_ID=691bdef8ccef6a324b05b3b3","survey-html-form",28,478590,"0.0-337.0","FeMmCCMHBYpgJlsD29iciL/A1TqFdYCQ+BQpHoCEG0IIYm/Dxr6XFyixUfnbRnO74C0URm6etCFixf+EkzQcKk+mRiyjq16pk8o4x8frYk8k5tdx4uGUlzaPH13oDYR9qJv7036hfTwQLrKsya4PHgt9R1dmqisl6yukI2h96lrhf95OWOg6HXvQ2hfZ1e0VEY6RXGd06deSnFunwoHi6ZeEmtg2Yn+3SwygiX3Y5hzj/g5a2TysJpw/UIYZhsfyDedYafMD3SV/VdPRJRYgUZJ5phELF4/Vu6iKQ90KDIpS9vbBm/6D0gDwcG8urzg9qLk6QBOtkeZfzf7a/QWv/w==","69168b21477cff9ada6cb980","691bdef8ccef6a324b05b3b3","index1","<span style='color:red'>Fail,<span style='color:red'>Fail,<span style='color:green'>Lift,<span style='color:green'>Lift,<span style='color:red'>Fail,<span style='color:red'>Fail,<span style='color:red'>Fail,<span style='color:red'>Fail,<span style='color:red'>Fail,<span style='color:green'>Lift,<span style='color:red'>Fail,<span style='color:green'>Lift","<span style='color:red'>Fail,<span style='color:red'>Fail,<span style='color:green'>Lift,<span style='color:green'>Lift,<span style='color:green'>Lift,<span style='color:green'>Lift,<span style='color:green'>Lift,<span style='color:red'>Fail,<span style='color:green'>Lift,<span style='color:green'>Lift,<span style='color:red'>Fail,<span style='color:green'>Lift","<span style='color:red'>Fail,<span style='color:green'>Lift,<span style='color:green'>Lift,<span style='color:red'>Fail,<span style='color:green'>Lift,<span style='color:green'>Lift","0,0,1,1,0,0,0,0,0,1,0,1","0,0,1,1,1,1,1,0,1,1,0,1","0,1,1,0,1,1",10,20,20,"","","","","{""box1"":""4"",""box2"":""8"",""box4"":""70""}","",4,"round2_outcome",3,4,2,4,8,NA,70,0,1,20,NA,NA,NA,NA,NA,NA,NA,NA,NA,NA,NA,4,8,NA,70,0,1,20,NA,NA,NA,NA,NA,NA,NA,NA,NA,NA,NA,"",NA,NA,NA,NA,NA,NA,NA,NA,NA,2025-11-18 03:02:11
"8592.600000023842","https://psyc-201.github.io/xiang2023/exp/index1.html?PROLIFIC_PID=REDACTED&STUDY_ID=69168b21477cff9ada6cb980&SESSION_ID=691bdef8ccef6a324b05b3b3","survey-html-form",29,487185,"0.0-338.0","FeMmCCMHBYpgJlsD29iciL/A1TqFdYCQ+BQpHoCEG0IIYm/Dxr6XFyixUfnbRnO74C0URm6etCFixf+EkzQcKk+mRiyjq16pk8o4x8frYk8k5tdx4uGUlzaPH13oDYR9qJv7036hfTwQLrKsya4PHgt9R1dmqisl6yukI2h96lrhf95OWOg6HXvQ2hfZ1e0VEY6RXGd06deSnFunwoHi6ZeEmtg2Yn+3SwygiX3Y5hzj/g5a2TysJpw/UIYZhsfyDedYafMD3SV/VdPRJRYgUZJ5phELF4/Vu6iKQ90KDIpS9vbBm/6D0gDwcG8urzg9qLk6QBOtkeZfzf7a/QWv/w==","69168b21477cff9ada6cb980","691bdef8ccef6a324b05b3b3","index1","<span style='color:red'>Fail,<span style='color:red'>Fail,<span style='color:green'>Lift,<span style='color:green'>Lift,<span style='color:red'>Fail,<span style='color:red'>Fail,<span style='color:red'>Fail,<span style='color:red'>Fail,<span style='color:red'>Fail,<span style='color:green'>Lift,<span style='color:red'>Fail,<span style='color:green'>Lift","<span style='color:red'>Fail,<span style='color:red'>Fail,<span style='color:green'>Lift,<span style='color:green'>Lift,<span style='color:green'>Lift,<span style='color:green'>Lift,<span style='color:green'>Lift,<span style='color:red'>Fail,<span style='color:green'>Lift,<span style='color:green'>Lift,<span style='color:red'>Fail,<span style='color:green'>Lift","<span style='color:red'>Fail,<span style='color:green'>Lift,<span style='color:green'>Lift,<span style='color:red'>Fail,<span style='color:green'>Lift,<span style='color:green'>Lift","0,0,1,1,0,0,0,0,0,1,0,1","0,0,1,1,1,1,1,0,1,1,0,1","0,1,1,0,1,1",10,20,20,"","","","","{""box1"":""80""}","",4,"round3_ready",4,4,3,NA,NA,NA,NA,NA,NA,NA,NA,NA,NA,NA,NA,NA,NA,80,80,NA,NA,NA,NA,NA,NA,NA,NA,NA,80,80,NA,NA,NA,NA,NA,NA,NA,NA,NA,"",NA,NA,NA,NA,NA,NA,NA,NA,NA,2025-11-18 03:02:11
"12116.300000011921","https://psyc-201.github.io/xiang2023/exp/index1.html?PROLIFIC_PID=REDACTED&STUDY_ID=69168b21477cff9ada6cb980&SESSION_ID=691bdef8ccef6a324b05b3b3","survey-html-form",30,499305,"0.0-339.0-0.0","FeMmCCMHBYpgJlsD29iciL/A1TqFdYCQ+BQpHoCEG0IIYm/Dxr6XFyixUfnbRnO74C0URm6etCFixf+EkzQcKk+mRiyjq16pk8o4x8frYk8k5tdx4uGUlzaPH13oDYR9qJv7036hfTwQLrKsya4PHgt9R1dmqisl6yukI2h96lrhf95OWOg6HXvQ2hfZ1e0VEY6RXGd06deSnFunwoHi6ZeEmtg2Yn+3SwygiX3Y5hzj/g5a2TysJpw/UIYZhsfyDedYafMD3SV/VdPRJRYgUZJ5phELF4/Vu6iKQ90KDIpS9vbBm/6D0gDwcG8urzg9qLk6QBOtkeZfzf7a/QWv/w==","69168b21477cff9ada6cb980","691bdef8ccef6a324b05b3b3","index1","<span style='color:red'>Fail,<span style='color:red'>Fail,<span style='color:green'>Lift,<span style='color:green'>Lift,<span style='color:red'>Fail,<span style='color:red'>Fail,<span style='color:red'>Fail,<span style='color:red'>Fail,<span style='color:red'>Fail,<span style='color:green'>Lift,<span style='color:red'>Fail,<span style='color:green'>Lift","<span style='color:red'>Fail,<span style='color:red'>Fail,<span style='color:green'>Lift,<span style='color:green'>Lift,<span style='color:green'>Lift,<span style='color:green'>Lift,<span style='color:green'>Lift,<span style='color:red'>Fail,<span style='color:green'>Lift,<span style='color:green'>Lift,<span style='color:red'>Fail,<span style='color:green'>Lift","<span style='color:red'>Fail,<span style='color:green'>Lift,<span style='color:green'>Lift,<span style='color:red'>Fail,<span style='color:green'>Lift,<span style='color:green'>Lift","0,0,1,1,0,0,0,0,0,1,0,1","0,0,1,1,1,1,1,0,1,1,0,1","0,1,1,0,1,1",10,20,20,"","","","","{""box1"":""4"",""box2"":""8"",""box3"":""100"",""box4"":""75""}","",5,"round3_lift",5,4,3,4,8,100,75,1,1,20,NA,NA,NA,NA,NA,NA,NA,NA,NA,NA,NA,NA,NA,NA,NA,NA,NA,NA,NA,NA,NA,NA,4,8,1,1,20,100,75,"",NA,NA,NA,NA,NA,NA,NA,NA,NA,2025-11-18 03:02:11
"null","https://psyc-201.github.io/xiang2023/exp/index1.html?PROLIFIC_PID=REDACTED&STUDY_ID=69168b21477cff9ada6cb980&SESSION_ID=691bdef8ccef6a324b05b3b3","html-keyboard-response",31,502313,"0.0-343.0","FeMmCCMHBYpgJlsD29iciL/A1TqFdYCQ+BQpHoCEG0IIYm/Dxr6XFyixUfnbRnO74C0URm6etCFixf+EkzQcKk+mRiyjq16pk8o4x8frYk8k5tdx4uGUlzaPH13oDYR9qJv7036hfTwQLrKsya4PHgt9R1dmqisl6yukI2h96lrhf95OWOg6HXvQ2hfZ1e0VEY6RXGd06deSnFunwoHi6ZeEmtg2Yn+3SwygiX3Y5hzj/g5a2TysJpw/UIYZhsfyDedYafMD3SV/VdPRJRYgUZJ5phELF4/Vu6iKQ90KDIpS9vbBm/6D0gDwcG8urzg9qLk6QBOtkeZfzf7a/QWv/w==","69168b21477cff9ada6cb980","691bdef8ccef6a324b05b3b3","index1","<span style='color:red'>Fail,<span style='color:red'>Fail,<span style='color:green'>Lift,<span style='color:green'>Lift,<span style='color:red'>Fail,<span style='color:red'>Fail,<span style='color:red'>Fail,<span style='color:red'>Fail,<span style='color:red'>Fail,<span style='color:green'>Lift,<span style='color:red'>Fail,<span style='color:green'>Lift","<span style='color:red'>Fail,<span style='color:red'>Fail,<span style='color:green'>Lift,<span style='color:green'>Lift,<span style='color:green'>Lift,<span style='color:green'>Lift,<span style='color:green'>Lift,<span style='color:red'>Fail,<span style='color:green'>Lift,<span style='color:green'>Lift,<span style='color:red'>Fail,<span style='color:green'>Lift","<span style='color:red'>Fail,<span style='color:green'>Lift,<span style='color:green'>Lift,<span style='color:red'>Fail,<span style='color:green'>Lift,<span style='color:green'>Lift","0,0,1,1,0,0,0,0,0,1,0,1","0,0,1,1,1,1,1,0,1,1,0,1","0,1,1,0,1,1",10,20,20,"","","<p style='font-size:30px'><b> New Contest! </b></p>","null","","",5,"",NA,NA,NA,NA,NA,NA,NA,NA,NA,NA,NA,NA,NA,NA,NA,NA,NA,NA,NA,NA,NA,NA,NA,NA,NA,NA,NA,NA,NA,NA,NA,NA,NA,NA,NA,NA,NA,NA,NA,"",NA,NA,NA,NA,NA,NA,NA,NA,NA,2025-11-18 03:02:11
"12547","https://psyc-201.github.io/xiang2023/exp/index1.html?PROLIFIC_PID=REDACTED&STUDY_ID=69168b21477cff9ada6cb980&SESSION_ID=691bdef8ccef6a324b05b3b3","survey-html-form",32,514862,"0.0-344.0","FeMmCCMHBYpgJlsD29iciL/A1TqFdYCQ+BQpHoCEG0IIYm/Dxr6XFyixUfnbRnO74C0URm6etCFixf+EkzQcKk+mRiyjq16pk8o4x8frYk8k5tdx4uGUlzaPH13oDYR9qJv7036hfTwQLrKsya4PHgt9R1dmqisl6yukI2h96lrhf95OWOg6HXvQ2hfZ1e0VEY6RXGd06deSnFunwoHi6ZeEmtg2Yn+3SwygiX3Y5hzj/g5a2TysJpw/UIYZhsfyDedYafMD3SV/VdPRJRYgUZJ5phELF4/Vu6iKQ90KDIpS9vbBm/6D0gDwcG8urzg9qLk6QBOtkeZfzf7a/QWv/w==","69168b21477cff9ada6cb980","691bdef8ccef6a324b05b3b3","index1","<span style='color:red'>Fail,<span style='color:red'>Fail,<span style='color:green'>Lift,<span style='color:green'>Lift,<span style='color:red'>Fail,<span style='color:red'>Fail,<span style='color:red'>Fail,<span style='color:red'>Fail,<span style='color:red'>Fail,<span style='color:green'>Lift,<span style='color:red'>Fail,<span style='color:green'>Lift","<span style='color:red'>Fail,<span style='color:red'>Fail,<span style='color:green'>Lift,<span style='color:green'>Lift,<span style='color:green'>Lift,<span style='color:green'>Lift,<span style='color:green'>Lift,<span style='color:red'>Fail,<span style='color:green'>Lift,<span style='color:green'>Lift,<span style='color:red'>Fail,<span style='color:green'>Lift","<span style='color:red'>Fail,<span style='color:green'>Lift,<span style='color:green'>Lift,<span style='color:red'>Fail,<span style='color:green'>Lift,<span style='color:green'>Lift","0,0,1,1,0,0,0,0,0,1,0,1","0,0,1,1,1,1,1,0,1,1,0,1","0,1,1,0,1,1",10,20,20,"","","","","{""box1"":""3"",""box2"":""3""}","",5,"round1_outcome",1,5,1,3,3,NA,NA,0,0,10,3,3,NA,NA,0,0,10,NA,NA,NA,NA,NA,NA,NA,NA,NA,NA,NA,NA,NA,NA,NA,NA,NA,NA,NA,NA,NA,NA,"",NA,NA,NA,NA,NA,NA,NA,NA,NA,2025-11-18 03:02:11
"7149.800000011921","https://psyc-201.github.io/xiang2023/exp/index1.html?PROLIFIC_PID=REDACTED&STUDY_ID=69168b21477cff9ada6cb980&SESSION_ID=691bdef8ccef6a324b05b3b3","survey-html-form",33,522014,"0.0-345.0","FeMmCCMHBYpgJlsD29iciL/A1TqFdYCQ+BQpHoCEG0IIYm/Dxr6XFyixUfnbRnO74C0URm6etCFixf+EkzQcKk+mRiyjq16pk8o4x8frYk8k5tdx4uGUlzaPH13oDYR9qJv7036hfTwQLrKsya4PHgt9R1dmqisl6yukI2h96lrhf95OWOg6HXvQ2hfZ1e0VEY6RXGd06deSnFunwoHi6ZeEmtg2Yn+3SwygiX3Y5hzj/g5a2TysJpw/UIYZhsfyDedYafMD3SV/VdPRJRYgUZJ5phELF4/Vu6iKQ90KDIpS9vbBm/6D0gDwcG8urzg9qLk6QBOtkeZfzf7a/QWv/w==","69168b21477cff9ada6cb980","691bdef8ccef6a324b05b3b3","index1","<span style='color:red'>Fail,<span style='color:red'>Fail,<span style='color:green'>Lift,<span style='color:green'>Lift,<span style='color:red'>Fail,<span style='color:red'>Fail,<span style='color:red'>Fail,<span style='color:red'>Fail,<span style='color:red'>Fail,<span style='color:green'>Lift,<span style='color:red'>Fail,<span style='color:green'>Lift","<span style='color:red'>Fail,<span style='color:red'>Fail,<span style='color:green'>Lift,<span style='color:green'>Lift,<span style='color:green'>Lift,<span style='color:green'>Lift,<span style='color:green'>Lift,<span style='color:red'>Fail,<span style='color:green'>Lift,<span style='color:green'>Lift,<span style='color:red'>Fail,<span style='color:green'>Lift","<span style='color:red'>Fail,<span style='color:green'>Lift,<span style='color:green'>Lift,<span style='color:red'>Fail,<span style='color:green'>Lift,<span style='color:green'>Lift","0,0,1,1,0,0,0,0,0,1,0,1","0,0,1,1,1,1,1,0,1,1,0,1","0,1,1,0,1,1",10,20,20,"","","","","{""box1"":""50"",""box2"":""40""}","",5,"round2_ready",2,5,2,NA,NA,NA,NA,NA,NA,NA,NA,NA,NA,NA,NA,NA,NA,50,40,50,40,NA,NA,NA,NA,NA,NA,NA,NA,NA,NA,NA,NA,NA,NA,NA,NA,NA,NA,"",NA,NA,NA,NA,NA,NA,NA,NA,NA,2025-11-18 03:02:11
"9705.899999976158","https://psyc-201.github.io/xiang2023/exp/index1.html?PROLIFIC_PID=REDACTED&STUDY_ID=69168b21477cff9ada6cb980&SESSION_ID=691bdef8ccef6a324b05b3b3","survey-html-form",34,531722,"0.0-346.0","FeMmCCMHBYpgJlsD29iciL/A1TqFdYCQ+BQpHoCEG0IIYm/Dxr6XFyixUfnbRnO74C0URm6etCFixf+EkzQcKk+mRiyjq16pk8o4x8frYk8k5tdx4uGUlzaPH13oDYR9qJv7036hfTwQLrKsya4PHgt9R1dmqisl6yukI2h96lrhf95OWOg6HXvQ2hfZ1e0VEY6RXGd06deSnFunwoHi6ZeEmtg2Yn+3SwygiX3Y5hzj/g5a2TysJpw/UIYZhsfyDedYafMD3SV/VdPRJRYgUZJ5phELF4/Vu6iKQ90KDIpS9vbBm/6D0gDwcG8urzg9qLk6QBOtkeZfzf7a/QWv/w==","69168b21477cff9ada6cb980","691bdef8ccef6a324b05b3b3","index1","<span style='color:red'>Fail,<span style='color:red'>Fail,<span style='color:green'>Lift,<span style='color:green'>Lift,<span style='color:red'>Fail,<span style='color:red'>Fail,<span style='color:red'>Fail,<span style='color:red'>Fail,<span style='color:red'>Fail,<span style='color:green'>Lift,<span style='color:red'>Fail,<span style='color:green'>Lift","<span style='color:red'>Fail,<span style='color:red'>Fail,<span style='color:green'>Lift,<span style='color:green'>Lift,<span style='color:green'>Lift,<span style='color:green'>Lift,<span style='color:green'>Lift,<span style='color:red'>Fail,<span style='color:green'>Lift,<span style='color:green'>Lift,<span style='color:red'>Fail,<span style='color:green'>Lift","<span style='color:red'>Fail,<span style='color:green'>Lift,<span style='color:green'>Lift,<span style='color:red'>Fail,<span style='color:green'>Lift,<span style='color:green'>Lift","0,0,1,1,0,0,0,0,0,1,0,1","0,0,1,1,1,1,1,0,1,1,0,1","0,1,1,0,1,1",10,20,20,"","","","","{""box1"":""5"",""box2"":""5"",""box3"":""100"",""box4"":""100""}","",5,"round2_outcome",3,5,2,5,5,100,100,1,1,20,NA,NA,NA,NA,NA,NA,NA,NA,NA,NA,NA,5,5,100,100,1,1,20,NA,NA,NA,NA,NA,NA,NA,NA,NA,NA,NA,"",NA,NA,NA,NA,NA,NA,NA,NA,NA,2025-11-18 03:02:11
"25511.399999976158","https://psyc-201.github.io/xiang2023/exp/index1.html?PROLIFIC_PID=REDACTED&STUDY_ID=69168b21477cff9ada6cb980&SESSION_ID=691bdef8ccef6a324b05b3b3","survey-html-form",35,557238,"0.0-347.0","FeMmCCMHBYpgJlsD29iciL/A1TqFdYCQ+BQpHoCEG0IIYm/Dxr6XFyixUfnbRnO74C0URm6etCFixf+EkzQcKk+mRiyjq16pk8o4x8frYk8k5tdx4uGUlzaPH13oDYR9qJv7036hfTwQLrKsya4PHgt9R1dmqisl6yukI2h96lrhf95OWOg6HXvQ2hfZ1e0VEY6RXGd06deSnFunwoHi6ZeEmtg2Yn+3SwygiX3Y5hzj/g5a2TysJpw/UIYZhsfyDedYafMD3SV/VdPRJRYgUZJ5phELF4/Vu6iKQ90KDIpS9vbBm/6D0gDwcG8urzg9qLk6QBOtkeZfzf7a/QWv/w==","69168b21477cff9ada6cb980","691bdef8ccef6a324b05b3b3","index1","<span style='color:red'>Fail,<span style='color:red'>Fail,<span style='color:green'>Lift,<span style='color:green'>Lift,<span style='color:red'>Fail,<span style='color:red'>Fail,<span style='color:red'>Fail,<span style='color:red'>Fail,<span style='color:red'>Fail,<span style='color:green'>Lift,<span style='color:red'>Fail,<span style='color:green'>Lift","<span style='color:red'>Fail,<span style='color:red'>Fail,<span style='color:green'>Lift,<span style='color:green'>Lift,<span style='color:green'>Lift,<span style='color:green'>Lift,<span style='color:green'>Lift,<span style='color:red'>Fail,<span style='color:green'>Lift,<span style='color:green'>Lift,<span style='color:red'>Fail,<span style='color:green'>Lift","<span style='color:red'>Fail,<span style='color:green'>Lift,<span style='color:green'>Lift,<span style='color:red'>Fail,<span style='color:green'>Lift,<span style='color:green'>Lift","0,0,1,1,0,0,0,0,0,1,0,1","0,0,1,1,1,1,1,0,1,1,0,1","0,1,1,0,1,1",10,20,20,"","","","","{""box1"":""60""}","",5,"round3_ready",4,5,3,NA,NA,NA,NA,NA,NA,NA,NA,NA,NA,NA,NA,NA,NA,60,60,NA,NA,NA,NA,NA,NA,NA,NA,NA,60,60,NA,NA,NA,NA,NA,NA,NA,NA,NA,"",NA,NA,NA,NA,NA,NA,NA,NA,NA,2025-11-18 03:02:11
"24094.80000001192","https://psyc-201.github.io/xiang2023/exp/index1.html?PROLIFIC_PID=REDACTED&STUDY_ID=69168b21477cff9ada6cb980&SESSION_ID=691bdef8ccef6a324b05b3b3","survey-html-form",36,581335,"0.0-348.0-0.0","FeMmCCMHBYpgJlsD29iciL/A1TqFdYCQ+BQpHoCEG0IIYm/Dxr6XFyixUfnbRnO74C0URm6etCFixf+EkzQcKk+mRiyjq16pk8o4x8frYk8k5tdx4uGUlzaPH13oDYR9qJv7036hfTwQLrKsya4PHgt9R1dmqisl6yukI2h96lrhf95OWOg6HXvQ2hfZ1e0VEY6RXGd06deSnFunwoHi6ZeEmtg2Yn+3SwygiX3Y5hzj/g5a2TysJpw/UIYZhsfyDedYafMD3SV/VdPRJRYgUZJ5phELF4/Vu6iKQ90KDIpS9vbBm/6D0gDwcG8urzg9qLk6QBOtkeZfzf7a/QWv/w==","69168b21477cff9ada6cb980","691bdef8ccef6a324b05b3b3","index1","<span style='color:red'>Fail,<span style='color:red'>Fail,<span style='color:green'>Lift,<span style='color:green'>Lift,<span style='color:red'>Fail,<span style='color:red'>Fail,<span style='color:red'>Fail,<span style='color:red'>Fail,<span style='color:red'>Fail,<span style='color:green'>Lift,<span style='color:red'>Fail,<span style='color:green'>Lift","<span style='color:red'>Fail,<span style='color:red'>Fail,<span style='color:green'>Lift,<span style='color:green'>Lift,<span style='color:green'>Lift,<span style='color:green'>Lift,<span style='color:green'>Lift,<span style='color:red'>Fail,<span style='color:green'>Lift,<span style='color:green'>Lift,<span style='color:red'>Fail,<span style='color:green'>Lift","<span style='color:red'>Fail,<span style='color:green'>Lift,<span style='color:green'>Lift,<span style='color:red'>Fail,<span style='color:green'>Lift,<span style='color:green'>Lift","0,0,1,1,0,0,0,0,0,1,0,1","0,0,1,1,1,1,1,0,1,1,0,1","0,1,1,0,1,1",10,20,20,"","","","","{""box1"":""5"",""box2"":""5"",""box3"":""100"",""box4"":""100""}","",6,"round3_lift",5,5,3,5,5,100,100,1,1,20,NA,NA,NA,NA,NA,NA,NA,NA,NA,NA,NA,NA,NA,NA,NA,NA,NA,NA,NA,NA,NA,NA,5,5,1,1,20,100,100,"",NA,NA,NA,NA,NA,NA,NA,NA,NA,2025-11-18 03:02:11
"null","https://psyc-201.github.io/xiang2023/exp/index1.html?PROLIFIC_PID=REDACTED&STUDY_ID=69168b21477cff9ada6cb980&SESSION_ID=691bdef8ccef6a324b05b3b3","html-keyboard-response",37,584347,"0.0-352.0","FeMmCCMHBYpgJlsD29iciL/A1TqFdYCQ+BQpHoCEG0IIYm/Dxr6XFyixUfnbRnO74C0URm6etCFixf+EkzQcKk+mRiyjq16pk8o4x8frYk8k5tdx4uGUlzaPH13oDYR9qJv7036hfTwQLrKsya4PHgt9R1dmqisl6yukI2h96lrhf95OWOg6HXvQ2hfZ1e0VEY6RXGd06deSnFunwoHi6ZeEmtg2Yn+3SwygiX3Y5hzj/g5a2TysJpw/UIYZhsfyDedYafMD3SV/VdPRJRYgUZJ5phELF4/Vu6iKQ90KDIpS9vbBm/6D0gDwcG8urzg9qLk6QBOtkeZfzf7a/QWv/w==","69168b21477cff9ada6cb980","691bdef8ccef6a324b05b3b3","index1","<span style='color:red'>Fail,<span style='color:red'>Fail,<span style='color:green'>Lift,<span style='color:green'>Lift,<span style='color:red'>Fail,<span style='color:red'>Fail,<span style='color:red'>Fail,<span style='color:red'>Fail,<span style='color:red'>Fail,<span style='color:green'>Lift,<span style='color:red'>Fail,<span style='color:green'>Lift","<span style='color:red'>Fail,<span style='color:red'>Fail,<span style='color:green'>Lift,<span style='color:green'>Lift,<span style='color:green'>Lift,<span style='color:green'>Lift,<span style='color:green'>Lift,<span style='color:red'>Fail,<span style='color:green'>Lift,<span style='color:green'>Lift,<span style='color:red'>Fail,<span style='color:green'>Lift","<span style='color:red'>Fail,<span style='color:green'>Lift,<span style='color:green'>Lift,<span style='color:red'>Fail,<span style='color:green'>Lift,<span style='color:green'>Lift","0,0,1,1,0,0,0,0,0,1,0,1","0,0,1,1,1,1,1,0,1,1,0,1","0,1,1,0,1,1",10,20,20,"","","<p style='font-size:30px'><b> New Contest! </b></p>","null","","",6,"",NA,NA,NA,NA,NA,NA,NA,NA,NA,NA,NA,NA,NA,NA,NA,NA,NA,NA,NA,NA,NA,NA,NA,NA,NA,NA,NA,NA,NA,NA,NA,NA,NA,NA,NA,NA,NA,NA,NA,"",NA,NA,NA,NA,NA,NA,NA,NA,NA,2025-11-18 03:02:11
"14317.699999988079","https://psyc-201.github.io/xiang2023/exp/index1.html?PROLIFIC_PID=REDACTED&STUDY_ID=69168b21477cff9ada6cb980&SESSION_ID=691bdef8ccef6a324b05b3b3","survey-html-form",38,598668,"0.0-353.0","FeMmCCMHBYpgJlsD29iciL/A1TqFdYCQ+BQpHoCEG0IIYm/Dxr6XFyixUfnbRnO74C0URm6etCFixf+EkzQcKk+mRiyjq16pk8o4x8frYk8k5tdx4uGUlzaPH13oDYR9qJv7036hfTwQLrKsya4PHgt9R1dmqisl6yukI2h96lrhf95OWOg6HXvQ2hfZ1e0VEY6RXGd06deSnFunwoHi6ZeEmtg2Yn+3SwygiX3Y5hzj/g5a2TysJpw/UIYZhsfyDedYafMD3SV/VdPRJRYgUZJ5phELF4/Vu6iKQ90KDIpS9vbBm/6D0gDwcG8urzg9qLk6QBOtkeZfzf7a/QWv/w==","69168b21477cff9ada6cb980","691bdef8ccef6a324b05b3b3","index1","<span style='color:red'>Fail,<span style='color:red'>Fail,<span style='color:green'>Lift,<span style='color:green'>Lift,<span style='color:red'>Fail,<span style='color:red'>Fail,<span style='color:red'>Fail,<span style='color:red'>Fail,<span style='color:red'>Fail,<span style='color:green'>Lift,<span style='color:red'>Fail,<span style='color:green'>Lift","<span style='color:red'>Fail,<span style='color:red'>Fail,<span style='color:green'>Lift,<span style='color:green'>Lift,<span style='color:green'>Lift,<span style='color:green'>Lift,<span style='color:green'>Lift,<span style='color:red'>Fail,<span style='color:green'>Lift,<span style='color:green'>Lift,<span style='color:red'>Fail,<span style='color:green'>Lift","<span style='color:red'>Fail,<span style='color:green'>Lift,<span style='color:green'>Lift,<span style='color:red'>Fail,<span style='color:green'>Lift,<span style='color:green'>Lift","0,0,1,1,0,0,0,0,0,1,0,1","0,0,1,1,1,1,1,0,1,1,0,1","0,1,1,0,1,1",10,20,20,"","","","","{""box1"":""2"",""box2"":""7"",""box4"":""80""}","",6,"round1_outcome",1,6,1,2,7,NA,80,0,1,10,2,7,NA,80,0,1,10,NA,NA,NA,NA,NA,NA,NA,NA,NA,NA,NA,NA,NA,NA,NA,NA,NA,NA,NA,NA,NA,NA,"",NA,NA,NA,NA,NA,NA,NA,NA,NA,2025-11-18 03:02:11
"16581.19999998808","https://psyc-201.github.io/xiang2023/exp/index1.html?PROLIFIC_PID=REDACTED&STUDY_ID=69168b21477cff9ada6cb980&SESSION_ID=691bdef8ccef6a324b05b3b3","survey-html-form",39,615252,"0.0-354.0","FeMmCCMHBYpgJlsD29iciL/A1TqFdYCQ+BQpHoCEG0IIYm/Dxr6XFyixUfnbRnO74C0URm6etCFixf+EkzQcKk+mRiyjq16pk8o4x8frYk8k5tdx4uGUlzaPH13oDYR9qJv7036hfTwQLrKsya4PHgt9R1dmqisl6yukI2h96lrhf95OWOg6HXvQ2hfZ1e0VEY6RXGd06deSnFunwoHi6ZeEmtg2Yn+3SwygiX3Y5hzj/g5a2TysJpw/UIYZhsfyDedYafMD3SV/VdPRJRYgUZJ5phELF4/Vu6iKQ90KDIpS9vbBm/6D0gDwcG8urzg9qLk6QBOtkeZfzf7a/QWv/w==","69168b21477cff9ada6cb980","691bdef8ccef6a324b05b3b3","index1","<span style='color:red'>Fail,<span style='color:red'>Fail,<span style='color:green'>Lift,<span style='color:green'>Lift,<span style='color:red'>Fail,<span style='color:red'>Fail,<span style='color:red'>Fail,<span style='color:red'>Fail,<span style='color:red'>Fail,<span style='color:green'>Lift,<span style='color:red'>Fail,<span style='color:green'>Lift","<span style='color:red'>Fail,<span style='color:red'>Fail,<span style='color:green'>Lift,<span style='color:green'>Lift,<span style='color:green'>Lift,<span style='color:green'>Lift,<span style='color:green'>Lift,<span style='color:red'>Fail,<span style='color:green'>Lift,<span style='color:green'>Lift,<span style='color:red'>Fail,<span style='color:green'>Lift","<span style='color:red'>Fail,<span style='color:green'>Lift,<span style='color:green'>Lift,<span style='color:red'>Fail,<span style='color:green'>Lift,<span style='color:green'>Lift","0,0,1,1,0,0,0,0,0,1,0,1","0,0,1,1,1,1,1,0,1,1,0,1","0,1,1,0,1,1",10,20,20,"","","","","{""box1"":""50"",""box2"":""80""}","",6,"round2_ready",2,6,2,NA,NA,NA,NA,NA,NA,NA,NA,NA,NA,NA,NA,NA,NA,50,80,50,80,NA,NA,NA,NA,NA,NA,NA,NA,NA,NA,NA,NA,NA,NA,NA,NA,NA,NA,"",NA,NA,NA,NA,NA,NA,NA,NA,NA,2025-11-18 03:02:11
"12761.600000023842","https://psyc-201.github.io/xiang2023/exp/index1.html?PROLIFIC_PID=REDACTED&STUDY_ID=69168b21477cff9ada6cb980&SESSION_ID=691bdef8ccef6a324b05b3b3","survey-html-form",40,628017,"0.0-355.0","FeMmCCMHBYpgJlsD29iciL/A1TqFdYCQ+BQpHoCEG0IIYm/Dxr6XFyixUfnbRnO74C0URm6etCFixf+EkzQcKk+mRiyjq16pk8o4x8frYk8k5tdx4uGUlzaPH13oDYR9qJv7036hfTwQLrKsya4PHgt9R1dmqisl6yukI2h96lrhf95OWOg6HXvQ2hfZ1e0VEY6RXGd06deSnFunwoHi6ZeEmtg2Yn+3SwygiX3Y5hzj/g5a2TysJpw/UIYZhsfyDedYafMD3SV/VdPRJRYgUZJ5phELF4/Vu6iKQ90KDIpS9vbBm/6D0gDwcG8urzg9qLk6QBOtkeZfzf7a/QWv/w==","69168b21477cff9ada6cb980","691bdef8ccef6a324b05b3b3","index1","<span style='color:red'>Fail,<span style='color:red'>Fail,<span style='color:green'>Lift,<span style='color:green'>Lift,<span style='color:red'>Fail,<span style='color:red'>Fail,<span style='color:red'>Fail,<span style='color:red'>Fail,<span style='color:red'>Fail,<span style='color:green'>Lift,<span style='color:red'>Fail,<span style='color:green'>Lift","<span style='color:red'>Fail,<span style='color:red'>Fail,<span style='color:green'>Lift,<span style='color:green'>Lift,<span style='color:green'>Lift,<span style='color:green'>Lift,<span style='color:green'>Lift,<span style='color:red'>Fail,<span style='color:green'>Lift,<span style='color:green'>Lift,<span style='color:red'>Fail,<span style='color:green'>Lift","<span style='color:red'>Fail,<span style='color:green'>Lift,<span style='color:green'>Lift,<span style='color:red'>Fail,<span style='color:green'>Lift,<span style='color:green'>Lift","0,0,1,1,0,0,0,0,0,1,0,1","0,0,1,1,1,1,1,0,1,1,0,1","0,1,1,0,1,1",10,20,20,"","","","","{""box1"":""5"",""box2"":""8"",""box3"":""100"",""box4"":""85""}","",6,"round2_outcome",3,6,2,5,8,100,85,1,1,20,NA,NA,NA,NA,NA,NA,NA,NA,NA,NA,NA,5,8,100,85,1,1,20,NA,NA,NA,NA,NA,NA,NA,NA,NA,NA,NA,"",NA,NA,NA,NA,NA,NA,NA,NA,NA,2025-11-18 03:02:11
"5254.100000023842","https://psyc-201.github.io/xiang2023/exp/index1.html?PROLIFIC_PID=REDACTED&STUDY_ID=69168b21477cff9ada6cb980&SESSION_ID=691bdef8ccef6a324b05b3b3","survey-html-form",41,633274,"0.0-356.0","FeMmCCMHBYpgJlsD29iciL/A1TqFdYCQ+BQpHoCEG0IIYm/Dxr6XFyixUfnbRnO74C0URm6etCFixf+EkzQcKk+mRiyjq16pk8o4x8frYk8k5tdx4uGUlzaPH13oDYR9qJv7036hfTwQLrKsya4PHgt9R1dmqisl6yukI2h96lrhf95OWOg6HXvQ2hfZ1e0VEY6RXGd06deSnFunwoHi6ZeEmtg2Yn+3SwygiX3Y5hzj/g5a2TysJpw/UIYZhsfyDedYafMD3SV/VdPRJRYgUZJ5phELF4/Vu6iKQ90KDIpS9vbBm/6D0gDwcG8urzg9qLk6QBOtkeZfzf7a/QWv/w==","69168b21477cff9ada6cb980","691bdef8ccef6a324b05b3b3","index1","<span style='color:red'>Fail,<span style='color:red'>Fail,<span style='color:green'>Lift,<span style='color:green'>Lift,<span style='color:red'>Fail,<span style='color:red'>Fail,<span style='color:red'>Fail,<span style='color:red'>Fail,<span style='color:red'>Fail,<span style='color:green'>Lift,<span style='color:red'>Fail,<span style='color:green'>Lift","<span style='color:red'>Fail,<span style='color:red'>Fail,<span style='color:green'>Lift,<span style='color:green'>Lift,<span style='color:green'>Lift,<span style='color:green'>Lift,<span style='color:green'>Lift,<span style='color:red'>Fail,<span style='color:green'>Lift,<span style='color:green'>Lift,<span style='color:red'>Fail,<span style='color:green'>Lift","<span style='color:red'>Fail,<span style='color:green'>Lift,<span style='color:green'>Lift,<span style='color:red'>Fail,<span style='color:green'>Lift,<span style='color:green'>Lift","0,0,1,1,0,0,0,0,0,1,0,1","0,0,1,1,1,1,1,0,1,1,0,1","0,1,1,0,1,1",10,20,20,"","","","","{""box1"":""90""}","",6,"round3_ready",4,6,3,NA,NA,NA,NA,NA,NA,NA,NA,NA,NA,NA,NA,NA,NA,90,90,NA,NA,NA,NA,NA,NA,NA,NA,NA,90,90,NA,NA,NA,NA,NA,NA,NA,NA,NA,"",NA,NA,NA,NA,NA,NA,NA,NA,NA,2025-11-18 03:02:11
"9680.5","https://psyc-201.github.io/xiang2023/exp/index1.html?PROLIFIC_PID=REDACTED&STUDY_ID=69168b21477cff9ada6cb980&SESSION_ID=691bdef8ccef6a324b05b3b3","survey-html-form",42,642956,"0.0-357.0-0.0","FeMmCCMHBYpgJlsD29iciL/A1TqFdYCQ+BQpHoCEG0IIYm/Dxr6XFyixUfnbRnO74C0URm6etCFixf+EkzQcKk+mRiyjq16pk8o4x8frYk8k5tdx4uGUlzaPH13oDYR9qJv7036hfTwQLrKsya4PHgt9R1dmqisl6yukI2h96lrhf95OWOg6HXvQ2hfZ1e0VEY6RXGd06deSnFunwoHi6ZeEmtg2Yn+3SwygiX3Y5hzj/g5a2TysJpw/UIYZhsfyDedYafMD3SV/VdPRJRYgUZJ5phELF4/Vu6iKQ90KDIpS9vbBm/6D0gDwcG8urzg9qLk6QBOtkeZfzf7a/QWv/w==","69168b21477cff9ada6cb980","691bdef8ccef6a324b05b3b3","index1","<span style='color:red'>Fail,<span style='color:red'>Fail,<span style='color:green'>Lift,<span style='color:green'>Lift,<span style='color:red'>Fail,<span style='color:red'>Fail,<span style='color:red'>Fail,<span style='color:red'>Fail,<span style='color:red'>Fail,<span style='color:green'>Lift,<span style='color:red'>Fail,<span style='color:green'>Lift","<span style='color:red'>Fail,<span style='color:red'>Fail,<span style='color:green'>Lift,<span style='color:green'>Lift,<span style='color:green'>Lift,<span style='color:green'>Lift,<span style='color:green'>Lift,<span style='color:red'>Fail,<span style='color:green'>Lift,<span style='color:green'>Lift,<span style='color:red'>Fail,<span style='color:green'>Lift","<span style='color:red'>Fail,<span style='color:green'>Lift,<span style='color:green'>Lift,<span style='color:red'>Fail,<span style='color:green'>Lift,<span style='color:green'>Lift","0,0,1,1,0,0,0,0,0,1,0,1","0,0,1,1,1,1,1,0,1,1,0,1","0,1,1,0,1,1",10,20,20,"","","","","{""box1"":""5"",""box2"":""8"",""box3"":""100"",""box4"":""80""}","",6,"round3_lift",5,6,3,5,8,100,80,1,1,20,NA,NA,NA,NA,NA,NA,NA,NA,NA,NA,NA,NA,NA,NA,NA,NA,NA,NA,NA,NA,NA,NA,5,8,1,1,20,100,80,"",NA,NA,NA,NA,NA,NA,NA,NA,NA,2025-11-18 03:02:11
"28726.69999998808","https://psyc-201.github.io/xiang2023/exp/index1.html?PROLIFIC_PID=REDACTED&STUDY_ID=69168b21477cff9ada6cb980&SESSION_ID=691bdef8ccef6a324b05b3b3","survey-text",43,671691,"0.0-361.0","FeMmCCMHBYpgJlsD29iciL/A1TqFdYCQ+BQpHoCEG0IIYm/Dxr6XFyixUfnbRnO74C0URm6etCFixf+EkzQcKk+mRiyjq16pk8o4x8frYk8k5tdx4uGUlzaPH13oDYR9qJv7036hfTwQLrKsya4PHgt9R1dmqisl6yukI2h96lrhf95OWOg6HXvQ2hfZ1e0VEY6RXGd06deSnFunwoHi6ZeEmtg2Yn+3SwygiX3Y5hzj/g5a2TysJpw/UIYZhsfyDedYafMD3SV/VdPRJRYgUZJ5phELF4/Vu6iKQ90KDIpS9vbBm/6D0gDwcG8urzg9qLk6QBOtkeZfzf7a/QWv/w==","69168b21477cff9ada6cb980","691bdef8ccef6a324b05b3b3","index1","<span style='color:red'>Fail,<span style='color:red'>Fail,<span style='color:green'>Lift,<span style='color:green'>Lift,<span style='color:red'>Fail,<span style='color:red'>Fail,<span style='color:red'>Fail,<span style='color:red'>Fail,<span style='color:red'>Fail,<span style='color:green'>Lift,<span style='color:red'>Fail,<span style='color:green'>Lift","<span style='color:red'>Fail,<span style='color:red'>Fail,<span style='color:green'>Lift,<span style='color:green'>Lift,<span style='color:green'>Lift,<span style='color:green'>Lift,<span style='color:green'>Lift,<span style='color:red'>Fail,<span style='color:green'>Lift,<span style='color:green'>Lift,<span style='color:red'>Fail,<span style='color:green'>Lift","<span style='color:red'>Fail,<span style='color:green'>Lift,<span style='color:green'>Lift,<span style='color:red'>Fail,<span style='color:green'>Lift,<span style='color:green'>Lift","0,0,1,1,0,0,0,0,0,1,0,1","0,0,1,1,1,1,1,0,1,1,0,1","0,1,1,0,1,1",10,20,20,"","","","","{""Q0"":""I had to guess whether each player would lift the box along with other metrics related to it.""}","",NA,"",NA,NA,NA,NA,NA,NA,NA,NA,NA,NA,NA,NA,NA,NA,NA,NA,NA,NA,NA,NA,NA,NA,NA,NA,NA,NA,NA,NA,NA,NA,NA,NA,NA,NA,NA,NA,NA,NA,NA,"",NA,NA,NA,NA,NA,NA,NA,NA,NA,2025-11-18 03:02:11
"3009.7000000476837","https://psyc-201.github.io/xiang2023/exp/index1.html?PROLIFIC_PID=REDACTED&STUDY_ID=69168b21477cff9ada6cb980&SESSION_ID=691bdef8ccef6a324b05b3b3","survey-text",44,674704,"0.0-362.0","FeMmCCMHBYpgJlsD29iciL/A1TqFdYCQ+BQpHoCEG0IIYm/Dxr6XFyixUfnbRnO74C0URm6etCFixf+EkzQcKk+mRiyjq16pk8o4x8frYk8k5tdx4uGUlzaPH13oDYR9qJv7036hfTwQLrKsya4PHgt9R1dmqisl6yukI2h96lrhf95OWOg6HXvQ2hfZ1e0VEY6RXGd06deSnFunwoHi6ZeEmtg2Yn+3SwygiX3Y5hzj/g5a2TysJpw/UIYZhsfyDedYafMD3SV/VdPRJRYgUZJ5phELF4/Vu6iKQ90KDIpS9vbBm/6D0gDwcG8urzg9qLk6QBOtkeZfzf7a/QWv/w==","69168b21477cff9ada6cb980","691bdef8ccef6a324b05b3b3","index1","<span style='color:red'>Fail,<span style='color:red'>Fail,<span style='color:green'>Lift,<span style='color:green'>Lift,<span style='color:red'>Fail,<span style='color:red'>Fail,<span style='color:red'>Fail,<span style='color:red'>Fail,<span style='color:red'>Fail,<span style='color:green'>Lift,<span style='color:red'>Fail,<span style='color:green'>Lift","<span style='color:red'>Fail,<span style='color:red'>Fail,<span style='color:green'>Lift,<span style='color:green'>Lift,<span style='color:green'>Lift,<span style='color:green'>Lift,<span style='color:green'>Lift,<span style='color:red'>Fail,<span style='color:green'>Lift,<span style='color:green'>Lift,<span style='color:red'>Fail,<span style='color:green'>Lift","<span style='color:red'>Fail,<span style='color:green'>Lift,<span style='color:green'>Lift,<span style='color:red'>Fail,<span style='color:green'>Lift,<span style='color:green'>Lift","0,0,1,1,0,0,0,0,0,1,0,1","0,0,1,1,1,1,1,0,1,1,0,1","0,1,1,0,1,1",10,20,20,"","","","","{""Q0"":""""}","",NA,"",NA,NA,NA,NA,NA,NA,NA,NA,NA,NA,NA,NA,NA,NA,NA,NA,NA,NA,NA,NA,NA,NA,NA,NA,NA,NA,NA,NA,NA,NA,NA,NA,NA,NA,NA,NA,NA,NA,NA,"[{""event"":""blur"",""trial"":1,""time"":7018},{""event"":""focus"",""trial"":1,""time"":8085},{""event"":""fullscreenenter"",""trial"":1,""time"":8812}]",4,2,1,80,1,0.8,NA,NA,NA,2025-11-18 03:02:11
"7948.100000023842","https://psyc-201.github.io/xiang2023/exp/index1.html?PROLIFIC_PID=REDACTED&STUDY_ID=69168b21477cff9ada6cb980&SESSION_ID=691bdef8ccef6a324b05b3b3","html-button-response",45,682656,"0.0-363.0","FeMmCCMHBYpgJlsD29iciL/A1TqFdYCQ+BQpHoCEG0IIYm/Dxr6XFyixUfnbRnO74C0URm6etCFixf+EkzQcKk+mRiyjq16pk8o4x8frYk8k5tdx4uGUlzaPH13oDYR9qJv7036hfTwQLrKsya4PHgt9R1dmqisl6yukI2h96lrhf95OWOg6HXvQ2hfZ1e0VEY6RXGd06deSnFunwoHi6ZeEmtg2Yn+3SwygiX3Y5hzj/g5a2TysJpw/UIYZhsfyDedYafMD3SV/VdPRJRYgUZJ5phELF4/Vu6iKQ90KDIpS9vbBm/6D0gDwcG8urzg9qLk6QBOtkeZfzf7a/QWv/w==","69168b21477cff9ada6cb980","691bdef8ccef6a324b05b3b3","index1","<span style='color:red'>Fail,<span style='color:red'>Fail,<span style='color:green'>Lift,<span style='color:green'>Lift,<span style='color:red'>Fail,<span style='color:red'>Fail,<span style='color:red'>Fail,<span style='color:red'>Fail,<span style='color:red'>Fail,<span style='color:green'>Lift,<span style='color:red'>Fail,<span style='color:green'>Lift","<span style='color:red'>Fail,<span style='color:red'>Fail,<span style='color:green'>Lift,<span style='color:green'>Lift,<span style='color:green'>Lift,<span style='color:green'>Lift,<span style='color:green'>Lift,<span style='color:red'>Fail,<span style='color:green'>Lift,<span style='color:green'>Lift,<span style='color:red'>Fail,<span style='color:green'>Lift","<span style='color:red'>Fail,<span style='color:green'>Lift,<span style='color:green'>Lift,<span style='color:red'>Fail,<span style='color:green'>Lift,<span style='color:green'>Lift","0,0,1,1,0,0,0,0,0,1,0,1","0,0,1,1,1,1,1,0,1,1,0,1","0,1,1,0,1,1",10,20,20,"","","<p> We randomly picked <b>Contest 4, Round 2</b> to calculate your bonus. </p><p> The outcome of Contestant H on that round is <span style='color:green'>Lift</span>. </p><p> The probability you entered was 80. </p><p><b> You won a bonus of $0.80!</b></p><p> IMPORTANT: Please click 'Next' to complete the game.</p>","","","",NA,"",NA,NA,NA,NA,NA,NA,NA,NA,NA,NA,NA,NA,NA,NA,NA,NA,NA,NA,NA,NA,NA,NA,NA,NA,NA,NA,NA,NA,NA,NA,NA,NA,NA,NA,NA,NA,NA,NA,NA,"",NA,NA,NA,NA,NA,NA,0,2,1,2025-11-18 03:02:11
