"rt","url","trial_type","trial_index","time_elapsed","internal_node_id","encryptedProlificId","studyId","sessionId","expIndex","round1_outcomes","round2_outcomes","round3_outcomes","round1_o","round2_o","round3_o","round1_reward","round2_reward","round3_reward","success","view_history","stimulus","key_press","responses","question_order","button_pressed","j","Stage","stage","contest","round","strength_a","strength_b","effort_a","effort_b","outcome_a","outcome_b","reward","r1_strength_a","r1_strength_b","r1_effort_a","r1_effort_b","r1_outcome_a","r1_outcome_b","r1_reward","probability_a","probability_b","r2_prob_a","r2_prob_b","r2_strength_a","r2_strength_b","r2_effort_a","r2_effort_b","r2_outcome_a","r2_outcome_b","r2_reward","r3_prob_a","r3_prob_b","attention_check","count","r3_strength_a","r3_strength_b","r3_outcome_a","r3_outcome_b","r3_reward","r3_effort_a","r3_effort_b","screen","pick_contest","pick_round","pick_side","trial_probability","trial_outcome","bonus","attention_sum","attention","datapipe_meta.attributes.date_modified"
"6376","https://psyc-201.github.io/xiang2023/exp/index1.html?PROLIFIC_PID=REDACTED&STUDY_ID=69168b21477cff9ada6cb980&SESSION_ID=691bd4c689e40f7e97a34089","external-html",0,6451,"0.0-0.0","SderUN3yU73FjQQZw+EaKa8psf2cYHMiQhaRzVrf6c0BJ934FRSgbPG6fDSl4xy1Kj3kaZkt0KLXsqw3M9b+cUi+jOGVJfrV2aTNz8w+aZx3ApCwAd79bqDQiVvCkxVetQdpGUv36JocdDv6yyS9X80zuHV0xR/UfMfcl3BQC1RYdeUwY2P8tdYTZhcL1ZgKBlLIGyQNXUh36RIc3yK9C+4Z2yoST5QmN4fhxIoLWpQY1a3JSYci+cs7Q6lyRc9gDbVOWfArE9/+zKTWx9mHA87MsUIyrTcw8FD4J5DI2QXLJSb4gJmKFVgMHDzhWxo0UmMGcit9836X3BpO1FAPew==","69168b21477cff9ada6cb980","691bd4c689e40f7e97a34089","index1","<span style='color:red'>Fail,<span style='color:red'>Fail,<span style='color:green'>Lift,<span style='color:green'>Lift,<span style='color:red'>Fail,<span style='color:red'>Fail,<span style='color:red'>Fail,<span style='color:red'>Fail,<span style='color:red'>Fail,<span style='color:green'>Lift,<span style='color:red'>Fail,<span style='color:green'>Lift","<span style='color:red'>Fail,<span style='color:red'>Fail,<span style='color:green'>Lift,<span style='color:green'>Lift,<span style='color:green'>Lift,<span style='color:green'>Lift,<span style='color:red'>Fail,<span style='color:green'>Lift,<span style='color:green'>Lift,<span style='color:green'>Lift,<span style='color:red'>Fail,<span style='color:green'>Lift","<span style='color:red'>Fail,<span style='color:green'>Lift,<span style='color:green'>Lift,<span style='color:red'>Fail,<span style='color:green'>Lift,<span style='color:green'>Lift","0,0,1,1,0,0,0,0,0,1,0,1","0,0,1,1,1,1,0,1,1,1,0,1","0,1,1,0,1,1",10,20,20,"","","","","","",NA,NA,"",NA,NA,NA,NA,NA,NA,NA,NA,NA,NA,NA,NA,NA,NA,NA,NA,NA,NA,NA,NA,NA,NA,NA,NA,NA,NA,NA,NA,NA,NA,NA,NA,NA,NA,NA,NA,NA,NA,NA,"",NA,NA,NA,NA,NA,NA,NA,NA,2025-11-18 02:53:29
"","https://psyc-201.github.io/xiang2023/exp/index1.html?PROLIFIC_PID=REDACTED&STUDY_ID=69168b21477cff9ada6cb980&SESSION_ID=691bd4c689e40f7e97a34089","fullscreen",1,13590,"0.0-1.0","SderUN3yU73FjQQZw+EaKa8psf2cYHMiQhaRzVrf6c0BJ934FRSgbPG6fDSl4xy1Kj3kaZkt0KLXsqw3M9b+cUi+jOGVJfrV2aTNz8w+aZx3ApCwAd79bqDQiVvCkxVetQdpGUv36JocdDv6yyS9X80zuHV0xR/UfMfcl3BQC1RYdeUwY2P8tdYTZhcL1ZgKBlLIGyQNXUh36RIc3yK9C+4Z2yoST5QmN4fhxIoLWpQY1a3JSYci+cs7Q6lyRc9gDbVOWfArE9/+zKTWx9mHA87MsUIyrTcw8FD4J5DI2QXLJSb4gJmKFVgMHDzhWxo0UmMGcit9836X3BpO1FAPew==","69168b21477cff9ada6cb980","691bd4c689e40f7e97a34089","index1","<span style='color:red'>Fail,<span style='color:red'>Fail,<span style='color:green'>Lift,<span style='color:green'>Lift,<span style='color:red'>Fail,<span style='color:red'>Fail,<span style='color:red'>Fail,<span style='color:red'>Fail,<span style='color:red'>Fail,<span style='color:green'>Lift,<span style='color:red'>Fail,<span style='color:green'>Lift","<span style='color:red'>Fail,<span style='color:red'>Fail,<span style='color:green'>Lift,<span style='color:green'>Lift,<span style='color:green'>Lift,<span style='color:green'>Lift,<span style='color:red'>Fail,<span style='color:green'>Lift,<span style='color:green'>Lift,<span style='color:green'>Lift,<span style='color:red'>Fail,<span style='color:green'>Lift","<span style='color:red'>Fail,<span style='color:green'>Lift,<span style='color:green'>Lift,<span style='color:red'>Fail,<span style='color:green'>Lift,<span style='color:green'>Lift","0,0,1,1,0,0,0,0,0,1,0,1","0,0,1,1,1,1,0,1,1,1,0,1","0,1,1,0,1,1",10,20,20,"true","","","","","",NA,NA,"",NA,NA,NA,NA,NA,NA,NA,NA,NA,NA,NA,NA,NA,NA,NA,NA,NA,NA,NA,NA,NA,NA,NA,NA,NA,NA,NA,NA,NA,NA,NA,NA,NA,NA,NA,NA,NA,NA,NA,"",NA,NA,NA,NA,NA,NA,NA,NA,2025-11-18 02:53:29
"131660","https://psyc-201.github.io/xiang2023/exp/index1.html?PROLIFIC_PID=REDACTED&STUDY_ID=69168b21477cff9ada6cb980&SESSION_ID=691bd4c689e40f7e97a34089","instructions",2,145251,"0.0-2.0","SderUN3yU73FjQQZw+EaKa8psf2cYHMiQhaRzVrf6c0BJ934FRSgbPG6fDSl4xy1Kj3kaZkt0KLXsqw3M9b+cUi+jOGVJfrV2aTNz8w+aZx3ApCwAd79bqDQiVvCkxVetQdpGUv36JocdDv6yyS9X80zuHV0xR/UfMfcl3BQC1RYdeUwY2P8tdYTZhcL1ZgKBlLIGyQNXUh36RIc3yK9C+4Z2yoST5QmN4fhxIoLWpQY1a3JSYci+cs7Q6lyRc9gDbVOWfArE9/+zKTWx9mHA87MsUIyrTcw8FD4J5DI2QXLJSb4gJmKFVgMHDzhWxo0UmMGcit9836X3BpO1FAPew==","69168b21477cff9ada6cb980","691bd4c689e40f7e97a34089","index1","<span style='color:red'>Fail,<span style='color:red'>Fail,<span style='color:green'>Lift,<span style='color:green'>Lift,<span style='color:red'>Fail,<span style='color:red'>Fail,<span style='color:red'>Fail,<span style='color:red'>Fail,<span style='color:red'>Fail,<span style='color:green'>Lift,<span style='color:red'>Fail,<span style='color:green'>Lift","<span style='color:red'>Fail,<span style='color:red'>Fail,<span style='color:green'>Lift,<span style='color:green'>Lift,<span style='color:green'>Lift,<span style='color:green'>Lift,<span style='color:red'>Fail,<span style='color:green'>Lift,<span style='color:green'>Lift,<span style='color:green'>Lift,<span style='color:red'>Fail,<span style='color:green'>Lift","<span style='color:red'>Fail,<span style='color:green'>Lift,<span style='color:green'>Lift,<span style='color:red'>Fail,<span style='color:green'>Lift,<span style='color:green'>Lift","0,0,1,1,0,0,0,0,0,1,0,1","0,0,1,1,1,1,0,1,1,1,0,1","0,1,1,0,1,1",10,20,20,"","[{""page_index"":0,""viewing_time"":17667},{""page_index"":1,""viewing_time"":20943.000000000007},{""page_index"":2,""viewing_time"":23381.999999999993},{""page_index"":3,""viewing_time"":39250},{""page_index"":4,""viewing_time"":10735.000000000015},{""page_index"":5,""viewing_time"":15408.999999999985},{""page_index"":6,""viewing_time"":4272}]","","","","",NA,NA,"",NA,NA,NA,NA,NA,NA,NA,NA,NA,NA,NA,NA,NA,NA,NA,NA,NA,NA,NA,NA,NA,NA,NA,NA,NA,NA,NA,NA,NA,NA,NA,NA,NA,NA,NA,NA,NA,NA,NA,"",NA,NA,NA,NA,NA,NA,NA,NA,2025-11-18 02:53:29
"null","https://psyc-201.github.io/xiang2023/exp/index1.html?PROLIFIC_PID=REDACTED&STUDY_ID=69168b21477cff9ada6cb980&SESSION_ID=691bd4c689e40f7e97a34089","html-keyboard-response",3,146255,"0.0-3.0","SderUN3yU73FjQQZw+EaKa8psf2cYHMiQhaRzVrf6c0BJ934FRSgbPG6fDSl4xy1Kj3kaZkt0KLXsqw3M9b+cUi+jOGVJfrV2aTNz8w+aZx3ApCwAd79bqDQiVvCkxVetQdpGUv36JocdDv6yyS9X80zuHV0xR/UfMfcl3BQC1RYdeUwY2P8tdYTZhcL1ZgKBlLIGyQNXUh36RIc3yK9C+4Z2yoST5QmN4fhxIoLWpQY1a3JSYci+cs7Q6lyRc9gDbVOWfArE9/+zKTWx9mHA87MsUIyrTcw8FD4J5DI2QXLJSb4gJmKFVgMHDzhWxo0UmMGcit9836X3BpO1FAPew==","69168b21477cff9ada6cb980","691bd4c689e40f7e97a34089","index1","<span style='color:red'>Fail,<span style='color:red'>Fail,<span style='color:green'>Lift,<span style='color:green'>Lift,<span style='color:red'>Fail,<span style='color:red'>Fail,<span style='color:red'>Fail,<span style='color:red'>Fail,<span style='color:red'>Fail,<span style='color:green'>Lift,<span style='color:red'>Fail,<span style='color:green'>Lift","<span style='color:red'>Fail,<span style='color:red'>Fail,<span style='color:green'>Lift,<span style='color:green'>Lift,<span style='color:green'>Lift,<span style='color:green'>Lift,<span style='color:red'>Fail,<span style='color:green'>Lift,<span style='color:green'>Lift,<span style='color:green'>Lift,<span style='color:red'>Fail,<span style='color:green'>Lift","<span style='color:red'>Fail,<span style='color:green'>Lift,<span style='color:green'>Lift,<span style='color:red'>Fail,<span style='color:green'>Lift,<span style='color:green'>Lift","0,0,1,1,0,0,0,0,0,1,0,1","0,0,1,1,1,1,0,1,1,1,0,1","0,1,1,0,1,1",10,20,20,"",""," ","null","","",NA,NA,"",NA,NA,NA,NA,NA,NA,NA,NA,NA,NA,NA,NA,NA,NA,NA,NA,NA,NA,NA,NA,NA,NA,NA,NA,NA,NA,NA,NA,NA,NA,NA,NA,NA,NA,NA,NA,NA,NA,NA,"",NA,NA,NA,NA,NA,NA,NA,NA,2025-11-18 02:53:29
"379171","https://psyc-201.github.io/xiang2023/exp/index1.html?PROLIFIC_PID=REDACTED&STUDY_ID=69168b21477cff9ada6cb980&SESSION_ID=691bd4c689e40f7e97a34089","survey-multi-choice",4,525431,"0.0-4.0","SderUN3yU73FjQQZw+EaKa8psf2cYHMiQhaRzVrf6c0BJ934FRSgbPG6fDSl4xy1Kj3kaZkt0KLXsqw3M9b+cUi+jOGVJfrV2aTNz8w+aZx3ApCwAd79bqDQiVvCkxVetQdpGUv36JocdDv6yyS9X80zuHV0xR/UfMfcl3BQC1RYdeUwY2P8tdYTZhcL1ZgKBlLIGyQNXUh36RIc3yK9C+4Z2yoST5QmN4fhxIoLWpQY1a3JSYci+cs7Q6lyRc9gDbVOWfArE9/+zKTWx9mHA87MsUIyrTcw8FD4J5DI2QXLJSb4gJmKFVgMHDzhWxo0UmMGcit9836X3BpO1FAPew==","69168b21477cff9ada6cb980","691bd4c689e40f7e97a34089","index1","<span style='color:red'>Fail,<span style='color:red'>Fail,<span style='color:green'>Lift,<span style='color:green'>Lift,<span style='color:red'>Fail,<span style='color:red'>Fail,<span style='color:red'>Fail,<span style='color:red'>Fail,<span style='color:red'>Fail,<span style='color:green'>Lift,<span style='color:red'>Fail,<span style='color:green'>Lift","<span style='color:red'>Fail,<span style='color:red'>Fail,<span style='color:green'>Lift,<span style='color:green'>Lift,<span style='color:green'>Lift,<span style='color:green'>Lift,<span style='color:red'>Fail,<span style='color:green'>Lift,<span style='color:green'>Lift,<span style='color:green'>Lift,<span style='color:red'>Fail,<span style='color:green'>Lift","<span style='color:red'>Fail,<span style='color:green'>Lift,<span style='color:green'>Lift,<span style='color:red'>Fail,<span style='color:green'>Lift,<span style='color:green'>Lift","0,0,1,1,0,0,0,0,0,1,0,1","0,0,1,1,1,1,0,1,1,1,0,1","0,1,1,0,1,1",10,20,20,"","","","","{""Q0"":""It consists of multiple contests, each contest with three rounds."",""Q1"":""When a new contest begins."",""Q2"":""The box weight changes across contests, but not across rounds within each contest."",""Q3"":""Each will get $20."",""Q4"":""How close my guesses are to the actual outcome.""}","[0,1,2,3,4]",NA,NA,"",NA,NA,NA,NA,NA,NA,NA,NA,NA,NA,NA,NA,NA,NA,NA,NA,NA,NA,NA,NA,NA,NA,NA,NA,NA,NA,NA,NA,NA,NA,NA,NA,NA,NA,NA,NA,NA,NA,NA,"",NA,NA,NA,NA,NA,NA,NA,NA,2025-11-18 02:53:29
"3688","https://psyc-201.github.io/xiang2023/exp/index1.html?PROLIFIC_PID=REDACTED&STUDY_ID=69168b21477cff9ada6cb980&SESSION_ID=691bd4c689e40f7e97a34089","html-button-response",5,529123,"0.0-5.0-0.0","SderUN3yU73FjQQZw+EaKa8psf2cYHMiQhaRzVrf6c0BJ934FRSgbPG6fDSl4xy1Kj3kaZkt0KLXsqw3M9b+cUi+jOGVJfrV2aTNz8w+aZx3ApCwAd79bqDQiVvCkxVetQdpGUv36JocdDv6yyS9X80zuHV0xR/UfMfcl3BQC1RYdeUwY2P8tdYTZhcL1ZgKBlLIGyQNXUh36RIc3yK9C+4Z2yoST5QmN4fhxIoLWpQY1a3JSYci+cs7Q6lyRc9gDbVOWfArE9/+zKTWx9mHA87MsUIyrTcw8FD4J5DI2QXLJSb4gJmKFVgMHDzhWxo0UmMGcit9836X3BpO1FAPew==","69168b21477cff9ada6cb980","691bd4c689e40f7e97a34089","index1","<span style='color:red'>Fail,<span style='color:red'>Fail,<span style='color:green'>Lift,<span style='color:green'>Lift,<span style='color:red'>Fail,<span style='color:red'>Fail,<span style='color:red'>Fail,<span style='color:red'>Fail,<span style='color:red'>Fail,<span style='color:green'>Lift,<span style='color:red'>Fail,<span style='color:green'>Lift","<span style='color:red'>Fail,<span style='color:red'>Fail,<span style='color:green'>Lift,<span style='color:green'>Lift,<span style='color:green'>Lift,<span style='color:green'>Lift,<span style='color:red'>Fail,<span style='color:green'>Lift,<span style='color:green'>Lift,<span style='color:green'>Lift,<span style='color:red'>Fail,<span style='color:green'>Lift","<span style='color:red'>Fail,<span style='color:green'>Lift,<span style='color:green'>Lift,<span style='color:red'>Fail,<span style='color:green'>Lift,<span style='color:green'>Lift","0,0,1,1,0,0,0,0,0,1,0,1","0,0,1,1,1,1,0,1,1,1,0,1","0,1,1,0,1,1",10,20,20,"","","<p> Oops! You did not pass the comprehension check.</p>","","","",1,NA,"",NA,NA,NA,NA,NA,NA,NA,NA,NA,NA,NA,NA,NA,NA,NA,NA,NA,NA,NA,NA,NA,NA,NA,NA,NA,NA,NA,NA,NA,NA,NA,NA,NA,NA,NA,NA,NA,NA,NA,"",NA,NA,NA,NA,NA,NA,NA,NA,2025-11-18 02:53:29
"45005.00000000012","https://psyc-201.github.io/xiang2023/exp/index1.html?PROLIFIC_PID=REDACTED&STUDY_ID=69168b21477cff9ada6cb980&SESSION_ID=691bd4c689e40f7e97a34089","instructions",6,574129,"0.0-6.0-0.0","SderUN3yU73FjQQZw+EaKa8psf2cYHMiQhaRzVrf6c0BJ934FRSgbPG6fDSl4xy1Kj3kaZkt0KLXsqw3M9b+cUi+jOGVJfrV2aTNz8w+aZx3ApCwAd79bqDQiVvCkxVetQdpGUv36JocdDv6yyS9X80zuHV0xR/UfMfcl3BQC1RYdeUwY2P8tdYTZhcL1ZgKBlLIGyQNXUh36RIc3yK9C+4Z2yoST5QmN4fhxIoLWpQY1a3JSYci+cs7Q6lyRc9gDbVOWfArE9/+zKTWx9mHA87MsUIyrTcw8FD4J5DI2QXLJSb4gJmKFVgMHDzhWxo0UmMGcit9836X3BpO1FAPew==","69168b21477cff9ada6cb980","691bd4c689e40f7e97a34089","index1","<span style='color:red'>Fail,<span style='color:red'>Fail,<span style='color:green'>Lift,<span style='color:green'>Lift,<span style='color:red'>Fail,<span style='color:red'>Fail,<span style='color:red'>Fail,<span style='color:red'>Fail,<span style='color:red'>Fail,<span style='color:green'>Lift,<span style='color:red'>Fail,<span style='color:green'>Lift","<span style='color:red'>Fail,<span style='color:red'>Fail,<span style='color:green'>Lift,<span style='color:green'>Lift,<span style='color:green'>Lift,<span style='color:green'>Lift,<span style='color:red'>Fail,<span style='color:green'>Lift,<span style='color:green'>Lift,<span style='color:green'>Lift,<span style='color:red'>Fail,<span style='color:green'>Lift","<span style='color:red'>Fail,<span style='color:green'>Lift,<span style='color:green'>Lift,<span style='color:red'>Fail,<span style='color:green'>Lift,<span style='color:green'>Lift","0,0,1,1,0,0,0,0,0,1,0,1","0,0,1,1,1,1,0,1,1,1,0,1","0,1,1,0,1,1",10,20,20,"","[{""page_index"":0,""viewing_time"":7919},{""page_index"":1,""viewing_time"":18075},{""page_index"":2,""viewing_time"":3445},{""page_index"":3,""viewing_time"":8703},{""page_index"":4,""viewing_time"":2256},{""page_index"":5,""viewing_time"":3008},{""page_index"":6,""viewing_time"":1599.0000000001164}]","","","","",NA,NA,"",NA,NA,NA,NA,NA,NA,NA,NA,NA,NA,NA,NA,NA,NA,NA,NA,NA,NA,NA,NA,NA,NA,NA,NA,NA,NA,NA,NA,NA,NA,NA,NA,NA,NA,NA,NA,NA,NA,NA,"",NA,NA,NA,NA,NA,NA,NA,NA,2025-11-18 02:53:29
"null","https://psyc-201.github.io/xiang2023/exp/index1.html?PROLIFIC_PID=REDACTED&STUDY_ID=69168b21477cff9ada6cb980&SESSION_ID=691bd4c689e40f7e97a34089","html-keyboard-response",7,575132,"0.0-6.0-1.0","SderUN3yU73FjQQZw+EaKa8psf2cYHMiQhaRzVrf6c0BJ934FRSgbPG6fDSl4xy1Kj3kaZkt0KLXsqw3M9b+cUi+jOGVJfrV2aTNz8w+aZx3ApCwAd79bqDQiVvCkxVetQdpGUv36JocdDv6yyS9X80zuHV0xR/UfMfcl3BQC1RYdeUwY2P8tdYTZhcL1ZgKBlLIGyQNXUh36RIc3yK9C+4Z2yoST5QmN4fhxIoLWpQY1a3JSYci+cs7Q6lyRc9gDbVOWfArE9/+zKTWx9mHA87MsUIyrTcw8FD4J5DI2QXLJSb4gJmKFVgMHDzhWxo0UmMGcit9836X3BpO1FAPew==","69168b21477cff9ada6cb980","691bd4c689e40f7e97a34089","index1","<span style='color:red'>Fail,<span style='color:red'>Fail,<span style='color:green'>Lift,<span style='color:green'>Lift,<span style='color:red'>Fail,<span style='color:red'>Fail,<span style='color:red'>Fail,<span style='color:red'>Fail,<span style='color:red'>Fail,<span style='color:green'>Lift,<span style='color:red'>Fail,<span style='color:green'>Lift","<span style='color:red'>Fail,<span style='color:red'>Fail,<span style='color:green'>Lift,<span style='color:green'>Lift,<span style='color:green'>Lift,<span style='color:green'>Lift,<span style='color:red'>Fail,<span style='color:green'>Lift,<span style='color:green'>Lift,<span style='color:green'>Lift,<span style='color:red'>Fail,<span style='color:green'>Lift","<span style='color:red'>Fail,<span style='color:green'>Lift,<span style='color:green'>Lift,<span style='color:red'>Fail,<span style='color:green'>Lift,<span style='color:green'>Lift","0,0,1,1,0,0,0,0,0,1,0,1","0,0,1,1,1,1,0,1,1,1,0,1","0,1,1,0,1,1",10,20,20,"",""," ","null","","",NA,NA,"",NA,NA,NA,NA,NA,NA,NA,NA,NA,NA,NA,NA,NA,NA,NA,NA,NA,NA,NA,NA,NA,NA,NA,NA,NA,NA,NA,NA,NA,NA,NA,NA,NA,NA,NA,NA,NA,NA,NA,"",NA,NA,NA,NA,NA,NA,NA,NA,2025-11-18 02:53:29
"407040","https://psyc-201.github.io/xiang2023/exp/index1.html?PROLIFIC_PID=REDACTED&STUDY_ID=69168b21477cff9ada6cb980&SESSION_ID=691bd4c689e40f7e97a34089","survey-multi-choice",8,982176,"0.0-7.0-0.0","SderUN3yU73FjQQZw+EaKa8psf2cYHMiQhaRzVrf6c0BJ934FRSgbPG6fDSl4xy1Kj3kaZkt0KLXsqw3M9b+cUi+jOGVJfrV2aTNz8w+aZx3ApCwAd79bqDQiVvCkxVetQdpGUv36JocdDv6yyS9X80zuHV0xR/UfMfcl3BQC1RYdeUwY2P8tdYTZhcL1ZgKBlLIGyQNXUh36RIc3yK9C+4Z2yoST5QmN4fhxIoLWpQY1a3JSYci+cs7Q6lyRc9gDbVOWfArE9/+zKTWx9mHA87MsUIyrTcw8FD4J5DI2QXLJSb4gJmKFVgMHDzhWxo0UmMGcit9836X3BpO1FAPew==","69168b21477cff9ada6cb980","691bd4c689e40f7e97a34089","index1","<span style='color:red'>Fail,<span style='color:red'>Fail,<span style='color:green'>Lift,<span style='color:green'>Lift,<span style='color:red'>Fail,<span style='color:red'>Fail,<span style='color:red'>Fail,<span style='color:red'>Fail,<span style='color:red'>Fail,<span style='color:green'>Lift,<span style='color:red'>Fail,<span style='color:green'>Lift","<span style='color:red'>Fail,<span style='color:red'>Fail,<span style='color:green'>Lift,<span style='color:green'>Lift,<span style='color:green'>Lift,<span style='color:green'>Lift,<span style='color:red'>Fail,<span style='color:green'>Lift,<span style='color:green'>Lift,<span style='color:green'>Lift,<span style='color:red'>Fail,<span style='color:green'>Lift","<span style='color:red'>Fail,<span style='color:green'>Lift,<span style='color:green'>Lift,<span style='color:red'>Fail,<span style='color:green'>Lift,<span style='color:green'>Lift","0,0,1,1,0,0,0,0,0,1,0,1","0,0,1,1,1,1,0,1,1,1,0,1","0,1,1,0,1,1",10,20,20,"","","","","{""Q0"":""It consists of multiple contests, each contest with three rounds."",""Q1"":""Contestants are always the same across contests."",""Q2"":""The box weight always stays the same (equivalent to strength of 5)."",""Q3"":""Each will get $20."",""Q4"":""How close my guesses are to the actual outcome.""}","[0,1,2,3,4]",NA,NA,"",NA,NA,NA,NA,NA,NA,NA,NA,NA,NA,NA,NA,NA,NA,NA,NA,NA,NA,NA,NA,NA,NA,NA,NA,NA,NA,NA,NA,NA,NA,NA,NA,NA,NA,NA,NA,NA,NA,NA,"",NA,NA,NA,NA,NA,NA,NA,NA,2025-11-18 02:53:29
"6048","https://psyc-201.github.io/xiang2023/exp/index1.html?PROLIFIC_PID=REDACTED&STUDY_ID=69168b21477cff9ada6cb980&SESSION_ID=691bd4c689e40f7e97a34089","html-button-response",9,988228,"0.0-8.0-0.0","SderUN3yU73FjQQZw+EaKa8psf2cYHMiQhaRzVrf6c0BJ934FRSgbPG6fDSl4xy1Kj3kaZkt0KLXsqw3M9b+cUi+jOGVJfrV2aTNz8w+aZx3ApCwAd79bqDQiVvCkxVetQdpGUv36JocdDv6yyS9X80zuHV0xR/UfMfcl3BQC1RYdeUwY2P8tdYTZhcL1ZgKBlLIGyQNXUh36RIc3yK9C+4Z2yoST5QmN4fhxIoLWpQY1a3JSYci+cs7Q6lyRc9gDbVOWfArE9/+zKTWx9mHA87MsUIyrTcw8FD4J5DI2QXLJSb4gJmKFVgMHDzhWxo0UmMGcit9836X3BpO1FAPew==","69168b21477cff9ada6cb980","691bd4c689e40f7e97a34089","index1","<span style='color:red'>Fail,<span style='color:red'>Fail,<span style='color:green'>Lift,<span style='color:green'>Lift,<span style='color:red'>Fail,<span style='color:red'>Fail,<span style='color:red'>Fail,<span style='color:red'>Fail,<span style='color:red'>Fail,<span style='color:green'>Lift,<span style='color:red'>Fail,<span style='color:green'>Lift","<span style='color:red'>Fail,<span style='color:red'>Fail,<span style='color:green'>Lift,<span style='color:green'>Lift,<span style='color:green'>Lift,<span style='color:green'>Lift,<span style='color:red'>Fail,<span style='color:green'>Lift,<span style='color:green'>Lift,<span style='color:green'>Lift,<span style='color:red'>Fail,<span style='color:green'>Lift","<span style='color:red'>Fail,<span style='color:green'>Lift,<span style='color:green'>Lift,<span style='color:red'>Fail,<span style='color:green'>Lift,<span style='color:green'>Lift","0,0,1,1,0,0,0,0,0,1,0,1","0,0,1,1,1,1,0,1,1,1,0,1","0,1,1,0,1,1",10,20,20,"","","<p> Oops! You did not pass the comprehension check.</p>","","","",1,NA,"",NA,NA,NA,NA,NA,NA,NA,NA,NA,NA,NA,NA,NA,NA,NA,NA,NA,NA,NA,NA,NA,NA,NA,NA,NA,NA,NA,NA,NA,NA,NA,NA,NA,NA,NA,NA,NA,NA,NA,"",NA,NA,NA,NA,NA,NA,NA,NA,2025-11-18 02:53:29
"186014","https://psyc-201.github.io/xiang2023/exp/index1.html?PROLIFIC_PID=REDACTED&STUDY_ID=69168b21477cff9ada6cb980&SESSION_ID=691bd4c689e40f7e97a34089","instructions",10,1174243,"0.0-9.0-0.0","SderUN3yU73FjQQZw+EaKa8psf2cYHMiQhaRzVrf6c0BJ934FRSgbPG6fDSl4xy1Kj3kaZkt0KLXsqw3M9b+cUi+jOGVJfrV2aTNz8w+aZx3ApCwAd79bqDQiVvCkxVetQdpGUv36JocdDv6yyS9X80zuHV0xR/UfMfcl3BQC1RYdeUwY2P8tdYTZhcL1ZgKBlLIGyQNXUh36RIc3yK9C+4Z2yoST5QmN4fhxIoLWpQY1a3JSYci+cs7Q6lyRc9gDbVOWfArE9/+zKTWx9mHA87MsUIyrTcw8FD4J5DI2QXLJSb4gJmKFVgMHDzhWxo0UmMGcit9836X3BpO1FAPew==","69168b21477cff9ada6cb980","691bd4c689e40f7e97a34089","index1","<span style='color:red'>Fail,<span style='color:red'>Fail,<span style='color:green'>Lift,<span style='color:green'>Lift,<span style='color:red'>Fail,<span style='color:red'>Fail,<span style='color:red'>Fail,<span style='color:red'>Fail,<span style='color:red'>Fail,<span style='color:green'>Lift,<span style='color:red'>Fail,<span style='color:green'>Lift","<span style='color:red'>Fail,<span style='color:red'>Fail,<span style='color:green'>Lift,<span style='color:green'>Lift,<span style='color:green'>Lift,<span style='color:green'>Lift,<span style='color:red'>Fail,<span style='color:green'>Lift,<span style='color:green'>Lift,<span style='color:green'>Lift,<span style='color:red'>Fail,<span style='color:green'>Lift","<span style='color:red'>Fail,<span style='color:green'>Lift,<span style='color:green'>Lift,<span style='color:red'>Fail,<span style='color:green'>Lift,<span style='color:green'>Lift","0,0,1,1,0,0,0,0,0,1,0,1","0,0,1,1,1,1,0,1,1,1,0,1","0,1,1,0,1,1",10,20,20,"","[{""page_index"":0,""viewing_time"":62469},{""page_index"":1,""viewing_time"":14976},{""page_index"":2,""viewing_time"":46470},{""page_index"":3,""viewing_time"":41420},{""page_index"":4,""viewing_time"":5536},{""page_index"":5,""viewing_time"":10623},{""page_index"":6,""viewing_time"":4520}]","","","","",NA,NA,"",NA,NA,NA,NA,NA,NA,NA,NA,NA,NA,NA,NA,NA,NA,NA,NA,NA,NA,NA,NA,NA,NA,NA,NA,NA,NA,NA,NA,NA,NA,NA,NA,NA,NA,NA,NA,NA,NA,NA,"",NA,NA,NA,NA,NA,NA,NA,NA,2025-11-18 02:53:29
"null","https://psyc-201.github.io/xiang2023/exp/index1.html?PROLIFIC_PID=REDACTED&STUDY_ID=69168b21477cff9ada6cb980&SESSION_ID=691bd4c689e40f7e97a34089","html-keyboard-response",11,1175245,"0.0-9.0-1.0","SderUN3yU73FjQQZw+EaKa8psf2cYHMiQhaRzVrf6c0BJ934FRSgbPG6fDSl4xy1Kj3kaZkt0KLXsqw3M9b+cUi+jOGVJfrV2aTNz8w+aZx3ApCwAd79bqDQiVvCkxVetQdpGUv36JocdDv6yyS9X80zuHV0xR/UfMfcl3BQC1RYdeUwY2P8tdYTZhcL1ZgKBlLIGyQNXUh36RIc3yK9C+4Z2yoST5QmN4fhxIoLWpQY1a3JSYci+cs7Q6lyRc9gDbVOWfArE9/+zKTWx9mHA87MsUIyrTcw8FD4J5DI2QXLJSb4gJmKFVgMHDzhWxo0UmMGcit9836X3BpO1FAPew==","69168b21477cff9ada6cb980","691bd4c689e40f7e97a34089","index1","<span style='color:red'>Fail,<span style='color:red'>Fail,<span style='color:green'>Lift,<span style='color:green'>Lift,<span style='color:red'>Fail,<span style='color:red'>Fail,<span style='color:red'>Fail,<span style='color:red'>Fail,<span style='color:red'>Fail,<span style='color:green'>Lift,<span style='color:red'>Fail,<span style='color:green'>Lift","<span style='color:red'>Fail,<span style='color:red'>Fail,<span style='color:green'>Lift,<span style='color:green'>Lift,<span style='color:green'>Lift,<span style='color:green'>Lift,<span style='color:red'>Fail,<span style='color:green'>Lift,<span style='color:green'>Lift,<span style='color:green'>Lift,<span style='color:red'>Fail,<span style='color:green'>Lift","<span style='color:red'>Fail,<span style='color:green'>Lift,<span style='color:green'>Lift,<span style='color:red'>Fail,<span style='color:green'>Lift,<span style='color:green'>Lift","0,0,1,1,0,0,0,0,0,1,0,1","0,0,1,1,1,1,0,1,1,1,0,1","0,1,1,0,1,1",10,20,20,"",""," ","null","","",NA,NA,"",NA,NA,NA,NA,NA,NA,NA,NA,NA,NA,NA,NA,NA,NA,NA,NA,NA,NA,NA,NA,NA,NA,NA,NA,NA,NA,NA,NA,NA,NA,NA,NA,NA,NA,NA,NA,NA,NA,NA,"",NA,NA,NA,NA,NA,NA,NA,NA,2025-11-18 02:53:29
"165598.99999999977","https://psyc-201.github.io/xiang2023/exp/index1.html?PROLIFIC_PID=REDACTED&STUDY_ID=69168b21477cff9ada6cb980&SESSION_ID=691bd4c689e40f7e97a34089","survey-multi-choice",12,1340847,"0.0-10.0-0.0","SderUN3yU73FjQQZw+EaKa8psf2cYHMiQhaRzVrf6c0BJ934FRSgbPG6fDSl4xy1Kj3kaZkt0KLXsqw3M9b+cUi+jOGVJfrV2aTNz8w+aZx3ApCwAd79bqDQiVvCkxVetQdpGUv36JocdDv6yyS9X80zuHV0xR/UfMfcl3BQC1RYdeUwY2P8tdYTZhcL1ZgKBlLIGyQNXUh36RIc3yK9C+4Z2yoST5QmN4fhxIoLWpQY1a3JSYci+cs7Q6lyRc9gDbVOWfArE9/+zKTWx9mHA87MsUIyrTcw8FD4J5DI2QXLJSb4gJmKFVgMHDzhWxo0UmMGcit9836X3BpO1FAPew==","69168b21477cff9ada6cb980","691bd4c689e40f7e97a34089","index1","<span style='color:red'>Fail,<span style='color:red'>Fail,<span style='color:green'>Lift,<span style='color:green'>Lift,<span style='color:red'>Fail,<span style='color:red'>Fail,<span style='color:red'>Fail,<span style='color:red'>Fail,<span style='color:red'>Fail,<span style='color:green'>Lift,<span style='color:red'>Fail,<span style='color:green'>Lift","<span style='color:red'>Fail,<span style='color:red'>Fail,<span style='color:green'>Lift,<span style='color:green'>Lift,<span style='color:green'>Lift,<span style='color:green'>Lift,<span style='color:red'>Fail,<span style='color:green'>Lift,<span style='color:green'>Lift,<span style='color:green'>Lift,<span style='color:red'>Fail,<span style='color:green'>Lift","<span style='color:red'>Fail,<span style='color:green'>Lift,<span style='color:green'>Lift,<span style='color:red'>Fail,<span style='color:green'>Lift,<span style='color:green'>Lift","0,0,1,1,0,0,0,0,0,1,0,1","0,0,1,1,1,1,0,1,1,1,0,1","0,1,1,0,1,1",10,20,20,"","","","","{""Q0"":""It consists of multiple contests, each contest with three rounds."",""Q1"":""Contestants are always the same across contests."",""Q2"":""The box weight always stays the same (equivalent to strength of 5)."",""Q3"":""Each will get $20."",""Q4"":""How close my guesses are to the actual outcome.""}","[0,1,2,3,4]",NA,NA,"",NA,NA,NA,NA,NA,NA,NA,NA,NA,NA,NA,NA,NA,NA,NA,NA,NA,NA,NA,NA,NA,NA,NA,NA,NA,NA,NA,NA,NA,NA,NA,NA,NA,NA,NA,NA,NA,NA,NA,"",NA,NA,NA,NA,NA,NA,NA,NA,2025-11-18 02:53:29
"1740","https://psyc-201.github.io/xiang2023/exp/index1.html?PROLIFIC_PID=REDACTED&STUDY_ID=69168b21477cff9ada6cb980&SESSION_ID=691bd4c689e40f7e97a34089","html-button-response",13,1342588,"0.0-11.0-0.0","SderUN3yU73FjQQZw+EaKa8psf2cYHMiQhaRzVrf6c0BJ934FRSgbPG6fDSl4xy1Kj3kaZkt0KLXsqw3M9b+cUi+jOGVJfrV2aTNz8w+aZx3ApCwAd79bqDQiVvCkxVetQdpGUv36JocdDv6yyS9X80zuHV0xR/UfMfcl3BQC1RYdeUwY2P8tdYTZhcL1ZgKBlLIGyQNXUh36RIc3yK9C+4Z2yoST5QmN4fhxIoLWpQY1a3JSYci+cs7Q6lyRc9gDbVOWfArE9/+zKTWx9mHA87MsUIyrTcw8FD4J5DI2QXLJSb4gJmKFVgMHDzhWxo0UmMGcit9836X3BpO1FAPew==","69168b21477cff9ada6cb980","691bd4c689e40f7e97a34089","index1","<span style='color:red'>Fail,<span style='color:red'>Fail,<span style='color:green'>Lift,<span style='color:green'>Lift,<span style='color:red'>Fail,<span style='color:red'>Fail,<span style='color:red'>Fail,<span style='color:red'>Fail,<span style='color:red'>Fail,<span style='color:green'>Lift,<span style='color:red'>Fail,<span style='color:green'>Lift","<span style='color:red'>Fail,<span style='color:red'>Fail,<span style='color:green'>Lift,<span style='color:green'>Lift,<span style='color:green'>Lift,<span style='color:green'>Lift,<span style='color:red'>Fail,<span style='color:green'>Lift,<span style='color:green'>Lift,<span style='color:green'>Lift,<span style='color:red'>Fail,<span style='color:green'>Lift","<span style='color:red'>Fail,<span style='color:green'>Lift,<span style='color:green'>Lift,<span style='color:red'>Fail,<span style='color:green'>Lift,<span style='color:green'>Lift","0,0,1,1,0,0,0,0,0,1,0,1","0,0,1,1,1,1,0,1,1,1,0,1","0,1,1,0,1,1",10,20,20,"","","<p> Oops! You did not pass the comprehension check.</p>","","","",0,NA,"",NA,NA,NA,NA,NA,NA,NA,NA,NA,NA,NA,NA,NA,NA,NA,NA,NA,NA,NA,NA,NA,NA,NA,NA,NA,NA,NA,NA,NA,NA,NA,NA,NA,NA,NA,NA,NA,NA,NA,"",NA,NA,NA,NA,NA,NA,NA,NA,2025-11-18 02:53:29
"149692","https://psyc-201.github.io/xiang2023/exp/index1.html?PROLIFIC_PID=REDACTED&STUDY_ID=69168b21477cff9ada6cb980&SESSION_ID=691bd4c689e40f7e97a34089","survey-multi-choice",14,1492282,"0.0-13.0-0.0","SderUN3yU73FjQQZw+EaKa8psf2cYHMiQhaRzVrf6c0BJ934FRSgbPG6fDSl4xy1Kj3kaZkt0KLXsqw3M9b+cUi+jOGVJfrV2aTNz8w+aZx3ApCwAd79bqDQiVvCkxVetQdpGUv36JocdDv6yyS9X80zuHV0xR/UfMfcl3BQC1RYdeUwY2P8tdYTZhcL1ZgKBlLIGyQNXUh36RIc3yK9C+4Z2yoST5QmN4fhxIoLWpQY1a3JSYci+cs7Q6lyRc9gDbVOWfArE9/+zKTWx9mHA87MsUIyrTcw8FD4J5DI2QXLJSb4gJmKFVgMHDzhWxo0UmMGcit9836X3BpO1FAPew==","69168b21477cff9ada6cb980","691bd4c689e40f7e97a34089","index1","<span style='color:red'>Fail,<span style='color:red'>Fail,<span style='color:green'>Lift,<span style='color:green'>Lift,<span style='color:red'>Fail,<span style='color:red'>Fail,<span style='color:red'>Fail,<span style='color:red'>Fail,<span style='color:red'>Fail,<span style='color:green'>Lift,<span style='color:red'>Fail,<span style='color:green'>Lift","<span style='color:red'>Fail,<span style='color:red'>Fail,<span style='color:green'>Lift,<span style='color:green'>Lift,<span style='color:green'>Lift,<span style='color:green'>Lift,<span style='color:red'>Fail,<span style='color:green'>Lift,<span style='color:green'>Lift,<span style='color:green'>Lift,<span style='color:red'>Fail,<span style='color:green'>Lift","<span style='color:red'>Fail,<span style='color:green'>Lift,<span style='color:green'>Lift,<span style='color:red'>Fail,<span style='color:green'>Lift,<span style='color:green'>Lift","0,0,1,1,0,0,0,0,0,1,0,1","0,0,1,1,1,1,0,1,1,1,0,1","0,1,1,0,1,1",10,20,20,"","","","","{""Q0"":""It consists of multiple contests, each contest with three rounds."",""Q1"":""Contestants are always the same across contests."",""Q2"":""The box weight always stays the same (equivalent to strength of 5)."",""Q3"":""Each will get $20."",""Q4"":""How close my guesses are to the actual outcome.""}","[0,1,2,3,4]",NA,NA,"",NA,NA,NA,NA,NA,NA,NA,NA,NA,NA,NA,NA,NA,NA,NA,NA,NA,NA,NA,NA,NA,NA,NA,NA,NA,NA,NA,NA,NA,NA,NA,NA,NA,NA,NA,NA,NA,NA,NA,"",NA,NA,NA,NA,NA,NA,NA,NA,2025-11-18 02:53:29
"2062","https://psyc-201.github.io/xiang2023/exp/index1.html?PROLIFIC_PID=REDACTED&STUDY_ID=69168b21477cff9ada6cb980&SESSION_ID=691bd4c689e40f7e97a34089","html-button-response",15,1494347,"0.0-14.0-0.0","SderUN3yU73FjQQZw+EaKa8psf2cYHMiQhaRzVrf6c0BJ934FRSgbPG6fDSl4xy1Kj3kaZkt0KLXsqw3M9b+cUi+jOGVJfrV2aTNz8w+aZx3ApCwAd79bqDQiVvCkxVetQdpGUv36JocdDv6yyS9X80zuHV0xR/UfMfcl3BQC1RYdeUwY2P8tdYTZhcL1ZgKBlLIGyQNXUh36RIc3yK9C+4Z2yoST5QmN4fhxIoLWpQY1a3JSYci+cs7Q6lyRc9gDbVOWfArE9/+zKTWx9mHA87MsUIyrTcw8FD4J5DI2QXLJSb4gJmKFVgMHDzhWxo0UmMGcit9836X3BpO1FAPew==","69168b21477cff9ada6cb980","691bd4c689e40f7e97a34089","index1","<span style='color:red'>Fail,<span style='color:red'>Fail,<span style='color:green'>Lift,<span style='color:green'>Lift,<span style='color:red'>Fail,<span style='color:red'>Fail,<span style='color:red'>Fail,<span style='color:red'>Fail,<span style='color:red'>Fail,<span style='color:green'>Lift,<span style='color:red'>Fail,<span style='color:green'>Lift","<span style='color:red'>Fail,<span style='color:red'>Fail,<span style='color:green'>Lift,<span style='color:green'>Lift,<span style='color:green'>Lift,<span style='color:green'>Lift,<span style='color:red'>Fail,<span style='color:green'>Lift,<span style='color:green'>Lift,<span style='color:green'>Lift,<span style='color:red'>Fail,<span style='color:green'>Lift","<span style='color:red'>Fail,<span style='color:green'>Lift,<span style='color:green'>Lift,<span style='color:red'>Fail,<span style='color:green'>Lift,<span style='color:green'>Lift","0,0,1,1,0,0,0,0,0,1,0,1","0,0,1,1,1,1,0,1,1,1,0,1","0,1,1,0,1,1",10,20,20,"","","<p> Oops! You did not pass the comprehension check.</p>","","","",0,NA,"",NA,NA,NA,NA,NA,NA,NA,NA,NA,NA,NA,NA,NA,NA,NA,NA,NA,NA,NA,NA,NA,NA,NA,NA,NA,NA,NA,NA,NA,NA,NA,NA,NA,NA,NA,NA,NA,NA,NA,"",NA,NA,NA,NA,NA,NA,NA,NA,2025-11-18 02:53:29
"121777","https://psyc-201.github.io/xiang2023/exp/index1.html?PROLIFIC_PID=REDACTED&STUDY_ID=69168b21477cff9ada6cb980&SESSION_ID=691bd4c689e40f7e97a34089","survey-multi-choice",16,1616138,"0.0-16.0-0.0","SderUN3yU73FjQQZw+EaKa8psf2cYHMiQhaRzVrf6c0BJ934FRSgbPG6fDSl4xy1Kj3kaZkt0KLXsqw3M9b+cUi+jOGVJfrV2aTNz8w+aZx3ApCwAd79bqDQiVvCkxVetQdpGUv36JocdDv6yyS9X80zuHV0xR/UfMfcl3BQC1RYdeUwY2P8tdYTZhcL1ZgKBlLIGyQNXUh36RIc3yK9C+4Z2yoST5QmN4fhxIoLWpQY1a3JSYci+cs7Q6lyRc9gDbVOWfArE9/+zKTWx9mHA87MsUIyrTcw8FD4J5DI2QXLJSb4gJmKFVgMHDzhWxo0UmMGcit9836X3BpO1FAPew==","69168b21477cff9ada6cb980","691bd4c689e40f7e97a34089","index1","<span style='color:red'>Fail,<span style='color:red'>Fail,<span style='color:green'>Lift,<span style='color:green'>Lift,<span style='color:red'>Fail,<span style='color:red'>Fail,<span style='color:red'>Fail,<span style='color:red'>Fail,<span style='color:red'>Fail,<span style='color:green'>Lift,<span style='color:red'>Fail,<span style='color:green'>Lift","<span style='color:red'>Fail,<span style='color:red'>Fail,<span style='color:green'>Lift,<span style='color:green'>Lift,<span style='color:green'>Lift,<span style='color:green'>Lift,<span style='color:red'>Fail,<span style='color:green'>Lift,<span style='color:green'>Lift,<span style='color:green'>Lift,<span style='color:red'>Fail,<span style='color:green'>Lift","<span style='color:red'>Fail,<span style='color:green'>Lift,<span style='color:green'>Lift,<span style='color:red'>Fail,<span style='color:green'>Lift,<span style='color:green'>Lift","0,0,1,1,0,0,0,0,0,1,0,1","0,0,1,1,1,1,0,1,1,1,0,1","0,1,1,0,1,1",10,20,20,"","","","","{""Q0"":""It consists of multiple contests, each contest with three rounds."",""Q1"":""When a new contest begins."",""Q2"":""The box weight always stays the same (equivalent to strength of 5)."",""Q3"":""Each will get $20."",""Q4"":""How close my guesses are to the actual outcome.""}","[0,1,2,3,4]",NA,NA,"",NA,NA,NA,NA,NA,NA,NA,NA,NA,NA,NA,NA,NA,NA,NA,NA,NA,NA,NA,NA,NA,NA,NA,NA,NA,NA,NA,NA,NA,NA,NA,NA,NA,NA,NA,NA,NA,NA,NA,"",NA,NA,NA,NA,NA,NA,NA,NA,2025-11-18 02:53:29
"20059","https://psyc-201.github.io/xiang2023/exp/index1.html?PROLIFIC_PID=REDACTED&STUDY_ID=69168b21477cff9ada6cb980&SESSION_ID=691bd4c689e40f7e97a34089","instructions",17,1636201,"0.0-305.0","SderUN3yU73FjQQZw+EaKa8psf2cYHMiQhaRzVrf6c0BJ934FRSgbPG6fDSl4xy1Kj3kaZkt0KLXsqw3M9b+cUi+jOGVJfrV2aTNz8w+aZx3ApCwAd79bqDQiVvCkxVetQdpGUv36JocdDv6yyS9X80zuHV0xR/UfMfcl3BQC1RYdeUwY2P8tdYTZhcL1ZgKBlLIGyQNXUh36RIc3yK9C+4Z2yoST5QmN4fhxIoLWpQY1a3JSYci+cs7Q6lyRc9gDbVOWfArE9/+zKTWx9mHA87MsUIyrTcw8FD4J5DI2QXLJSb4gJmKFVgMHDzhWxo0UmMGcit9836X3BpO1FAPew==","69168b21477cff9ada6cb980","691bd4c689e40f7e97a34089","index1","<span style='color:red'>Fail,<span style='color:red'>Fail,<span style='color:green'>Lift,<span style='color:green'>Lift,<span style='color:red'>Fail,<span style='color:red'>Fail,<span style='color:red'>Fail,<span style='color:red'>Fail,<span style='color:red'>Fail,<span style='color:green'>Lift,<span style='color:red'>Fail,<span style='color:green'>Lift","<span style='color:red'>Fail,<span style='color:red'>Fail,<span style='color:green'>Lift,<span style='color:green'>Lift,<span style='color:green'>Lift,<span style='color:green'>Lift,<span style='color:red'>Fail,<span style='color:green'>Lift,<span style='color:green'>Lift,<span style='color:green'>Lift,<span style='color:red'>Fail,<span style='color:green'>Lift","<span style='color:red'>Fail,<span style='color:green'>Lift,<span style='color:green'>Lift,<span style='color:red'>Fail,<span style='color:green'>Lift,<span style='color:green'>Lift","0,0,1,1,0,0,0,0,0,1,0,1","0,0,1,1,1,1,0,1,1,1,0,1","0,1,1,0,1,1",10,20,20,"","[{""page_index"":0,""viewing_time"":17107},{""page_index"":1,""viewing_time"":2952}]","","","","",NA,NA,"",NA,NA,NA,NA,NA,NA,NA,NA,NA,NA,NA,NA,NA,NA,NA,NA,NA,NA,NA,NA,NA,NA,NA,NA,NA,NA,NA,NA,NA,NA,NA,NA,NA,NA,NA,NA,NA,NA,NA,"",NA,NA,NA,NA,NA,NA,NA,NA,2025-11-18 02:53:29
"null","https://psyc-201.github.io/xiang2023/exp/index1.html?PROLIFIC_PID=REDACTED&STUDY_ID=69168b21477cff9ada6cb980&SESSION_ID=691bd4c689e40f7e97a34089","html-keyboard-response",18,1637203,"0.0-306.0","SderUN3yU73FjQQZw+EaKa8psf2cYHMiQhaRzVrf6c0BJ934FRSgbPG6fDSl4xy1Kj3kaZkt0KLXsqw3M9b+cUi+jOGVJfrV2aTNz8w+aZx3ApCwAd79bqDQiVvCkxVetQdpGUv36JocdDv6yyS9X80zuHV0xR/UfMfcl3BQC1RYdeUwY2P8tdYTZhcL1ZgKBlLIGyQNXUh36RIc3yK9C+4Z2yoST5QmN4fhxIoLWpQY1a3JSYci+cs7Q6lyRc9gDbVOWfArE9/+zKTWx9mHA87MsUIyrTcw8FD4J5DI2QXLJSb4gJmKFVgMHDzhWxo0UmMGcit9836X3BpO1FAPew==","69168b21477cff9ada6cb980","691bd4c689e40f7e97a34089","index1","<span style='color:red'>Fail,<span style='color:red'>Fail,<span style='color:green'>Lift,<span style='color:green'>Lift,<span style='color:red'>Fail,<span style='color:red'>Fail,<span style='color:red'>Fail,<span style='color:red'>Fail,<span style='color:red'>Fail,<span style='color:green'>Lift,<span style='color:red'>Fail,<span style='color:green'>Lift","<span style='color:red'>Fail,<span style='color:red'>Fail,<span style='color:green'>Lift,<span style='color:green'>Lift,<span style='color:green'>Lift,<span style='color:green'>Lift,<span style='color:red'>Fail,<span style='color:green'>Lift,<span style='color:green'>Lift,<span style='color:green'>Lift,<span style='color:red'>Fail,<span style='color:green'>Lift","<span style='color:red'>Fail,<span style='color:green'>Lift,<span style='color:green'>Lift,<span style='color:red'>Fail,<span style='color:green'>Lift,<span style='color:green'>Lift","0,0,1,1,0,0,0,0,0,1,0,1","0,0,1,1,1,1,0,1,1,1,0,1","0,1,1,0,1,1",10,20,20,"",""," ","null","","",NA,1,"",NA,NA,NA,NA,NA,NA,NA,NA,NA,NA,NA,NA,NA,NA,NA,NA,NA,NA,NA,NA,NA,NA,NA,NA,NA,NA,NA,NA,NA,NA,NA,NA,NA,NA,NA,NA,NA,NA,NA,"",NA,NA,NA,NA,NA,NA,NA,NA,2025-11-18 02:53:29
"null","https://psyc-201.github.io/xiang2023/exp/index1.html?PROLIFIC_PID=REDACTED&STUDY_ID=69168b21477cff9ada6cb980&SESSION_ID=691bd4c689e40f7e97a34089","html-keyboard-response",19,1640208,"0.0-307.0","SderUN3yU73FjQQZw+EaKa8psf2cYHMiQhaRzVrf6c0BJ934FRSgbPG6fDSl4xy1Kj3kaZkt0KLXsqw3M9b+cUi+jOGVJfrV2aTNz8w+aZx3ApCwAd79bqDQiVvCkxVetQdpGUv36JocdDv6yyS9X80zuHV0xR/UfMfcl3BQC1RYdeUwY2P8tdYTZhcL1ZgKBlLIGyQNXUh36RIc3yK9C+4Z2yoST5QmN4fhxIoLWpQY1a3JSYci+cs7Q6lyRc9gDbVOWfArE9/+zKTWx9mHA87MsUIyrTcw8FD4J5DI2QXLJSb4gJmKFVgMHDzhWxo0UmMGcit9836X3BpO1FAPew==","69168b21477cff9ada6cb980","691bd4c689e40f7e97a34089","index1","<span style='color:red'>Fail,<span style='color:red'>Fail,<span style='color:green'>Lift,<span style='color:green'>Lift,<span style='color:red'>Fail,<span style='color:red'>Fail,<span style='color:red'>Fail,<span style='color:red'>Fail,<span style='color:red'>Fail,<span style='color:green'>Lift,<span style='color:red'>Fail,<span style='color:green'>Lift","<span style='color:red'>Fail,<span style='color:red'>Fail,<span style='color:green'>Lift,<span style='color:green'>Lift,<span style='color:green'>Lift,<span style='color:green'>Lift,<span style='color:red'>Fail,<span style='color:green'>Lift,<span style='color:green'>Lift,<span style='color:green'>Lift,<span style='color:red'>Fail,<span style='color:green'>Lift","<span style='color:red'>Fail,<span style='color:green'>Lift,<span style='color:green'>Lift,<span style='color:red'>Fail,<span style='color:green'>Lift,<span style='color:green'>Lift","0,0,1,1,0,0,0,0,0,1,0,1","0,0,1,1,1,1,0,1,1,1,0,1","0,1,1,0,1,1",10,20,20,"","","<p style='font-size:30px'><b> New Contest! </b></p>","null","","",NA,1,"",NA,NA,NA,NA,NA,NA,NA,NA,NA,NA,NA,NA,NA,NA,NA,NA,NA,NA,NA,NA,NA,NA,NA,NA,NA,NA,NA,NA,NA,NA,NA,NA,NA,NA,NA,NA,NA,NA,NA,"",NA,NA,NA,NA,NA,NA,NA,NA,2025-11-18 02:53:29
"103166.99999999977","https://psyc-201.github.io/xiang2023/exp/index1.html?PROLIFIC_PID=REDACTED&STUDY_ID=69168b21477cff9ada6cb980&SESSION_ID=691bd4c689e40f7e97a34089","survey-html-form",20,1743379,"0.0-308.0","SderUN3yU73FjQQZw+EaKa8psf2cYHMiQhaRzVrf6c0BJ934FRSgbPG6fDSl4xy1Kj3kaZkt0KLXsqw3M9b+cUi+jOGVJfrV2aTNz8w+aZx3ApCwAd79bqDQiVvCkxVetQdpGUv36JocdDv6yyS9X80zuHV0xR/UfMfcl3BQC1RYdeUwY2P8tdYTZhcL1ZgKBlLIGyQNXUh36RIc3yK9C+4Z2yoST5QmN4fhxIoLWpQY1a3JSYci+cs7Q6lyRc9gDbVOWfArE9/+zKTWx9mHA87MsUIyrTcw8FD4J5DI2QXLJSb4gJmKFVgMHDzhWxo0UmMGcit9836X3BpO1FAPew==","69168b21477cff9ada6cb980","691bd4c689e40f7e97a34089","index1","<span style='color:red'>Fail,<span style='color:red'>Fail,<span style='color:green'>Lift,<span style='color:green'>Lift,<span style='color:red'>Fail,<span style='color:red'>Fail,<span style='color:red'>Fail,<span style='color:red'>Fail,<span style='color:red'>Fail,<span style='color:green'>Lift,<span style='color:red'>Fail,<span style='color:green'>Lift","<span style='color:red'>Fail,<span style='color:red'>Fail,<span style='color:green'>Lift,<span style='color:green'>Lift,<span style='color:green'>Lift,<span style='color:green'>Lift,<span style='color:red'>Fail,<span style='color:green'>Lift,<span style='color:green'>Lift,<span style='color:green'>Lift,<span style='color:red'>Fail,<span style='color:green'>Lift","<span style='color:red'>Fail,<span style='color:green'>Lift,<span style='color:green'>Lift,<span style='color:red'>Fail,<span style='color:green'>Lift,<span style='color:green'>Lift","0,0,1,1,0,0,0,0,0,1,0,1","0,0,1,1,1,1,0,1,1,1,0,1","0,1,1,0,1,1",10,20,20,"","","","","{""box1"":""5"",""box2"":""5""}","",NA,1,"round1_outcome",1,1,1,5,5,NA,NA,0,0,10,5,5,NA,NA,0,0,10,NA,NA,NA,NA,NA,NA,NA,NA,NA,NA,NA,NA,NA,NA,NA,NA,NA,NA,NA,NA,NA,NA,"",NA,NA,NA,NA,NA,NA,NA,NA,2025-11-18 02:53:29
"34830","https://psyc-201.github.io/xiang2023/exp/index1.html?PROLIFIC_PID=REDACTED&STUDY_ID=69168b21477cff9ada6cb980&SESSION_ID=691bd4c689e40f7e97a34089","survey-html-form",21,1778211,"0.0-309.0","SderUN3yU73FjQQZw+EaKa8psf2cYHMiQhaRzVrf6c0BJ934FRSgbPG6fDSl4xy1Kj3kaZkt0KLXsqw3M9b+cUi+jOGVJfrV2aTNz8w+aZx3ApCwAd79bqDQiVvCkxVetQdpGUv36JocdDv6yyS9X80zuHV0xR/UfMfcl3BQC1RYdeUwY2P8tdYTZhcL1ZgKBlLIGyQNXUh36RIc3yK9C+4Z2yoST5QmN4fhxIoLWpQY1a3JSYci+cs7Q6lyRc9gDbVOWfArE9/+zKTWx9mHA87MsUIyrTcw8FD4J5DI2QXLJSb4gJmKFVgMHDzhWxo0UmMGcit9836X3BpO1FAPew==","69168b21477cff9ada6cb980","691bd4c689e40f7e97a34089","index1","<span style='color:red'>Fail,<span style='color:red'>Fail,<span style='color:green'>Lift,<span style='color:green'>Lift,<span style='color:red'>Fail,<span style='color:red'>Fail,<span style='color:red'>Fail,<span style='color:red'>Fail,<span style='color:red'>Fail,<span style='color:green'>Lift,<span style='color:red'>Fail,<span style='color:green'>Lift","<span style='color:red'>Fail,<span style='color:red'>Fail,<span style='color:green'>Lift,<span style='color:green'>Lift,<span style='color:green'>Lift,<span style='color:green'>Lift,<span style='color:red'>Fail,<span style='color:green'>Lift,<span style='color:green'>Lift,<span style='color:green'>Lift,<span style='color:red'>Fail,<span style='color:green'>Lift","<span style='color:red'>Fail,<span style='color:green'>Lift,<span style='color:green'>Lift,<span style='color:red'>Fail,<span style='color:green'>Lift,<span style='color:green'>Lift","0,0,1,1,0,0,0,0,0,1,0,1","0,0,1,1,1,1,0,1,1,1,0,1","0,1,1,0,1,1",10,20,20,"","","","","{""box1"":""100"",""box2"":""100""}","",NA,1,"round2_ready",2,1,2,NA,NA,NA,NA,NA,NA,NA,NA,NA,NA,NA,NA,NA,NA,100,100,100,100,NA,NA,NA,NA,NA,NA,NA,NA,NA,NA,NA,NA,NA,NA,NA,NA,NA,NA,"",NA,NA,NA,NA,NA,NA,NA,NA,2025-11-18 02:53:29
"31550.999999999767","https://psyc-201.github.io/xiang2023/exp/index1.html?PROLIFIC_PID=REDACTED&STUDY_ID=69168b21477cff9ada6cb980&SESSION_ID=691bd4c689e40f7e97a34089","survey-html-form",22,1809764,"0.0-310.0","SderUN3yU73FjQQZw+EaKa8psf2cYHMiQhaRzVrf6c0BJ934FRSgbPG6fDSl4xy1Kj3kaZkt0KLXsqw3M9b+cUi+jOGVJfrV2aTNz8w+aZx3ApCwAd79bqDQiVvCkxVetQdpGUv36JocdDv6yyS9X80zuHV0xR/UfMfcl3BQC1RYdeUwY2P8tdYTZhcL1ZgKBlLIGyQNXUh36RIc3yK9C+4Z2yoST5QmN4fhxIoLWpQY1a3JSYci+cs7Q6lyRc9gDbVOWfArE9/+zKTWx9mHA87MsUIyrTcw8FD4J5DI2QXLJSb4gJmKFVgMHDzhWxo0UmMGcit9836X3BpO1FAPew==","69168b21477cff9ada6cb980","691bd4c689e40f7e97a34089","index1","<span style='color:red'>Fail,<span style='color:red'>Fail,<span style='color:green'>Lift,<span style='color:green'>Lift,<span style='color:red'>Fail,<span style='color:red'>Fail,<span style='color:red'>Fail,<span style='color:red'>Fail,<span style='color:red'>Fail,<span style='color:green'>Lift,<span style='color:red'>Fail,<span style='color:green'>Lift","<span style='color:red'>Fail,<span style='color:red'>Fail,<span style='color:green'>Lift,<span style='color:green'>Lift,<span style='color:green'>Lift,<span style='color:green'>Lift,<span style='color:red'>Fail,<span style='color:green'>Lift,<span style='color:green'>Lift,<span style='color:green'>Lift,<span style='color:red'>Fail,<span style='color:green'>Lift","<span style='color:red'>Fail,<span style='color:green'>Lift,<span style='color:green'>Lift,<span style='color:red'>Fail,<span style='color:green'>Lift,<span style='color:green'>Lift","0,0,1,1,0,0,0,0,0,1,0,1","0,0,1,1,1,1,0,1,1,1,0,1","0,1,1,0,1,1",10,20,20,"","","","","{""box1"":""1"",""box2"":""1""}","",NA,1,"round2_outcome",3,1,2,1,1,NA,NA,0,0,20,NA,NA,NA,NA,NA,NA,NA,NA,NA,NA,NA,1,1,NA,NA,0,0,20,NA,NA,NA,NA,NA,NA,NA,NA,NA,NA,NA,"",NA,NA,NA,NA,NA,NA,NA,NA,2025-11-18 02:53:29
"14983","https://psyc-201.github.io/xiang2023/exp/index1.html?PROLIFIC_PID=REDACTED&STUDY_ID=69168b21477cff9ada6cb980&SESSION_ID=691bd4c689e40f7e97a34089","survey-html-form",23,1824749,"0.0-311.0","SderUN3yU73FjQQZw+EaKa8psf2cYHMiQhaRzVrf6c0BJ934FRSgbPG6fDSl4xy1Kj3kaZkt0KLXsqw3M9b+cUi+jOGVJfrV2aTNz8w+aZx3ApCwAd79bqDQiVvCkxVetQdpGUv36JocdDv6yyS9X80zuHV0xR/UfMfcl3BQC1RYdeUwY2P8tdYTZhcL1ZgKBlLIGyQNXUh36RIc3yK9C+4Z2yoST5QmN4fhxIoLWpQY1a3JSYci+cs7Q6lyRc9gDbVOWfArE9/+zKTWx9mHA87MsUIyrTcw8FD4J5DI2QXLJSb4gJmKFVgMHDzhWxo0UmMGcit9836X3BpO1FAPew==","69168b21477cff9ada6cb980","691bd4c689e40f7e97a34089","index1","<span style='color:red'>Fail,<span style='color:red'>Fail,<span style='color:green'>Lift,<span style='color:green'>Lift,<span style='color:red'>Fail,<span style='color:red'>Fail,<span style='color:red'>Fail,<span style='color:red'>Fail,<span style='color:red'>Fail,<span style='color:green'>Lift,<span style='color:red'>Fail,<span style='color:green'>Lift","<span style='color:red'>Fail,<span style='color:red'>Fail,<span style='color:green'>Lift,<span style='color:green'>Lift,<span style='color:green'>Lift,<span style='color:green'>Lift,<span style='color:red'>Fail,<span style='color:green'>Lift,<span style='color:green'>Lift,<span style='color:green'>Lift,<span style='color:red'>Fail,<span style='color:green'>Lift","<span style='color:red'>Fail,<span style='color:green'>Lift,<span style='color:green'>Lift,<span style='color:red'>Fail,<span style='color:green'>Lift,<span style='color:green'>Lift","0,0,1,1,0,0,0,0,0,1,0,1","0,0,1,1,1,1,0,1,1,1,0,1","0,1,1,0,1,1",10,20,20,"","","","","{""box1"":""50""}","",NA,1,"round3_ready",4,1,3,NA,NA,NA,NA,NA,NA,NA,NA,NA,NA,NA,NA,NA,NA,50,50,NA,NA,NA,NA,NA,NA,NA,NA,NA,50,50,NA,NA,NA,NA,NA,NA,NA,NA,NA,"",NA,NA,NA,NA,NA,NA,NA,NA,2025-11-18 02:53:29
"141271.00000000023","https://psyc-201.github.io/xiang2023/exp/index1.html?PROLIFIC_PID=REDACTED&STUDY_ID=69168b21477cff9ada6cb980&SESSION_ID=691bd4c689e40f7e97a34089","survey-html-form",24,1966022,"0.0-313.0-0.0","SderUN3yU73FjQQZw+EaKa8psf2cYHMiQhaRzVrf6c0BJ934FRSgbPG6fDSl4xy1Kj3kaZkt0KLXsqw3M9b+cUi+jOGVJfrV2aTNz8w+aZx3ApCwAd79bqDQiVvCkxVetQdpGUv36JocdDv6yyS9X80zuHV0xR/UfMfcl3BQC1RYdeUwY2P8tdYTZhcL1ZgKBlLIGyQNXUh36RIc3yK9C+4Z2yoST5QmN4fhxIoLWpQY1a3JSYci+cs7Q6lyRc9gDbVOWfArE9/+zKTWx9mHA87MsUIyrTcw8FD4J5DI2QXLJSb4gJmKFVgMHDzhWxo0UmMGcit9836X3BpO1FAPew==","69168b21477cff9ada6cb980","691bd4c689e40f7e97a34089","index1","<span style='color:red'>Fail,<span style='color:red'>Fail,<span style='color:green'>Lift,<span style='color:green'>Lift,<span style='color:red'>Fail,<span style='color:red'>Fail,<span style='color:red'>Fail,<span style='color:red'>Fail,<span style='color:red'>Fail,<span style='color:green'>Lift,<span style='color:red'>Fail,<span style='color:green'>Lift","<span style='color:red'>Fail,<span style='color:red'>Fail,<span style='color:green'>Lift,<span style='color:green'>Lift,<span style='color:green'>Lift,<span style='color:green'>Lift,<span style='color:red'>Fail,<span style='color:green'>Lift,<span style='color:green'>Lift,<span style='color:green'>Lift,<span style='color:red'>Fail,<span style='color:green'>Lift","<span style='color:red'>Fail,<span style='color:green'>Lift,<span style='color:green'>Lift,<span style='color:red'>Fail,<span style='color:green'>Lift,<span style='color:green'>Lift","0,0,1,1,0,0,0,0,0,1,0,1","0,0,1,1,1,1,0,1,1,1,0,1","0,1,1,0,1,1",10,20,20,"","","","","{""box1"":""5"",""box2"":""1"",""box3"":""999"",""box4"":""999""}","",NA,2,"round3_fail",5,1,3,5,1,NA,NA,0,0,20,NA,NA,NA,NA,NA,NA,NA,NA,NA,NA,NA,NA,NA,NA,NA,NA,NA,NA,NA,NA,1,1,5,1,0,0,20,NA,NA,"",NA,NA,NA,NA,NA,NA,NA,NA,2025-11-18 02:53:29
"null","https://psyc-201.github.io/xiang2023/exp/index1.html?PROLIFIC_PID=REDACTED&STUDY_ID=69168b21477cff9ada6cb980&SESSION_ID=691bd4c689e40f7e97a34089","html-keyboard-response",25,1969025,"0.0-316.0","SderUN3yU73FjQQZw+EaKa8psf2cYHMiQhaRzVrf6c0BJ934FRSgbPG6fDSl4xy1Kj3kaZkt0KLXsqw3M9b+cUi+jOGVJfrV2aTNz8w+aZx3ApCwAd79bqDQiVvCkxVetQdpGUv36JocdDv6yyS9X80zuHV0xR/UfMfcl3BQC1RYdeUwY2P8tdYTZhcL1ZgKBlLIGyQNXUh36RIc3yK9C+4Z2yoST5QmN4fhxIoLWpQY1a3JSYci+cs7Q6lyRc9gDbVOWfArE9/+zKTWx9mHA87MsUIyrTcw8FD4J5DI2QXLJSb4gJmKFVgMHDzhWxo0UmMGcit9836X3BpO1FAPew==","69168b21477cff9ada6cb980","691bd4c689e40f7e97a34089","index1","<span style='color:red'>Fail,<span style='color:red'>Fail,<span style='color:green'>Lift,<span style='color:green'>Lift,<span style='color:red'>Fail,<span style='color:red'>Fail,<span style='color:red'>Fail,<span style='color:red'>Fail,<span style='color:red'>Fail,<span style='color:green'>Lift,<span style='color:red'>Fail,<span style='color:green'>Lift","<span style='color:red'>Fail,<span style='color:red'>Fail,<span style='color:green'>Lift,<span style='color:green'>Lift,<span style='color:green'>Lift,<span style='color:green'>Lift,<span style='color:red'>Fail,<span style='color:green'>Lift,<span style='color:green'>Lift,<span style='color:green'>Lift,<span style='color:red'>Fail,<span style='color:green'>Lift","<span style='color:red'>Fail,<span style='color:green'>Lift,<span style='color:green'>Lift,<span style='color:red'>Fail,<span style='color:green'>Lift,<span style='color:green'>Lift","0,0,1,1,0,0,0,0,0,1,0,1","0,0,1,1,1,1,0,1,1,1,0,1","0,1,1,0,1,1",10,20,20,"","","<p style='font-size:30px'><b> New Contest! </b></p>","null","","",NA,2,"",NA,NA,NA,NA,NA,NA,NA,NA,NA,NA,NA,NA,NA,NA,NA,NA,NA,NA,NA,NA,NA,NA,NA,NA,NA,NA,NA,NA,NA,NA,NA,NA,NA,NA,NA,NA,NA,NA,NA,"",NA,NA,NA,NA,NA,NA,NA,NA,2025-11-18 02:53:29
"23017","https://psyc-201.github.io/xiang2023/exp/index1.html?PROLIFIC_PID=REDACTED&STUDY_ID=69168b21477cff9ada6cb980&SESSION_ID=691bd4c689e40f7e97a34089","survey-html-form",26,1992045,"0.0-317.0","SderUN3yU73FjQQZw+EaKa8psf2cYHMiQhaRzVrf6c0BJ934FRSgbPG6fDSl4xy1Kj3kaZkt0KLXsqw3M9b+cUi+jOGVJfrV2aTNz8w+aZx3ApCwAd79bqDQiVvCkxVetQdpGUv36JocdDv6yyS9X80zuHV0xR/UfMfcl3BQC1RYdeUwY2P8tdYTZhcL1ZgKBlLIGyQNXUh36RIc3yK9C+4Z2yoST5QmN4fhxIoLWpQY1a3JSYci+cs7Q6lyRc9gDbVOWfArE9/+zKTWx9mHA87MsUIyrTcw8FD4J5DI2QXLJSb4gJmKFVgMHDzhWxo0UmMGcit9836X3BpO1FAPew==","69168b21477cff9ada6cb980","691bd4c689e40f7e97a34089","index1","<span style='color:red'>Fail,<span style='color:red'>Fail,<span style='color:green'>Lift,<span style='color:green'>Lift,<span style='color:red'>Fail,<span style='color:red'>Fail,<span style='color:red'>Fail,<span style='color:red'>Fail,<span style='color:red'>Fail,<span style='color:green'>Lift,<span style='color:red'>Fail,<span style='color:green'>Lift","<span style='color:red'>Fail,<span style='color:red'>Fail,<span style='color:green'>Lift,<span style='color:green'>Lift,<span style='color:green'>Lift,<span style='color:green'>Lift,<span style='color:red'>Fail,<span style='color:green'>Lift,<span style='color:green'>Lift,<span style='color:green'>Lift,<span style='color:red'>Fail,<span style='color:green'>Lift","<span style='color:red'>Fail,<span style='color:green'>Lift,<span style='color:green'>Lift,<span style='color:red'>Fail,<span style='color:green'>Lift,<span style='color:green'>Lift","0,0,1,1,0,0,0,0,0,1,0,1","0,0,1,1,1,1,0,1,1,1,0,1","0,1,1,0,1,1",10,20,20,"","","","","{""box1"":""5"",""box2"":""5""}","",NA,2,"round1_outcome",1,2,1,5,5,NA,NA,0,0,10,5,5,NA,NA,0,0,10,NA,NA,NA,NA,NA,NA,NA,NA,NA,NA,NA,NA,NA,NA,NA,NA,NA,NA,NA,NA,NA,NA,"",NA,NA,NA,NA,NA,NA,NA,NA,2025-11-18 02:53:29
"14063.000000000233","https://psyc-201.github.io/xiang2023/exp/index1.html?PROLIFIC_PID=REDACTED&STUDY_ID=69168b21477cff9ada6cb980&SESSION_ID=691bd4c689e40f7e97a34089","survey-html-form",27,2006109,"0.0-318.0","SderUN3yU73FjQQZw+EaKa8psf2cYHMiQhaRzVrf6c0BJ934FRSgbPG6fDSl4xy1Kj3kaZkt0KLXsqw3M9b+cUi+jOGVJfrV2aTNz8w+aZx3ApCwAd79bqDQiVvCkxVetQdpGUv36JocdDv6yyS9X80zuHV0xR/UfMfcl3BQC1RYdeUwY2P8tdYTZhcL1ZgKBlLIGyQNXUh36RIc3yK9C+4Z2yoST5QmN4fhxIoLWpQY1a3JSYci+cs7Q6lyRc9gDbVOWfArE9/+zKTWx9mHA87MsUIyrTcw8FD4J5DI2QXLJSb4gJmKFVgMHDzhWxo0UmMGcit9836X3BpO1FAPew==","69168b21477cff9ada6cb980","691bd4c689e40f7e97a34089","index1","<span style='color:red'>Fail,<span style='color:red'>Fail,<span style='color:green'>Lift,<span style='color:green'>Lift,<span style='color:red'>Fail,<span style='color:red'>Fail,<span style='color:red'>Fail,<span style='color:red'>Fail,<span style='color:red'>Fail,<span style='color:green'>Lift,<span style='color:red'>Fail,<span style='color:green'>Lift","<span style='color:red'>Fail,<span style='color:red'>Fail,<span style='color:green'>Lift,<span style='color:green'>Lift,<span style='color:green'>Lift,<span style='color:green'>Lift,<span style='color:red'>Fail,<span style='color:green'>Lift,<span style='color:green'>Lift,<span style='color:green'>Lift,<span style='color:red'>Fail,<span style='color:green'>Lift","<span style='color:red'>Fail,<span style='color:green'>Lift,<span style='color:green'>Lift,<span style='color:red'>Fail,<span style='color:green'>Lift,<span style='color:green'>Lift","0,0,1,1,0,0,0,0,0,1,0,1","0,0,1,1,1,1,0,1,1,1,0,1","0,1,1,0,1,1",10,20,20,"","","","","{""box1"":""50"",""box2"":""50""}","",NA,2,"round2_ready",2,2,2,NA,NA,NA,NA,NA,NA,NA,NA,NA,NA,NA,NA,NA,NA,50,50,50,50,NA,NA,NA,NA,NA,NA,NA,NA,NA,NA,NA,NA,NA,NA,NA,NA,NA,NA,"",NA,NA,NA,NA,NA,NA,NA,NA,2025-11-18 02:53:29
"51615","https://psyc-201.github.io/xiang2023/exp/index1.html?PROLIFIC_PID=REDACTED&STUDY_ID=69168b21477cff9ada6cb980&SESSION_ID=691bd4c689e40f7e97a34089","survey-html-form",28,2057726,"0.0-319.0","SderUN3yU73FjQQZw+EaKa8psf2cYHMiQhaRzVrf6c0BJ934FRSgbPG6fDSl4xy1Kj3kaZkt0KLXsqw3M9b+cUi+jOGVJfrV2aTNz8w+aZx3ApCwAd79bqDQiVvCkxVetQdpGUv36JocdDv6yyS9X80zuHV0xR/UfMfcl3BQC1RYdeUwY2P8tdYTZhcL1ZgKBlLIGyQNXUh36RIc3yK9C+4Z2yoST5QmN4fhxIoLWpQY1a3JSYci+cs7Q6lyRc9gDbVOWfArE9/+zKTWx9mHA87MsUIyrTcw8FD4J5DI2QXLJSb4gJmKFVgMHDzhWxo0UmMGcit9836X3BpO1FAPew==","69168b21477cff9ada6cb980","691bd4c689e40f7e97a34089","index1","<span style='color:red'>Fail,<span style='color:red'>Fail,<span style='color:green'>Lift,<span style='color:green'>Lift,<span style='color:red'>Fail,<span style='color:red'>Fail,<span style='color:red'>Fail,<span style='color:red'>Fail,<span style='color:red'>Fail,<span style='color:green'>Lift,<span style='color:red'>Fail,<span style='color:green'>Lift","<span style='color:red'>Fail,<span style='color:red'>Fail,<span style='color:green'>Lift,<span style='color:green'>Lift,<span style='color:green'>Lift,<span style='color:green'>Lift,<span style='color:red'>Fail,<span style='color:green'>Lift,<span style='color:green'>Lift,<span style='color:green'>Lift,<span style='color:red'>Fail,<span style='color:green'>Lift","<span style='color:red'>Fail,<span style='color:green'>Lift,<span style='color:green'>Lift,<span style='color:red'>Fail,<span style='color:green'>Lift,<span style='color:green'>Lift","0,0,1,1,0,0,0,0,0,1,0,1","0,0,1,1,1,1,0,1,1,1,0,1","0,1,1,0,1,1",10,20,20,"","","","","{""box1"":""5"",""box2"":""10"",""box4"":""50""}","",NA,2,"round2_outcome",3,2,2,5,10,NA,50,0,1,20,NA,NA,NA,NA,NA,NA,NA,NA,NA,NA,NA,5,10,NA,50,0,1,20,NA,NA,NA,NA,NA,NA,NA,NA,NA,NA,NA,"",NA,NA,NA,NA,NA,NA,NA,NA,2025-11-18 02:53:29
"21262.000000000233","https://psyc-201.github.io/xiang2023/exp/index1.html?PROLIFIC_PID=REDACTED&STUDY_ID=69168b21477cff9ada6cb980&SESSION_ID=691bd4c689e40f7e97a34089","survey-html-form",29,2078990,"0.0-320.0","SderUN3yU73FjQQZw+EaKa8psf2cYHMiQhaRzVrf6c0BJ934FRSgbPG6fDSl4xy1Kj3kaZkt0KLXsqw3M9b+cUi+jOGVJfrV2aTNz8w+aZx3ApCwAd79bqDQiVvCkxVetQdpGUv36JocdDv6yyS9X80zuHV0xR/UfMfcl3BQC1RYdeUwY2P8tdYTZhcL1ZgKBlLIGyQNXUh36RIc3yK9C+4Z2yoST5QmN4fhxIoLWpQY1a3JSYci+cs7Q6lyRc9gDbVOWfArE9/+zKTWx9mHA87MsUIyrTcw8FD4J5DI2QXLJSb4gJmKFVgMHDzhWxo0UmMGcit9836X3BpO1FAPew==","69168b21477cff9ada6cb980","691bd4c689e40f7e97a34089","index1","<span style='color:red'>Fail,<span style='color:red'>Fail,<span style='color:green'>Lift,<span style='color:green'>Lift,<span style='color:red'>Fail,<span style='color:red'>Fail,<span style='color:red'>Fail,<span style='color:red'>Fail,<span style='color:red'>Fail,<span style='color:green'>Lift,<span style='color:red'>Fail,<span style='color:green'>Lift","<span style='color:red'>Fail,<span style='color:red'>Fail,<span style='color:green'>Lift,<span style='color:green'>Lift,<span style='color:green'>Lift,<span style='color:green'>Lift,<span style='color:red'>Fail,<span style='color:green'>Lift,<span style='color:green'>Lift,<span style='color:green'>Lift,<span style='color:red'>Fail,<span style='color:green'>Lift","<span style='color:red'>Fail,<span style='color:green'>Lift,<span style='color:green'>Lift,<span style='color:red'>Fail,<span style='color:green'>Lift,<span style='color:green'>Lift","0,0,1,1,0,0,0,0,0,1,0,1","0,0,1,1,1,1,0,1,1,1,0,1","0,1,1,0,1,1",10,20,20,"","","","","{""box1"":""100""}","",NA,2,"round3_ready",4,2,3,NA,NA,NA,NA,NA,NA,NA,NA,NA,NA,NA,NA,NA,NA,100,100,NA,NA,NA,NA,NA,NA,NA,NA,NA,100,100,NA,NA,NA,NA,NA,NA,NA,NA,NA,"",NA,NA,NA,NA,NA,NA,NA,NA,2025-11-18 02:53:29
"27391","https://psyc-201.github.io/xiang2023/exp/index1.html?PROLIFIC_PID=REDACTED&STUDY_ID=69168b21477cff9ada6cb980&SESSION_ID=691bd4c689e40f7e97a34089","survey-html-form",30,2106382,"0.0-322.0-0.0","SderUN3yU73FjQQZw+EaKa8psf2cYHMiQhaRzVrf6c0BJ934FRSgbPG6fDSl4xy1Kj3kaZkt0KLXsqw3M9b+cUi+jOGVJfrV2aTNz8w+aZx3ApCwAd79bqDQiVvCkxVetQdpGUv36JocdDv6yyS9X80zuHV0xR/UfMfcl3BQC1RYdeUwY2P8tdYTZhcL1ZgKBlLIGyQNXUh36RIc3yK9C+4Z2yoST5QmN4fhxIoLWpQY1a3JSYci+cs7Q6lyRc9gDbVOWfArE9/+zKTWx9mHA87MsUIyrTcw8FD4J5DI2QXLJSb4gJmKFVgMHDzhWxo0UmMGcit9836X3BpO1FAPew==","69168b21477cff9ada6cb980","691bd4c689e40f7e97a34089","index1","<span style='color:red'>Fail,<span style='color:red'>Fail,<span style='color:green'>Lift,<span style='color:green'>Lift,<span style='color:red'>Fail,<span style='color:red'>Fail,<span style='color:red'>Fail,<span style='color:red'>Fail,<span style='color:red'>Fail,<span style='color:green'>Lift,<span style='color:red'>Fail,<span style='color:green'>Lift","<span style='color:red'>Fail,<span style='color:red'>Fail,<span style='color:green'>Lift,<span style='color:green'>Lift,<span style='color:green'>Lift,<span style='color:green'>Lift,<span style='color:red'>Fail,<span style='color:green'>Lift,<span style='color:green'>Lift,<span style='color:green'>Lift,<span style='color:red'>Fail,<span style='color:green'>Lift","<span style='color:red'>Fail,<span style='color:green'>Lift,<span style='color:green'>Lift,<span style='color:red'>Fail,<span style='color:green'>Lift,<span style='color:green'>Lift","0,0,1,1,0,0,0,0,0,1,0,1","0,0,1,1,1,1,0,1,1,1,0,1","0,1,1,0,1,1",10,20,20,"","","","","{""box1"":""2"",""box2"":""7"",""box3"":""999"",""box4"":""999""}","",NA,3,"round3_fail",5,2,3,2,7,NA,NA,0,0,20,NA,NA,NA,NA,NA,NA,NA,NA,NA,NA,NA,NA,NA,NA,NA,NA,NA,NA,NA,NA,1,1,2,7,0,0,20,NA,NA,"",NA,NA,NA,NA,NA,NA,NA,NA,2025-11-18 02:53:29
"null","https://psyc-201.github.io/xiang2023/exp/index1.html?PROLIFIC_PID=REDACTED&STUDY_ID=69168b21477cff9ada6cb980&SESSION_ID=691bd4c689e40f7e97a34089","html-keyboard-response",31,2109384,"0.0-325.0","SderUN3yU73FjQQZw+EaKa8psf2cYHMiQhaRzVrf6c0BJ934FRSgbPG6fDSl4xy1Kj3kaZkt0KLXsqw3M9b+cUi+jOGVJfrV2aTNz8w+aZx3ApCwAd79bqDQiVvCkxVetQdpGUv36JocdDv6yyS9X80zuHV0xR/UfMfcl3BQC1RYdeUwY2P8tdYTZhcL1ZgKBlLIGyQNXUh36RIc3yK9C+4Z2yoST5QmN4fhxIoLWpQY1a3JSYci+cs7Q6lyRc9gDbVOWfArE9/+zKTWx9mHA87MsUIyrTcw8FD4J5DI2QXLJSb4gJmKFVgMHDzhWxo0UmMGcit9836X3BpO1FAPew==","69168b21477cff9ada6cb980","691bd4c689e40f7e97a34089","index1","<span style='color:red'>Fail,<span style='color:red'>Fail,<span style='color:green'>Lift,<span style='color:green'>Lift,<span style='color:red'>Fail,<span style='color:red'>Fail,<span style='color:red'>Fail,<span style='color:red'>Fail,<span style='color:red'>Fail,<span style='color:green'>Lift,<span style='color:red'>Fail,<span style='color:green'>Lift","<span style='color:red'>Fail,<span style='color:red'>Fail,<span style='color:green'>Lift,<span style='color:green'>Lift,<span style='color:green'>Lift,<span style='color:green'>Lift,<span style='color:red'>Fail,<span style='color:green'>Lift,<span style='color:green'>Lift,<span style='color:green'>Lift,<span style='color:red'>Fail,<span style='color:green'>Lift","<span style='color:red'>Fail,<span style='color:green'>Lift,<span style='color:green'>Lift,<span style='color:red'>Fail,<span style='color:green'>Lift,<span style='color:green'>Lift","0,0,1,1,0,0,0,0,0,1,0,1","0,0,1,1,1,1,0,1,1,1,0,1","0,1,1,0,1,1",10,20,20,"","","<p style='font-size:30px'><b> New Contest! </b></p>","null","","",NA,3,"",NA,NA,NA,NA,NA,NA,NA,NA,NA,NA,NA,NA,NA,NA,NA,NA,NA,NA,NA,NA,NA,NA,NA,NA,NA,NA,NA,NA,NA,NA,NA,NA,NA,NA,NA,NA,NA,NA,NA,"",NA,NA,NA,NA,NA,NA,NA,NA,2025-11-18 02:53:29
"44741","https://psyc-201.github.io/xiang2023/exp/index1.html?PROLIFIC_PID=REDACTED&STUDY_ID=69168b21477cff9ada6cb980&SESSION_ID=691bd4c689e40f7e97a34089","survey-html-form",32,2154127,"0.0-326.0","SderUN3yU73FjQQZw+EaKa8psf2cYHMiQhaRzVrf6c0BJ934FRSgbPG6fDSl4xy1Kj3kaZkt0KLXsqw3M9b+cUi+jOGVJfrV2aTNz8w+aZx3ApCwAd79bqDQiVvCkxVetQdpGUv36JocdDv6yyS9X80zuHV0xR/UfMfcl3BQC1RYdeUwY2P8tdYTZhcL1ZgKBlLIGyQNXUh36RIc3yK9C+4Z2yoST5QmN4fhxIoLWpQY1a3JSYci+cs7Q6lyRc9gDbVOWfArE9/+zKTWx9mHA87MsUIyrTcw8FD4J5DI2QXLJSb4gJmKFVgMHDzhWxo0UmMGcit9836X3BpO1FAPew==","69168b21477cff9ada6cb980","691bd4c689e40f7e97a34089","index1","<span style='color:red'>Fail,<span style='color:red'>Fail,<span style='color:green'>Lift,<span style='color:green'>Lift,<span style='color:red'>Fail,<span style='color:red'>Fail,<span style='color:red'>Fail,<span style='color:red'>Fail,<span style='color:red'>Fail,<span style='color:green'>Lift,<span style='color:red'>Fail,<span style='color:green'>Lift","<span style='color:red'>Fail,<span style='color:red'>Fail,<span style='color:green'>Lift,<span style='color:green'>Lift,<span style='color:green'>Lift,<span style='color:green'>Lift,<span style='color:red'>Fail,<span style='color:green'>Lift,<span style='color:green'>Lift,<span style='color:green'>Lift,<span style='color:red'>Fail,<span style='color:green'>Lift","<span style='color:red'>Fail,<span style='color:green'>Lift,<span style='color:green'>Lift,<span style='color:red'>Fail,<span style='color:green'>Lift,<span style='color:green'>Lift","0,0,1,1,0,0,0,0,0,1,0,1","0,0,1,1,1,1,0,1,1,1,0,1","0,1,1,0,1,1",10,20,20,"","","","","{""box1"":""5"",""box2"":""10"",""box4"":""50""}","",NA,3,"round1_outcome",1,3,1,5,10,NA,50,0,1,10,5,10,NA,50,0,1,10,NA,NA,NA,NA,NA,NA,NA,NA,NA,NA,NA,NA,NA,NA,NA,NA,NA,NA,NA,NA,NA,NA,"",NA,NA,NA,NA,NA,NA,NA,NA,2025-11-18 02:53:29
"17645","https://psyc-201.github.io/xiang2023/exp/index1.html?PROLIFIC_PID=REDACTED&STUDY_ID=69168b21477cff9ada6cb980&SESSION_ID=691bd4c689e40f7e97a34089","survey-html-form",33,2171773,"0.0-327.0","SderUN3yU73FjQQZw+EaKa8psf2cYHMiQhaRzVrf6c0BJ934FRSgbPG6fDSl4xy1Kj3kaZkt0KLXsqw3M9b+cUi+jOGVJfrV2aTNz8w+aZx3ApCwAd79bqDQiVvCkxVetQdpGUv36JocdDv6yyS9X80zuHV0xR/UfMfcl3BQC1RYdeUwY2P8tdYTZhcL1ZgKBlLIGyQNXUh36RIc3yK9C+4Z2yoST5QmN4fhxIoLWpQY1a3JSYci+cs7Q6lyRc9gDbVOWfArE9/+zKTWx9mHA87MsUIyrTcw8FD4J5DI2QXLJSb4gJmKFVgMHDzhWxo0UmMGcit9836X3BpO1FAPew==","69168b21477cff9ada6cb980","691bd4c689e40f7e97a34089","index1","<span style='color:red'>Fail,<span style='color:red'>Fail,<span style='color:green'>Lift,<span style='color:green'>Lift,<span style='color:red'>Fail,<span style='color:red'>Fail,<span style='color:red'>Fail,<span style='color:red'>Fail,<span style='color:red'>Fail,<span style='color:green'>Lift,<span style='color:red'>Fail,<span style='color:green'>Lift","<span style='color:red'>Fail,<span style='color:red'>Fail,<span style='color:green'>Lift,<span style='color:green'>Lift,<span style='color:green'>Lift,<span style='color:green'>Lift,<span style='color:red'>Fail,<span style='color:green'>Lift,<span style='color:green'>Lift,<span style='color:green'>Lift,<span style='color:red'>Fail,<span style='color:green'>Lift","<span style='color:red'>Fail,<span style='color:green'>Lift,<span style='color:green'>Lift,<span style='color:red'>Fail,<span style='color:green'>Lift,<span style='color:green'>Lift","0,0,1,1,0,0,0,0,0,1,0,1","0,0,1,1,1,1,0,1,1,1,0,1","0,1,1,0,1,1",10,20,20,"","","","","{""box1"":""50"",""box2"":""100""}","",NA,3,"round2_ready",2,3,2,NA,NA,NA,NA,NA,NA,NA,NA,NA,NA,NA,NA,NA,NA,50,100,50,100,NA,NA,NA,NA,NA,NA,NA,NA,NA,NA,NA,NA,NA,NA,NA,NA,NA,NA,"",NA,NA,NA,NA,NA,NA,NA,NA,2025-11-18 02:53:29
"59816","https://psyc-201.github.io/xiang2023/exp/index1.html?PROLIFIC_PID=REDACTED&STUDY_ID=69168b21477cff9ada6cb980&SESSION_ID=691bd4c689e40f7e97a34089","survey-html-form",34,2231591,"0.0-328.0","SderUN3yU73FjQQZw+EaKa8psf2cYHMiQhaRzVrf6c0BJ934FRSgbPG6fDSl4xy1Kj3kaZkt0KLXsqw3M9b+cUi+jOGVJfrV2aTNz8w+aZx3ApCwAd79bqDQiVvCkxVetQdpGUv36JocdDv6yyS9X80zuHV0xR/UfMfcl3BQC1RYdeUwY2P8tdYTZhcL1ZgKBlLIGyQNXUh36RIc3yK9C+4Z2yoST5QmN4fhxIoLWpQY1a3JSYci+cs7Q6lyRc9gDbVOWfArE9/+zKTWx9mHA87MsUIyrTcw8FD4J5DI2QXLJSb4gJmKFVgMHDzhWxo0UmMGcit9836X3BpO1FAPew==","69168b21477cff9ada6cb980","691bd4c689e40f7e97a34089","index1","<span style='color:red'>Fail,<span style='color:red'>Fail,<span style='color:green'>Lift,<span style='color:green'>Lift,<span style='color:red'>Fail,<span style='color:red'>Fail,<span style='color:red'>Fail,<span style='color:red'>Fail,<span style='color:red'>Fail,<span style='color:green'>Lift,<span style='color:red'>Fail,<span style='color:green'>Lift","<span style='color:red'>Fail,<span style='color:red'>Fail,<span style='color:green'>Lift,<span style='color:green'>Lift,<span style='color:green'>Lift,<span style='color:green'>Lift,<span style='color:red'>Fail,<span style='color:green'>Lift,<span style='color:green'>Lift,<span style='color:green'>Lift,<span style='color:red'>Fail,<span style='color:green'>Lift","<span style='color:red'>Fail,<span style='color:green'>Lift,<span style='color:green'>Lift,<span style='color:red'>Fail,<span style='color:green'>Lift,<span style='color:green'>Lift","0,0,1,1,0,0,0,0,0,1,0,1","0,0,1,1,1,1,0,1,1,1,0,1","0,1,1,0,1,1",10,20,20,"","","","","{""box1"":""5"",""box2"":""10"",""box4"":""50""}","",NA,3,"round2_outcome",3,3,2,5,10,NA,50,0,1,20,NA,NA,NA,NA,NA,NA,NA,NA,NA,NA,NA,5,10,NA,50,0,1,20,NA,NA,NA,NA,NA,NA,NA,NA,NA,NA,NA,"",NA,NA,NA,NA,NA,NA,NA,NA,2025-11-18 02:53:29
"9313","https://psyc-201.github.io/xiang2023/exp/index1.html?PROLIFIC_PID=REDACTED&STUDY_ID=69168b21477cff9ada6cb980&SESSION_ID=691bd4c689e40f7e97a34089","survey-html-form",35,2240905,"0.0-329.0","SderUN3yU73FjQQZw+EaKa8psf2cYHMiQhaRzVrf6c0BJ934FRSgbPG6fDSl4xy1Kj3kaZkt0KLXsqw3M9b+cUi+jOGVJfrV2aTNz8w+aZx3ApCwAd79bqDQiVvCkxVetQdpGUv36JocdDv6yyS9X80zuHV0xR/UfMfcl3BQC1RYdeUwY2P8tdYTZhcL1ZgKBlLIGyQNXUh36RIc3yK9C+4Z2yoST5QmN4fhxIoLWpQY1a3JSYci+cs7Q6lyRc9gDbVOWfArE9/+zKTWx9mHA87MsUIyrTcw8FD4J5DI2QXLJSb4gJmKFVgMHDzhWxo0UmMGcit9836X3BpO1FAPew==","69168b21477cff9ada6cb980","691bd4c689e40f7e97a34089","index1","<span style='color:red'>Fail,<span style='color:red'>Fail,<span style='color:green'>Lift,<span style='color:green'>Lift,<span style='color:red'>Fail,<span style='color:red'>Fail,<span style='color:red'>Fail,<span style='color:red'>Fail,<span style='color:red'>Fail,<span style='color:green'>Lift,<span style='color:red'>Fail,<span style='color:green'>Lift","<span style='color:red'>Fail,<span style='color:red'>Fail,<span style='color:green'>Lift,<span style='color:green'>Lift,<span style='color:green'>Lift,<span style='color:green'>Lift,<span style='color:red'>Fail,<span style='color:green'>Lift,<span style='color:green'>Lift,<span style='color:green'>Lift,<span style='color:red'>Fail,<span style='color:green'>Lift","<span style='color:red'>Fail,<span style='color:green'>Lift,<span style='color:green'>Lift,<span style='color:red'>Fail,<span style='color:green'>Lift,<span style='color:green'>Lift","0,0,1,1,0,0,0,0,0,1,0,1","0,0,1,1,1,1,0,1,1,1,0,1","0,1,1,0,1,1",10,20,20,"","","","","{""box1"":""100""}","",NA,3,"round3_ready",4,3,3,NA,NA,NA,NA,NA,NA,NA,NA,NA,NA,NA,NA,NA,NA,100,100,NA,NA,NA,NA,NA,NA,NA,NA,NA,100,100,NA,NA,NA,NA,NA,NA,NA,NA,NA,"",NA,NA,NA,NA,NA,NA,NA,NA,2025-11-18 02:53:29
"42893","https://psyc-201.github.io/xiang2023/exp/index1.html?PROLIFIC_PID=REDACTED&STUDY_ID=69168b21477cff9ada6cb980&SESSION_ID=691bd4c689e40f7e97a34089","survey-html-form",36,2283799,"0.0-330.0-0.0","SderUN3yU73FjQQZw+EaKa8psf2cYHMiQhaRzVrf6c0BJ934FRSgbPG6fDSl4xy1Kj3kaZkt0KLXsqw3M9b+cUi+jOGVJfrV2aTNz8w+aZx3ApCwAd79bqDQiVvCkxVetQdpGUv36JocdDv6yyS9X80zuHV0xR/UfMfcl3BQC1RYdeUwY2P8tdYTZhcL1ZgKBlLIGyQNXUh36RIc3yK9C+4Z2yoST5QmN4fhxIoLWpQY1a3JSYci+cs7Q6lyRc9gDbVOWfArE9/+zKTWx9mHA87MsUIyrTcw8FD4J5DI2QXLJSb4gJmKFVgMHDzhWxo0UmMGcit9836X3BpO1FAPew==","69168b21477cff9ada6cb980","691bd4c689e40f7e97a34089","index1","<span style='color:red'>Fail,<span style='color:red'>Fail,<span style='color:green'>Lift,<span style='color:green'>Lift,<span style='color:red'>Fail,<span style='color:red'>Fail,<span style='color:red'>Fail,<span style='color:red'>Fail,<span style='color:red'>Fail,<span style='color:green'>Lift,<span style='color:red'>Fail,<span style='color:green'>Lift","<span style='color:red'>Fail,<span style='color:red'>Fail,<span style='color:green'>Lift,<span style='color:green'>Lift,<span style='color:green'>Lift,<span style='color:green'>Lift,<span style='color:red'>Fail,<span style='color:green'>Lift,<span style='color:green'>Lift,<span style='color:green'>Lift,<span style='color:red'>Fail,<span style='color:green'>Lift","<span style='color:red'>Fail,<span style='color:green'>Lift,<span style='color:green'>Lift,<span style='color:red'>Fail,<span style='color:green'>Lift,<span style='color:green'>Lift","0,0,1,1,0,0,0,0,0,1,0,1","0,0,1,1,1,1,0,1,1,1,0,1","0,1,1,0,1,1",10,20,20,"","","","","{""box1"":""5"",""box2"":""10"",""box3"":""0"",""box4"":""50""}","",NA,4,"round3_lift",5,3,3,5,10,0,50,1,1,20,NA,NA,NA,NA,NA,NA,NA,NA,NA,NA,NA,NA,NA,NA,NA,NA,NA,NA,NA,NA,NA,NA,5,10,1,1,20,0,50,"",NA,NA,NA,NA,NA,NA,NA,NA,2025-11-18 02:53:29
"null","https://psyc-201.github.io/xiang2023/exp/index1.html?PROLIFIC_PID=REDACTED&STUDY_ID=69168b21477cff9ada6cb980&SESSION_ID=691bd4c689e40f7e97a34089","html-keyboard-response",37,2286801,"0.0-334.0","SderUN3yU73FjQQZw+EaKa8psf2cYHMiQhaRzVrf6c0BJ934FRSgbPG6fDSl4xy1Kj3kaZkt0KLXsqw3M9b+cUi+jOGVJfrV2aTNz8w+aZx3ApCwAd79bqDQiVvCkxVetQdpGUv36JocdDv6yyS9X80zuHV0xR/UfMfcl3BQC1RYdeUwY2P8tdYTZhcL1ZgKBlLIGyQNXUh36RIc3yK9C+4Z2yoST5QmN4fhxIoLWpQY1a3JSYci+cs7Q6lyRc9gDbVOWfArE9/+zKTWx9mHA87MsUIyrTcw8FD4J5DI2QXLJSb4gJmKFVgMHDzhWxo0UmMGcit9836X3BpO1FAPew==","69168b21477cff9ada6cb980","691bd4c689e40f7e97a34089","index1","<span style='color:red'>Fail,<span style='color:red'>Fail,<span style='color:green'>Lift,<span style='color:green'>Lift,<span style='color:red'>Fail,<span style='color:red'>Fail,<span style='color:red'>Fail,<span style='color:red'>Fail,<span style='color:red'>Fail,<span style='color:green'>Lift,<span style='color:red'>Fail,<span style='color:green'>Lift","<span style='color:red'>Fail,<span style='color:red'>Fail,<span style='color:green'>Lift,<span style='color:green'>Lift,<span style='color:green'>Lift,<span style='color:green'>Lift,<span style='color:red'>Fail,<span style='color:green'>Lift,<span style='color:green'>Lift,<span style='color:green'>Lift,<span style='color:red'>Fail,<span style='color:green'>Lift","<span style='color:red'>Fail,<span style='color:green'>Lift,<span style='color:green'>Lift,<span style='color:red'>Fail,<span style='color:green'>Lift,<span style='color:green'>Lift","0,0,1,1,0,0,0,0,0,1,0,1","0,0,1,1,1,1,0,1,1,1,0,1","0,1,1,0,1,1",10,20,20,"","","<p style='font-size:30px'><b> New Contest! </b></p>","null","","",NA,4,"",NA,NA,NA,NA,NA,NA,NA,NA,NA,NA,NA,NA,NA,NA,NA,NA,NA,NA,NA,NA,NA,NA,NA,NA,NA,NA,NA,NA,NA,NA,NA,NA,NA,NA,NA,NA,NA,NA,NA,"",NA,NA,NA,NA,NA,NA,NA,NA,2025-11-18 02:53:29
"40195","https://psyc-201.github.io/xiang2023/exp/index1.html?PROLIFIC_PID=REDACTED&STUDY_ID=69168b21477cff9ada6cb980&SESSION_ID=691bd4c689e40f7e97a34089","survey-html-form",38,2327000,"0.0-335.0","SderUN3yU73FjQQZw+EaKa8psf2cYHMiQhaRzVrf6c0BJ934FRSgbPG6fDSl4xy1Kj3kaZkt0KLXsqw3M9b+cUi+jOGVJfrV2aTNz8w+aZx3ApCwAd79bqDQiVvCkxVetQdpGUv36JocdDv6yyS9X80zuHV0xR/UfMfcl3BQC1RYdeUwY2P8tdYTZhcL1ZgKBlLIGyQNXUh36RIc3yK9C+4Z2yoST5QmN4fhxIoLWpQY1a3JSYci+cs7Q6lyRc9gDbVOWfArE9/+zKTWx9mHA87MsUIyrTcw8FD4J5DI2QXLJSb4gJmKFVgMHDzhWxo0UmMGcit9836X3BpO1FAPew==","69168b21477cff9ada6cb980","691bd4c689e40f7e97a34089","index1","<span style='color:red'>Fail,<span style='color:red'>Fail,<span style='color:green'>Lift,<span style='color:green'>Lift,<span style='color:red'>Fail,<span style='color:red'>Fail,<span style='color:red'>Fail,<span style='color:red'>Fail,<span style='color:red'>Fail,<span style='color:green'>Lift,<span style='color:red'>Fail,<span style='color:green'>Lift","<span style='color:red'>Fail,<span style='color:red'>Fail,<span style='color:green'>Lift,<span style='color:green'>Lift,<span style='color:green'>Lift,<span style='color:green'>Lift,<span style='color:red'>Fail,<span style='color:green'>Lift,<span style='color:green'>Lift,<span style='color:green'>Lift,<span style='color:red'>Fail,<span style='color:green'>Lift","<span style='color:red'>Fail,<span style='color:green'>Lift,<span style='color:green'>Lift,<span style='color:red'>Fail,<span style='color:green'>Lift,<span style='color:green'>Lift","0,0,1,1,0,0,0,0,0,1,0,1","0,0,1,1,1,1,0,1,1,1,0,1","0,1,1,0,1,1",10,20,20,"","","","","{""box1"":""5"",""box2"":""5"",""box4"":""100""}","",NA,4,"round1_outcome",1,4,1,5,5,NA,100,0,1,10,5,5,NA,100,0,1,10,NA,NA,NA,NA,NA,NA,NA,NA,NA,NA,NA,NA,NA,NA,NA,NA,NA,NA,NA,NA,NA,NA,"",NA,NA,NA,NA,NA,NA,NA,NA,2025-11-18 02:53:29
"26158","https://psyc-201.github.io/xiang2023/exp/index1.html?PROLIFIC_PID=REDACTED&STUDY_ID=69168b21477cff9ada6cb980&SESSION_ID=691bd4c689e40f7e97a34089","survey-html-form",39,2353160,"0.0-336.0","SderUN3yU73FjQQZw+EaKa8psf2cYHMiQhaRzVrf6c0BJ934FRSgbPG6fDSl4xy1Kj3kaZkt0KLXsqw3M9b+cUi+jOGVJfrV2aTNz8w+aZx3ApCwAd79bqDQiVvCkxVetQdpGUv36JocdDv6yyS9X80zuHV0xR/UfMfcl3BQC1RYdeUwY2P8tdYTZhcL1ZgKBlLIGyQNXUh36RIc3yK9C+4Z2yoST5QmN4fhxIoLWpQY1a3JSYci+cs7Q6lyRc9gDbVOWfArE9/+zKTWx9mHA87MsUIyrTcw8FD4J5DI2QXLJSb4gJmKFVgMHDzhWxo0UmMGcit9836X3BpO1FAPew==","69168b21477cff9ada6cb980","691bd4c689e40f7e97a34089","index1","<span style='color:red'>Fail,<span style='color:red'>Fail,<span style='color:green'>Lift,<span style='color:green'>Lift,<span style='color:red'>Fail,<span style='color:red'>Fail,<span style='color:red'>Fail,<span style='color:red'>Fail,<span style='color:red'>Fail,<span style='color:green'>Lift,<span style='color:red'>Fail,<span style='color:green'>Lift","<span style='color:red'>Fail,<span style='color:red'>Fail,<span style='color:green'>Lift,<span style='color:green'>Lift,<span style='color:green'>Lift,<span style='color:green'>Lift,<span style='color:red'>Fail,<span style='color:green'>Lift,<span style='color:green'>Lift,<span style='color:green'>Lift,<span style='color:red'>Fail,<span style='color:green'>Lift","<span style='color:red'>Fail,<span style='color:green'>Lift,<span style='color:green'>Lift,<span style='color:red'>Fail,<span style='color:green'>Lift,<span style='color:green'>Lift","0,0,1,1,0,0,0,0,0,1,0,1","0,0,1,1,1,1,0,1,1,1,0,1","0,1,1,0,1,1",10,20,20,"","","","","{""box1"":""50"",""box2"":""100""}","",NA,4,"round2_ready",2,4,2,NA,NA,NA,NA,NA,NA,NA,NA,NA,NA,NA,NA,NA,NA,50,100,50,100,NA,NA,NA,NA,NA,NA,NA,NA,NA,NA,NA,NA,NA,NA,NA,NA,NA,NA,"",NA,NA,NA,NA,NA,NA,NA,NA,2025-11-18 02:53:29
"62838","https://psyc-201.github.io/xiang2023/exp/index1.html?PROLIFIC_PID=REDACTED&STUDY_ID=69168b21477cff9ada6cb980&SESSION_ID=691bd4c689e40f7e97a34089","survey-html-form",40,2416001,"0.0-337.0","SderUN3yU73FjQQZw+EaKa8psf2cYHMiQhaRzVrf6c0BJ934FRSgbPG6fDSl4xy1Kj3kaZkt0KLXsqw3M9b+cUi+jOGVJfrV2aTNz8w+aZx3ApCwAd79bqDQiVvCkxVetQdpGUv36JocdDv6yyS9X80zuHV0xR/UfMfcl3BQC1RYdeUwY2P8tdYTZhcL1ZgKBlLIGyQNXUh36RIc3yK9C+4Z2yoST5QmN4fhxIoLWpQY1a3JSYci+cs7Q6lyRc9gDbVOWfArE9/+zKTWx9mHA87MsUIyrTcw8FD4J5DI2QXLJSb4gJmKFVgMHDzhWxo0UmMGcit9836X3BpO1FAPew==","69168b21477cff9ada6cb980","691bd4c689e40f7e97a34089","index1","<span style='color:red'>Fail,<span style='color:red'>Fail,<span style='color:green'>Lift,<span style='color:green'>Lift,<span style='color:red'>Fail,<span style='color:red'>Fail,<span style='color:red'>Fail,<span style='color:red'>Fail,<span style='color:red'>Fail,<span style='color:green'>Lift,<span style='color:red'>Fail,<span style='color:green'>Lift","<span style='color:red'>Fail,<span style='color:red'>Fail,<span style='color:green'>Lift,<span style='color:green'>Lift,<span style='color:green'>Lift,<span style='color:green'>Lift,<span style='color:red'>Fail,<span style='color:green'>Lift,<span style='color:green'>Lift,<span style='color:green'>Lift,<span style='color:red'>Fail,<span style='color:green'>Lift","<span style='color:red'>Fail,<span style='color:green'>Lift,<span style='color:green'>Lift,<span style='color:red'>Fail,<span style='color:green'>Lift,<span style='color:green'>Lift","0,0,1,1,0,0,0,0,0,1,0,1","0,0,1,1,1,1,0,1,1,1,0,1","0,1,1,0,1,1",10,20,20,"","","","","{""box1"":""5"",""box2"":""5"",""box3"":""100"",""box4"":""100""}","",NA,4,"round2_outcome",3,4,2,5,5,100,100,1,1,20,NA,NA,NA,NA,NA,NA,NA,NA,NA,NA,NA,5,5,100,100,1,1,20,NA,NA,NA,NA,NA,NA,NA,NA,NA,NA,NA,"",NA,NA,NA,NA,NA,NA,NA,NA,2025-11-18 02:53:29
"5054","https://psyc-201.github.io/xiang2023/exp/index1.html?PROLIFIC_PID=REDACTED&STUDY_ID=69168b21477cff9ada6cb980&SESSION_ID=691bd4c689e40f7e97a34089","survey-html-form",41,2421056,"0.0-338.0","SderUN3yU73FjQQZw+EaKa8psf2cYHMiQhaRzVrf6c0BJ934FRSgbPG6fDSl4xy1Kj3kaZkt0KLXsqw3M9b+cUi+jOGVJfrV2aTNz8w+aZx3ApCwAd79bqDQiVvCkxVetQdpGUv36JocdDv6yyS9X80zuHV0xR/UfMfcl3BQC1RYdeUwY2P8tdYTZhcL1ZgKBlLIGyQNXUh36RIc3yK9C+4Z2yoST5QmN4fhxIoLWpQY1a3JSYci+cs7Q6lyRc9gDbVOWfArE9/+zKTWx9mHA87MsUIyrTcw8FD4J5DI2QXLJSb4gJmKFVgMHDzhWxo0UmMGcit9836X3BpO1FAPew==","69168b21477cff9ada6cb980","691bd4c689e40f7e97a34089","index1","<span style='color:red'>Fail,<span style='color:red'>Fail,<span style='color:green'>Lift,<span style='color:green'>Lift,<span style='color:red'>Fail,<span style='color:red'>Fail,<span style='color:red'>Fail,<span style='color:red'>Fail,<span style='color:red'>Fail,<span style='color:green'>Lift,<span style='color:red'>Fail,<span style='color:green'>Lift","<span style='color:red'>Fail,<span style='color:red'>Fail,<span style='color:green'>Lift,<span style='color:green'>Lift,<span style='color:green'>Lift,<span style='color:green'>Lift,<span style='color:red'>Fail,<span style='color:green'>Lift,<span style='color:green'>Lift,<span style='color:green'>Lift,<span style='color:red'>Fail,<span style='color:green'>Lift","<span style='color:red'>Fail,<span style='color:green'>Lift,<span style='color:green'>Lift,<span style='color:red'>Fail,<span style='color:green'>Lift,<span style='color:green'>Lift","0,0,1,1,0,0,0,0,0,1,0,1","0,0,1,1,1,1,0,1,1,1,0,1","0,1,1,0,1,1",10,20,20,"","","","","{""box1"":""100""}","",NA,4,"round3_ready",4,4,3,NA,NA,NA,NA,NA,NA,NA,NA,NA,NA,NA,NA,NA,NA,100,100,NA,NA,NA,NA,NA,NA,NA,NA,NA,100,100,NA,NA,NA,NA,NA,NA,NA,NA,NA,"",NA,NA,NA,NA,NA,NA,NA,NA,2025-11-18 02:53:29
"29759","https://psyc-201.github.io/xiang2023/exp/index1.html?PROLIFIC_PID=REDACTED&STUDY_ID=69168b21477cff9ada6cb980&SESSION_ID=691bd4c689e40f7e97a34089","survey-html-form",42,2450816,"0.0-339.0-0.0","SderUN3yU73FjQQZw+EaKa8psf2cYHMiQhaRzVrf6c0BJ934FRSgbPG6fDSl4xy1Kj3kaZkt0KLXsqw3M9b+cUi+jOGVJfrV2aTNz8w+aZx3ApCwAd79bqDQiVvCkxVetQdpGUv36JocdDv6yyS9X80zuHV0xR/UfMfcl3BQC1RYdeUwY2P8tdYTZhcL1ZgKBlLIGyQNXUh36RIc3yK9C+4Z2yoST5QmN4fhxIoLWpQY1a3JSYci+cs7Q6lyRc9gDbVOWfArE9/+zKTWx9mHA87MsUIyrTcw8FD4J5DI2QXLJSb4gJmKFVgMHDzhWxo0UmMGcit9836X3BpO1FAPew==","69168b21477cff9ada6cb980","691bd4c689e40f7e97a34089","index1","<span style='color:red'>Fail,<span style='color:red'>Fail,<span style='color:green'>Lift,<span style='color:green'>Lift,<span style='color:red'>Fail,<span style='color:red'>Fail,<span style='color:red'>Fail,<span style='color:red'>Fail,<span style='color:red'>Fail,<span style='color:green'>Lift,<span style='color:red'>Fail,<span style='color:green'>Lift","<span style='color:red'>Fail,<span style='color:red'>Fail,<span style='color:green'>Lift,<span style='color:green'>Lift,<span style='color:green'>Lift,<span style='color:green'>Lift,<span style='color:red'>Fail,<span style='color:green'>Lift,<span style='color:green'>Lift,<span style='color:green'>Lift,<span style='color:red'>Fail,<span style='color:green'>Lift","<span style='color:red'>Fail,<span style='color:green'>Lift,<span style='color:green'>Lift,<span style='color:red'>Fail,<span style='color:green'>Lift,<span style='color:green'>Lift","0,0,1,1,0,0,0,0,0,1,0,1","0,0,1,1,1,1,0,1,1,1,0,1","0,1,1,0,1,1",10,20,20,"","","","","{""box1"":""5"",""box2"":""5"",""box3"":""50"",""box4"":""50""}","",NA,5,"round3_lift",5,4,3,5,5,50,50,1,1,20,NA,NA,NA,NA,NA,NA,NA,NA,NA,NA,NA,NA,NA,NA,NA,NA,NA,NA,NA,NA,NA,NA,5,5,1,1,20,50,50,"",NA,NA,NA,NA,NA,NA,NA,NA,2025-11-18 02:53:29
"null","https://psyc-201.github.io/xiang2023/exp/index1.html?PROLIFIC_PID=REDACTED&STUDY_ID=69168b21477cff9ada6cb980&SESSION_ID=691bd4c689e40f7e97a34089","html-keyboard-response",43,2453818,"0.0-343.0","SderUN3yU73FjQQZw+EaKa8psf2cYHMiQhaRzVrf6c0BJ934FRSgbPG6fDSl4xy1Kj3kaZkt0KLXsqw3M9b+cUi+jOGVJfrV2aTNz8w+aZx3ApCwAd79bqDQiVvCkxVetQdpGUv36JocdDv6yyS9X80zuHV0xR/UfMfcl3BQC1RYdeUwY2P8tdYTZhcL1ZgKBlLIGyQNXUh36RIc3yK9C+4Z2yoST5QmN4fhxIoLWpQY1a3JSYci+cs7Q6lyRc9gDbVOWfArE9/+zKTWx9mHA87MsUIyrTcw8FD4J5DI2QXLJSb4gJmKFVgMHDzhWxo0UmMGcit9836X3BpO1FAPew==","69168b21477cff9ada6cb980","691bd4c689e40f7e97a34089","index1","<span style='color:red'>Fail,<span style='color:red'>Fail,<span style='color:green'>Lift,<span style='color:green'>Lift,<span style='color:red'>Fail,<span style='color:red'>Fail,<span style='color:red'>Fail,<span style='color:red'>Fail,<span style='color:red'>Fail,<span style='color:green'>Lift,<span style='color:red'>Fail,<span style='color:green'>Lift","<span style='color:red'>Fail,<span style='color:red'>Fail,<span style='color:green'>Lift,<span style='color:green'>Lift,<span style='color:green'>Lift,<span style='color:green'>Lift,<span style='color:red'>Fail,<span style='color:green'>Lift,<span style='color:green'>Lift,<span style='color:green'>Lift,<span style='color:red'>Fail,<span style='color:green'>Lift","<span style='color:red'>Fail,<span style='color:green'>Lift,<span style='color:green'>Lift,<span style='color:red'>Fail,<span style='color:green'>Lift,<span style='color:green'>Lift","0,0,1,1,0,0,0,0,0,1,0,1","0,0,1,1,1,1,0,1,1,1,0,1","0,1,1,0,1,1",10,20,20,"","","<p style='font-size:30px'><b> New Contest! </b></p>","null","","",NA,5,"",NA,NA,NA,NA,NA,NA,NA,NA,NA,NA,NA,NA,NA,NA,NA,NA,NA,NA,NA,NA,NA,NA,NA,NA,NA,NA,NA,NA,NA,NA,NA,NA,NA,NA,NA,NA,NA,NA,NA,"",NA,NA,NA,NA,NA,NA,NA,NA,2025-11-18 02:53:29
"22068.999999999534","https://psyc-201.github.io/xiang2023/exp/index1.html?PROLIFIC_PID=REDACTED&STUDY_ID=69168b21477cff9ada6cb980&SESSION_ID=691bd4c689e40f7e97a34089","survey-html-form",44,2475887,"0.0-344.0","SderUN3yU73FjQQZw+EaKa8psf2cYHMiQhaRzVrf6c0BJ934FRSgbPG6fDSl4xy1Kj3kaZkt0KLXsqw3M9b+cUi+jOGVJfrV2aTNz8w+aZx3ApCwAd79bqDQiVvCkxVetQdpGUv36JocdDv6yyS9X80zuHV0xR/UfMfcl3BQC1RYdeUwY2P8tdYTZhcL1ZgKBlLIGyQNXUh36RIc3yK9C+4Z2yoST5QmN4fhxIoLWpQY1a3JSYci+cs7Q6lyRc9gDbVOWfArE9/+zKTWx9mHA87MsUIyrTcw8FD4J5DI2QXLJSb4gJmKFVgMHDzhWxo0UmMGcit9836X3BpO1FAPew==","69168b21477cff9ada6cb980","691bd4c689e40f7e97a34089","index1","<span style='color:red'>Fail,<span style='color:red'>Fail,<span style='color:green'>Lift,<span style='color:green'>Lift,<span style='color:red'>Fail,<span style='color:red'>Fail,<span style='color:red'>Fail,<span style='color:red'>Fail,<span style='color:red'>Fail,<span style='color:green'>Lift,<span style='color:red'>Fail,<span style='color:green'>Lift","<span style='color:red'>Fail,<span style='color:red'>Fail,<span style='color:green'>Lift,<span style='color:green'>Lift,<span style='color:green'>Lift,<span style='color:green'>Lift,<span style='color:red'>Fail,<span style='color:green'>Lift,<span style='color:green'>Lift,<span style='color:green'>Lift,<span style='color:red'>Fail,<span style='color:green'>Lift","<span style='color:red'>Fail,<span style='color:green'>Lift,<span style='color:green'>Lift,<span style='color:red'>Fail,<span style='color:green'>Lift,<span style='color:green'>Lift","0,0,1,1,0,0,0,0,0,1,0,1","0,0,1,1,1,1,0,1,1,1,0,1","0,1,1,0,1,1",10,20,20,"","","","","{""box1"":""10"",""box2"":""10"",""box3"":""50"",""box4"":""50""}","",NA,5,"round1_outcome",1,5,1,10,10,50,50,1,1,10,10,10,50,50,1,1,10,NA,NA,NA,NA,NA,NA,NA,NA,NA,NA,NA,NA,NA,NA,NA,NA,NA,NA,NA,NA,NA,NA,"",NA,NA,NA,NA,NA,NA,NA,NA,2025-11-18 02:53:29
"11915","https://psyc-201.github.io/xiang2023/exp/index1.html?PROLIFIC_PID=REDACTED&STUDY_ID=69168b21477cff9ada6cb980&SESSION_ID=691bd4c689e40f7e97a34089","survey-html-form",45,2487803,"0.0-345.0","SderUN3yU73FjQQZw+EaKa8psf2cYHMiQhaRzVrf6c0BJ934FRSgbPG6fDSl4xy1Kj3kaZkt0KLXsqw3M9b+cUi+jOGVJfrV2aTNz8w+aZx3ApCwAd79bqDQiVvCkxVetQdpGUv36JocdDv6yyS9X80zuHV0xR/UfMfcl3BQC1RYdeUwY2P8tdYTZhcL1ZgKBlLIGyQNXUh36RIc3yK9C+4Z2yoST5QmN4fhxIoLWpQY1a3JSYci+cs7Q6lyRc9gDbVOWfArE9/+zKTWx9mHA87MsUIyrTcw8FD4J5DI2QXLJSb4gJmKFVgMHDzhWxo0UmMGcit9836X3BpO1FAPew==","69168b21477cff9ada6cb980","691bd4c689e40f7e97a34089","index1","<span style='color:red'>Fail,<span style='color:red'>Fail,<span style='color:green'>Lift,<span style='color:green'>Lift,<span style='color:red'>Fail,<span style='color:red'>Fail,<span style='color:red'>Fail,<span style='color:red'>Fail,<span style='color:red'>Fail,<span style='color:green'>Lift,<span style='color:red'>Fail,<span style='color:green'>Lift","<span style='color:red'>Fail,<span style='color:red'>Fail,<span style='color:green'>Lift,<span style='color:green'>Lift,<span style='color:green'>Lift,<span style='color:green'>Lift,<span style='color:red'>Fail,<span style='color:green'>Lift,<span style='color:green'>Lift,<span style='color:green'>Lift,<span style='color:red'>Fail,<span style='color:green'>Lift","<span style='color:red'>Fail,<span style='color:green'>Lift,<span style='color:green'>Lift,<span style='color:red'>Fail,<span style='color:green'>Lift,<span style='color:green'>Lift","0,0,1,1,0,0,0,0,0,1,0,1","0,0,1,1,1,1,0,1,1,1,0,1","0,1,1,0,1,1",10,20,20,"","","","","{""box1"":""100"",""box2"":""100""}","",NA,5,"round2_ready",2,5,2,NA,NA,NA,NA,NA,NA,NA,NA,NA,NA,NA,NA,NA,NA,100,100,100,100,NA,NA,NA,NA,NA,NA,NA,NA,NA,NA,NA,NA,NA,NA,NA,NA,NA,NA,"",NA,NA,NA,NA,NA,NA,NA,NA,2025-11-18 02:53:29
"23780","https://psyc-201.github.io/xiang2023/exp/index1.html?PROLIFIC_PID=REDACTED&STUDY_ID=69168b21477cff9ada6cb980&SESSION_ID=691bd4c689e40f7e97a34089","survey-html-form",46,2511585,"0.0-346.0","SderUN3yU73FjQQZw+EaKa8psf2cYHMiQhaRzVrf6c0BJ934FRSgbPG6fDSl4xy1Kj3kaZkt0KLXsqw3M9b+cUi+jOGVJfrV2aTNz8w+aZx3ApCwAd79bqDQiVvCkxVetQdpGUv36JocdDv6yyS9X80zuHV0xR/UfMfcl3BQC1RYdeUwY2P8tdYTZhcL1ZgKBlLIGyQNXUh36RIc3yK9C+4Z2yoST5QmN4fhxIoLWpQY1a3JSYci+cs7Q6lyRc9gDbVOWfArE9/+zKTWx9mHA87MsUIyrTcw8FD4J5DI2QXLJSb4gJmKFVgMHDzhWxo0UmMGcit9836X3BpO1FAPew==","69168b21477cff9ada6cb980","691bd4c689e40f7e97a34089","index1","<span style='color:red'>Fail,<span style='color:red'>Fail,<span style='color:green'>Lift,<span style='color:green'>Lift,<span style='color:red'>Fail,<span style='color:red'>Fail,<span style='color:red'>Fail,<span style='color:red'>Fail,<span style='color:red'>Fail,<span style='color:green'>Lift,<span style='color:red'>Fail,<span style='color:green'>Lift","<span style='color:red'>Fail,<span style='color:red'>Fail,<span style='color:green'>Lift,<span style='color:green'>Lift,<span style='color:green'>Lift,<span style='color:green'>Lift,<span style='color:red'>Fail,<span style='color:green'>Lift,<span style='color:green'>Lift,<span style='color:green'>Lift,<span style='color:red'>Fail,<span style='color:green'>Lift","<span style='color:red'>Fail,<span style='color:green'>Lift,<span style='color:green'>Lift,<span style='color:red'>Fail,<span style='color:green'>Lift,<span style='color:green'>Lift","0,0,1,1,0,0,0,0,0,1,0,1","0,0,1,1,1,1,0,1,1,1,0,1","0,1,1,0,1,1",10,20,20,"","","","","{""box1"":""10"",""box2"":""10"",""box3"":""50"",""box4"":""50""}","",NA,5,"round2_outcome",3,5,2,10,10,50,50,1,1,20,NA,NA,NA,NA,NA,NA,NA,NA,NA,NA,NA,10,10,50,50,1,1,20,NA,NA,NA,NA,NA,NA,NA,NA,NA,NA,NA,"",NA,NA,NA,NA,NA,NA,NA,NA,2025-11-18 02:53:29
"6831","https://psyc-201.github.io/xiang2023/exp/index1.html?PROLIFIC_PID=REDACTED&STUDY_ID=69168b21477cff9ada6cb980&SESSION_ID=691bd4c689e40f7e97a34089","survey-html-form",47,2518416,"0.0-347.0","SderUN3yU73FjQQZw+EaKa8psf2cYHMiQhaRzVrf6c0BJ934FRSgbPG6fDSl4xy1Kj3kaZkt0KLXsqw3M9b+cUi+jOGVJfrV2aTNz8w+aZx3ApCwAd79bqDQiVvCkxVetQdpGUv36JocdDv6yyS9X80zuHV0xR/UfMfcl3BQC1RYdeUwY2P8tdYTZhcL1ZgKBlLIGyQNXUh36RIc3yK9C+4Z2yoST5QmN4fhxIoLWpQY1a3JSYci+cs7Q6lyRc9gDbVOWfArE9/+zKTWx9mHA87MsUIyrTcw8FD4J5DI2QXLJSb4gJmKFVgMHDzhWxo0UmMGcit9836X3BpO1FAPew==","69168b21477cff9ada6cb980","691bd4c689e40f7e97a34089","index1","<span style='color:red'>Fail,<span style='color:red'>Fail,<span style='color:green'>Lift,<span style='color:green'>Lift,<span style='color:red'>Fail,<span style='color:red'>Fail,<span style='color:red'>Fail,<span style='color:red'>Fail,<span style='color:red'>Fail,<span style='color:green'>Lift,<span style='color:red'>Fail,<span style='color:green'>Lift","<span style='color:red'>Fail,<span style='color:red'>Fail,<span style='color:green'>Lift,<span style='color:green'>Lift,<span style='color:green'>Lift,<span style='color:green'>Lift,<span style='color:red'>Fail,<span style='color:green'>Lift,<span style='color:green'>Lift,<span style='color:green'>Lift,<span style='color:red'>Fail,<span style='color:green'>Lift","<span style='color:red'>Fail,<span style='color:green'>Lift,<span style='color:green'>Lift,<span style='color:red'>Fail,<span style='color:green'>Lift,<span style='color:green'>Lift","0,0,1,1,0,0,0,0,0,1,0,1","0,0,1,1,1,1,0,1,1,1,0,1","0,1,1,0,1,1",10,20,20,"","","","","{""box1"":""100""}","",NA,5,"round3_ready",4,5,3,NA,NA,NA,NA,NA,NA,NA,NA,NA,NA,NA,NA,NA,NA,100,100,NA,NA,NA,NA,NA,NA,NA,NA,NA,100,100,NA,NA,NA,NA,NA,NA,NA,NA,NA,"",NA,NA,NA,NA,NA,NA,NA,NA,2025-11-18 02:53:29
"13456","https://psyc-201.github.io/xiang2023/exp/index1.html?PROLIFIC_PID=REDACTED&STUDY_ID=69168b21477cff9ada6cb980&SESSION_ID=691bd4c689e40f7e97a34089","survey-html-form",48,2531874,"0.0-348.0-0.0","SderUN3yU73FjQQZw+EaKa8psf2cYHMiQhaRzVrf6c0BJ934FRSgbPG6fDSl4xy1Kj3kaZkt0KLXsqw3M9b+cUi+jOGVJfrV2aTNz8w+aZx3ApCwAd79bqDQiVvCkxVetQdpGUv36JocdDv6yyS9X80zuHV0xR/UfMfcl3BQC1RYdeUwY2P8tdYTZhcL1ZgKBlLIGyQNXUh36RIc3yK9C+4Z2yoST5QmN4fhxIoLWpQY1a3JSYci+cs7Q6lyRc9gDbVOWfArE9/+zKTWx9mHA87MsUIyrTcw8FD4J5DI2QXLJSb4gJmKFVgMHDzhWxo0UmMGcit9836X3BpO1FAPew==","69168b21477cff9ada6cb980","691bd4c689e40f7e97a34089","index1","<span style='color:red'>Fail,<span style='color:red'>Fail,<span style='color:green'>Lift,<span style='color:green'>Lift,<span style='color:red'>Fail,<span style='color:red'>Fail,<span style='color:red'>Fail,<span style='color:red'>Fail,<span style='color:red'>Fail,<span style='color:green'>Lift,<span style='color:red'>Fail,<span style='color:green'>Lift","<span style='color:red'>Fail,<span style='color:red'>Fail,<span style='color:green'>Lift,<span style='color:green'>Lift,<span style='color:green'>Lift,<span style='color:green'>Lift,<span style='color:red'>Fail,<span style='color:green'>Lift,<span style='color:green'>Lift,<span style='color:green'>Lift,<span style='color:red'>Fail,<span style='color:green'>Lift","<span style='color:red'>Fail,<span style='color:green'>Lift,<span style='color:green'>Lift,<span style='color:red'>Fail,<span style='color:green'>Lift,<span style='color:green'>Lift","0,0,1,1,0,0,0,0,0,1,0,1","0,0,1,1,1,1,0,1,1,1,0,1","0,1,1,0,1,1",10,20,20,"","","","","{""box1"":""10"",""box2"":""10"",""box3"":""50"",""box4"":""50""}","",NA,6,"round3_lift",5,5,3,10,10,50,50,1,1,20,NA,NA,NA,NA,NA,NA,NA,NA,NA,NA,NA,NA,NA,NA,NA,NA,NA,NA,NA,NA,NA,NA,10,10,1,1,20,50,50,"",NA,NA,NA,NA,NA,NA,NA,NA,2025-11-18 02:53:29
"null","https://psyc-201.github.io/xiang2023/exp/index1.html?PROLIFIC_PID=REDACTED&STUDY_ID=69168b21477cff9ada6cb980&SESSION_ID=691bd4c689e40f7e97a34089","html-keyboard-response",49,2534875,"0.0-352.0","SderUN3yU73FjQQZw+EaKa8psf2cYHMiQhaRzVrf6c0BJ934FRSgbPG6fDSl4xy1Kj3kaZkt0KLXsqw3M9b+cUi+jOGVJfrV2aTNz8w+aZx3ApCwAd79bqDQiVvCkxVetQdpGUv36JocdDv6yyS9X80zuHV0xR/UfMfcl3BQC1RYdeUwY2P8tdYTZhcL1ZgKBlLIGyQNXUh36RIc3yK9C+4Z2yoST5QmN4fhxIoLWpQY1a3JSYci+cs7Q6lyRc9gDbVOWfArE9/+zKTWx9mHA87MsUIyrTcw8FD4J5DI2QXLJSb4gJmKFVgMHDzhWxo0UmMGcit9836X3BpO1FAPew==","69168b21477cff9ada6cb980","691bd4c689e40f7e97a34089","index1","<span style='color:red'>Fail,<span style='color:red'>Fail,<span style='color:green'>Lift,<span style='color:green'>Lift,<span style='color:red'>Fail,<span style='color:red'>Fail,<span style='color:red'>Fail,<span style='color:red'>Fail,<span style='color:red'>Fail,<span style='color:green'>Lift,<span style='color:red'>Fail,<span style='color:green'>Lift","<span style='color:red'>Fail,<span style='color:red'>Fail,<span style='color:green'>Lift,<span style='color:green'>Lift,<span style='color:green'>Lift,<span style='color:green'>Lift,<span style='color:red'>Fail,<span style='color:green'>Lift,<span style='color:green'>Lift,<span style='color:green'>Lift,<span style='color:red'>Fail,<span style='color:green'>Lift","<span style='color:red'>Fail,<span style='color:green'>Lift,<span style='color:green'>Lift,<span style='color:red'>Fail,<span style='color:green'>Lift,<span style='color:green'>Lift","0,0,1,1,0,0,0,0,0,1,0,1","0,0,1,1,1,1,0,1,1,1,0,1","0,1,1,0,1,1",10,20,20,"","","<p style='font-size:30px'><b> New Contest! </b></p>","null","","",NA,6,"",NA,NA,NA,NA,NA,NA,NA,NA,NA,NA,NA,NA,NA,NA,NA,NA,NA,NA,NA,NA,NA,NA,NA,NA,NA,NA,NA,NA,NA,NA,NA,NA,NA,NA,NA,NA,NA,NA,NA,"",NA,NA,NA,NA,NA,NA,NA,NA,2025-11-18 02:53:29
"22033","https://psyc-201.github.io/xiang2023/exp/index1.html?PROLIFIC_PID=REDACTED&STUDY_ID=69168b21477cff9ada6cb980&SESSION_ID=691bd4c689e40f7e97a34089","survey-html-form",50,2556909,"0.0-353.0","SderUN3yU73FjQQZw+EaKa8psf2cYHMiQhaRzVrf6c0BJ934FRSgbPG6fDSl4xy1Kj3kaZkt0KLXsqw3M9b+cUi+jOGVJfrV2aTNz8w+aZx3ApCwAd79bqDQiVvCkxVetQdpGUv36JocdDv6yyS9X80zuHV0xR/UfMfcl3BQC1RYdeUwY2P8tdYTZhcL1ZgKBlLIGyQNXUh36RIc3yK9C+4Z2yoST5QmN4fhxIoLWpQY1a3JSYci+cs7Q6lyRc9gDbVOWfArE9/+zKTWx9mHA87MsUIyrTcw8FD4J5DI2QXLJSb4gJmKFVgMHDzhWxo0UmMGcit9836X3BpO1FAPew==","69168b21477cff9ada6cb980","691bd4c689e40f7e97a34089","index1","<span style='color:red'>Fail,<span style='color:red'>Fail,<span style='color:green'>Lift,<span style='color:green'>Lift,<span style='color:red'>Fail,<span style='color:red'>Fail,<span style='color:red'>Fail,<span style='color:red'>Fail,<span style='color:red'>Fail,<span style='color:green'>Lift,<span style='color:red'>Fail,<span style='color:green'>Lift","<span style='color:red'>Fail,<span style='color:red'>Fail,<span style='color:green'>Lift,<span style='color:green'>Lift,<span style='color:green'>Lift,<span style='color:green'>Lift,<span style='color:red'>Fail,<span style='color:green'>Lift,<span style='color:green'>Lift,<span style='color:green'>Lift,<span style='color:red'>Fail,<span style='color:green'>Lift","<span style='color:red'>Fail,<span style='color:green'>Lift,<span style='color:green'>Lift,<span style='color:red'>Fail,<span style='color:green'>Lift,<span style='color:green'>Lift","0,0,1,1,0,0,0,0,0,1,0,1","0,0,1,1,1,1,0,1,1,1,0,1","0,1,1,0,1,1",10,20,20,"","","","","{""box1"":""5"",""box2"":""5""}","",NA,6,"round1_outcome",1,6,1,5,5,NA,NA,0,0,10,5,5,NA,NA,0,0,10,NA,NA,NA,NA,NA,NA,NA,NA,NA,NA,NA,NA,NA,NA,NA,NA,NA,NA,NA,NA,NA,NA,"",NA,NA,NA,NA,NA,NA,NA,NA,2025-11-18 02:53:29
"15324","https://psyc-201.github.io/xiang2023/exp/index1.html?PROLIFIC_PID=REDACTED&STUDY_ID=69168b21477cff9ada6cb980&SESSION_ID=691bd4c689e40f7e97a34089","survey-html-form",51,2572234,"0.0-354.0","SderUN3yU73FjQQZw+EaKa8psf2cYHMiQhaRzVrf6c0BJ934FRSgbPG6fDSl4xy1Kj3kaZkt0KLXsqw3M9b+cUi+jOGVJfrV2aTNz8w+aZx3ApCwAd79bqDQiVvCkxVetQdpGUv36JocdDv6yyS9X80zuHV0xR/UfMfcl3BQC1RYdeUwY2P8tdYTZhcL1ZgKBlLIGyQNXUh36RIc3yK9C+4Z2yoST5QmN4fhxIoLWpQY1a3JSYci+cs7Q6lyRc9gDbVOWfArE9/+zKTWx9mHA87MsUIyrTcw8FD4J5DI2QXLJSb4gJmKFVgMHDzhWxo0UmMGcit9836X3BpO1FAPew==","69168b21477cff9ada6cb980","691bd4c689e40f7e97a34089","index1","<span style='color:red'>Fail,<span style='color:red'>Fail,<span style='color:green'>Lift,<span style='color:green'>Lift,<span style='color:red'>Fail,<span style='color:red'>Fail,<span style='color:red'>Fail,<span style='color:red'>Fail,<span style='color:red'>Fail,<span style='color:green'>Lift,<span style='color:red'>Fail,<span style='color:green'>Lift","<span style='color:red'>Fail,<span style='color:red'>Fail,<span style='color:green'>Lift,<span style='color:green'>Lift,<span style='color:green'>Lift,<span style='color:green'>Lift,<span style='color:red'>Fail,<span style='color:green'>Lift,<span style='color:green'>Lift,<span style='color:green'>Lift,<span style='color:red'>Fail,<span style='color:green'>Lift","<span style='color:red'>Fail,<span style='color:green'>Lift,<span style='color:green'>Lift,<span style='color:red'>Fail,<span style='color:green'>Lift,<span style='color:green'>Lift","0,0,1,1,0,0,0,0,0,1,0,1","0,0,1,1,1,1,0,1,1,1,0,1","0,1,1,0,1,1",10,20,20,"","","","","{""box1"":""50"",""box2"":""50""}","",NA,6,"round2_ready",2,6,2,NA,NA,NA,NA,NA,NA,NA,NA,NA,NA,NA,NA,NA,NA,50,50,50,50,NA,NA,NA,NA,NA,NA,NA,NA,NA,NA,NA,NA,NA,NA,NA,NA,NA,NA,"",NA,NA,NA,NA,NA,NA,NA,NA,2025-11-18 02:53:29
