"rt","url","trial_type","trial_index","time_elapsed","internal_node_id","encryptedProlificId","studyId","sessionId","expIndex","round1_outcomes","round2_outcomes","round3_outcomes","round1_o","round2_o","round3_o","round1_reward","round2_reward","round3_reward","success","view_history","stimulus","key_press","responses","question_order","button_pressed","j","Stage","stage","contest","round","strength_a","strength_b","effort_a","effort_b","outcome_a","outcome_b","reward","r1_strength_a","r1_strength_b","r1_effort_a","r1_effort_b","r1_outcome_a","r1_outcome_b","r1_reward","probability_a","probability_b","r2_prob_a","r2_prob_b","r2_strength_a","r2_strength_b","r2_effort_a","r2_effort_b","r2_outcome_a","r2_outcome_b","r2_reward","r3_prob_a","r3_prob_b","r3_strength_a","r3_strength_b","r3_effort_a","r3_effort_b","r3_outcome_a","r3_outcome_b","r3_reward","attention_check","count","screen","pick_contest","pick_round","pick_side","trial_probability","trial_outcome","bonus","attention_sum","attention","datapipe_meta.attributes.date_modified"
"4505.699999988079","https://psyc-201.github.io/xiang2023/exp/index1.html?PROLIFIC_PID=REDACTED&STUDY_ID=691f8ca61c6b4dcbb0aeb5f4&SESSION_ID=691fb533ecd251a3bf969a1e","external-html",0,4621,"0.0-0.0","qsr97SOw+K4+MLPuY1fb1aBoKkPXl4L6yE9B2Ow6jaUi2+K9Rfbyzkp752z3yGwFh9saQBj6nhZ93pXGkR0wTn0Bb7Y9RqmhVWsXM4NACJjHRQ50ZeBn5Xf/1HUyx+RhZJfnZx4wpbLFsvqxSO1qQ+00Xg/IPO6eWWmI+rK55LRQuJPjb1cgOhKNoTNus6TpNQcQaJ2NeY9Odpiy1i/KjALqfR+4B+7ES0OIYI+rBzpeQxn+Bp2FOU4/IjOLRosVC/I9PqEJCrHiuPH1oqiYubNvjfz1iIlgD+lcFn0t17asYdrN684pw5FBAs4egNcnzhhWRf4pMdTuu2u5c1HtPQ==","691f8ca61c6b4dcbb0aeb5f4","691fb533ecd251a3bf969a1e","index1","<span style='color:red'>Fail,<span style='color:red'>Fail,<span style='color:green'>Lift,<span style='color:green'>Lift,<span style='color:red'>Fail,<span style='color:red'>Fail,<span style='color:red'>Fail,<span style='color:red'>Fail,<span style='color:green'>Lift,<span style='color:red'>Fail,<span style='color:green'>Lift,<span style='color:red'>Fail","<span style='color:red'>Fail,<span style='color:red'>Fail,<span style='color:green'>Lift,<span style='color:green'>Lift,<span style='color:green'>Lift,<span style='color:green'>Lift,<span style='color:red'>Fail,<span style='color:green'>Lift,<span style='color:green'>Lift,<span style='color:green'>Lift,<span style='color:green'>Lift,<span style='color:red'>Fail","<span style='color:red'>Fail,<span style='color:green'>Lift,<span style='color:green'>Lift,<span style='color:red'>Fail,<span style='color:green'>Lift,<span style='color:green'>Lift","0,0,1,1,0,0,0,0,1,0,1,0","0,0,1,1,1,1,0,1,1,1,1,0","0,1,1,0,1,1",10,20,20,"","","","","","",NA,NA,"",NA,NA,NA,NA,NA,NA,NA,NA,NA,NA,NA,NA,NA,NA,NA,NA,NA,NA,NA,NA,NA,NA,NA,NA,NA,NA,NA,NA,NA,NA,NA,NA,NA,NA,NA,NA,NA,NA,NA,"",NA,NA,NA,NA,NA,NA,NA,NA,2025-11-21 00:49:11
"","https://psyc-201.github.io/xiang2023/exp/index1.html?PROLIFIC_PID=REDACTED&STUDY_ID=691f8ca61c6b4dcbb0aeb5f4&SESSION_ID=691fb533ecd251a3bf969a1e","fullscreen",1,9483,"0.0-1.0","qsr97SOw+K4+MLPuY1fb1aBoKkPXl4L6yE9B2Ow6jaUi2+K9Rfbyzkp752z3yGwFh9saQBj6nhZ93pXGkR0wTn0Bb7Y9RqmhVWsXM4NACJjHRQ50ZeBn5Xf/1HUyx+RhZJfnZx4wpbLFsvqxSO1qQ+00Xg/IPO6eWWmI+rK55LRQuJPjb1cgOhKNoTNus6TpNQcQaJ2NeY9Odpiy1i/KjALqfR+4B+7ES0OIYI+rBzpeQxn+Bp2FOU4/IjOLRosVC/I9PqEJCrHiuPH1oqiYubNvjfz1iIlgD+lcFn0t17asYdrN684pw5FBAs4egNcnzhhWRf4pMdTuu2u5c1HtPQ==","691f8ca61c6b4dcbb0aeb5f4","691fb533ecd251a3bf969a1e","index1","<span style='color:red'>Fail,<span style='color:red'>Fail,<span style='color:green'>Lift,<span style='color:green'>Lift,<span style='color:red'>Fail,<span style='color:red'>Fail,<span style='color:red'>Fail,<span style='color:red'>Fail,<span style='color:green'>Lift,<span style='color:red'>Fail,<span style='color:green'>Lift,<span style='color:red'>Fail","<span style='color:red'>Fail,<span style='color:red'>Fail,<span style='color:green'>Lift,<span style='color:green'>Lift,<span style='color:green'>Lift,<span style='color:green'>Lift,<span style='color:red'>Fail,<span style='color:green'>Lift,<span style='color:green'>Lift,<span style='color:green'>Lift,<span style='color:green'>Lift,<span style='color:red'>Fail","<span style='color:red'>Fail,<span style='color:green'>Lift,<span style='color:green'>Lift,<span style='color:red'>Fail,<span style='color:green'>Lift,<span style='color:green'>Lift","0,0,1,1,0,0,0,0,1,0,1,0","0,0,1,1,1,1,0,1,1,1,1,0","0,1,1,0,1,1",10,20,20,"true","","","","","",NA,NA,"",NA,NA,NA,NA,NA,NA,NA,NA,NA,NA,NA,NA,NA,NA,NA,NA,NA,NA,NA,NA,NA,NA,NA,NA,NA,NA,NA,NA,NA,NA,NA,NA,NA,NA,NA,NA,NA,NA,NA,"",NA,NA,NA,NA,NA,NA,NA,NA,2025-11-21 00:49:11
"79563.40000000596","https://psyc-201.github.io/xiang2023/exp/index1.html?PROLIFIC_PID=REDACTED&STUDY_ID=691f8ca61c6b4dcbb0aeb5f4&SESSION_ID=691fb533ecd251a3bf969a1e","instructions",2,89047,"0.0-2.0","qsr97SOw+K4+MLPuY1fb1aBoKkPXl4L6yE9B2Ow6jaUi2+K9Rfbyzkp752z3yGwFh9saQBj6nhZ93pXGkR0wTn0Bb7Y9RqmhVWsXM4NACJjHRQ50ZeBn5Xf/1HUyx+RhZJfnZx4wpbLFsvqxSO1qQ+00Xg/IPO6eWWmI+rK55LRQuJPjb1cgOhKNoTNus6TpNQcQaJ2NeY9Odpiy1i/KjALqfR+4B+7ES0OIYI+rBzpeQxn+Bp2FOU4/IjOLRosVC/I9PqEJCrHiuPH1oqiYubNvjfz1iIlgD+lcFn0t17asYdrN684pw5FBAs4egNcnzhhWRf4pMdTuu2u5c1HtPQ==","691f8ca61c6b4dcbb0aeb5f4","691fb533ecd251a3bf969a1e","index1","<span style='color:red'>Fail,<span style='color:red'>Fail,<span style='color:green'>Lift,<span style='color:green'>Lift,<span style='color:red'>Fail,<span style='color:red'>Fail,<span style='color:red'>Fail,<span style='color:red'>Fail,<span style='color:green'>Lift,<span style='color:red'>Fail,<span style='color:green'>Lift,<span style='color:red'>Fail","<span style='color:red'>Fail,<span style='color:red'>Fail,<span style='color:green'>Lift,<span style='color:green'>Lift,<span style='color:green'>Lift,<span style='color:green'>Lift,<span style='color:red'>Fail,<span style='color:green'>Lift,<span style='color:green'>Lift,<span style='color:green'>Lift,<span style='color:green'>Lift,<span style='color:red'>Fail","<span style='color:red'>Fail,<span style='color:green'>Lift,<span style='color:green'>Lift,<span style='color:red'>Fail,<span style='color:green'>Lift,<span style='color:green'>Lift","0,0,1,1,0,0,0,0,1,0,1,0","0,0,1,1,1,1,0,1,1,1,1,0","0,1,1,0,1,1",10,20,20,"","[{""page_index"":0,""viewing_time"":18902},{""page_index"":1,""viewing_time"":13810.20000000298},{""page_index"":2,""viewing_time"":6560},{""page_index"":3,""viewing_time"":13387.79999999702},{""page_index"":4,""viewing_time"":8817.70000000298},{""page_index"":5,""viewing_time"":14869.79999999702},{""page_index"":6,""viewing_time"":3215.5}]","","","","",NA,NA,"",NA,NA,NA,NA,NA,NA,NA,NA,NA,NA,NA,NA,NA,NA,NA,NA,NA,NA,NA,NA,NA,NA,NA,NA,NA,NA,NA,NA,NA,NA,NA,NA,NA,NA,NA,NA,NA,NA,NA,"",NA,NA,NA,NA,NA,NA,NA,NA,2025-11-21 00:49:11
"null","https://psyc-201.github.io/xiang2023/exp/index1.html?PROLIFIC_PID=REDACTED&STUDY_ID=691f8ca61c6b4dcbb0aeb5f4&SESSION_ID=691fb533ecd251a3bf969a1e","html-keyboard-response",3,90059,"0.0-3.0","qsr97SOw+K4+MLPuY1fb1aBoKkPXl4L6yE9B2Ow6jaUi2+K9Rfbyzkp752z3yGwFh9saQBj6nhZ93pXGkR0wTn0Bb7Y9RqmhVWsXM4NACJjHRQ50ZeBn5Xf/1HUyx+RhZJfnZx4wpbLFsvqxSO1qQ+00Xg/IPO6eWWmI+rK55LRQuJPjb1cgOhKNoTNus6TpNQcQaJ2NeY9Odpiy1i/KjALqfR+4B+7ES0OIYI+rBzpeQxn+Bp2FOU4/IjOLRosVC/I9PqEJCrHiuPH1oqiYubNvjfz1iIlgD+lcFn0t17asYdrN684pw5FBAs4egNcnzhhWRf4pMdTuu2u5c1HtPQ==","691f8ca61c6b4dcbb0aeb5f4","691fb533ecd251a3bf969a1e","index1","<span style='color:red'>Fail,<span style='color:red'>Fail,<span style='color:green'>Lift,<span style='color:green'>Lift,<span style='color:red'>Fail,<span style='color:red'>Fail,<span style='color:red'>Fail,<span style='color:red'>Fail,<span style='color:green'>Lift,<span style='color:red'>Fail,<span style='color:green'>Lift,<span style='color:red'>Fail","<span style='color:red'>Fail,<span style='color:red'>Fail,<span style='color:green'>Lift,<span style='color:green'>Lift,<span style='color:green'>Lift,<span style='color:green'>Lift,<span style='color:red'>Fail,<span style='color:green'>Lift,<span style='color:green'>Lift,<span style='color:green'>Lift,<span style='color:green'>Lift,<span style='color:red'>Fail","<span style='color:red'>Fail,<span style='color:green'>Lift,<span style='color:green'>Lift,<span style='color:red'>Fail,<span style='color:green'>Lift,<span style='color:green'>Lift","0,0,1,1,0,0,0,0,1,0,1,0","0,0,1,1,1,1,0,1,1,1,1,0","0,1,1,0,1,1",10,20,20,"",""," ","null","","",NA,NA,"",NA,NA,NA,NA,NA,NA,NA,NA,NA,NA,NA,NA,NA,NA,NA,NA,NA,NA,NA,NA,NA,NA,NA,NA,NA,NA,NA,NA,NA,NA,NA,NA,NA,NA,NA,NA,NA,NA,NA,"",NA,NA,NA,NA,NA,NA,NA,NA,2025-11-21 00:49:11
"24620.60000000894","https://psyc-201.github.io/xiang2023/exp/index1.html?PROLIFIC_PID=REDACTED&STUDY_ID=691f8ca61c6b4dcbb0aeb5f4&SESSION_ID=691fb533ecd251a3bf969a1e","survey-multi-choice",4,114681,"0.0-4.0","qsr97SOw+K4+MLPuY1fb1aBoKkPXl4L6yE9B2Ow6jaUi2+K9Rfbyzkp752z3yGwFh9saQBj6nhZ93pXGkR0wTn0Bb7Y9RqmhVWsXM4NACJjHRQ50ZeBn5Xf/1HUyx+RhZJfnZx4wpbLFsvqxSO1qQ+00Xg/IPO6eWWmI+rK55LRQuJPjb1cgOhKNoTNus6TpNQcQaJ2NeY9Odpiy1i/KjALqfR+4B+7ES0OIYI+rBzpeQxn+Bp2FOU4/IjOLRosVC/I9PqEJCrHiuPH1oqiYubNvjfz1iIlgD+lcFn0t17asYdrN684pw5FBAs4egNcnzhhWRf4pMdTuu2u5c1HtPQ==","691f8ca61c6b4dcbb0aeb5f4","691fb533ecd251a3bf969a1e","index1","<span style='color:red'>Fail,<span style='color:red'>Fail,<span style='color:green'>Lift,<span style='color:green'>Lift,<span style='color:red'>Fail,<span style='color:red'>Fail,<span style='color:red'>Fail,<span style='color:red'>Fail,<span style='color:green'>Lift,<span style='color:red'>Fail,<span style='color:green'>Lift,<span style='color:red'>Fail","<span style='color:red'>Fail,<span style='color:red'>Fail,<span style='color:green'>Lift,<span style='color:green'>Lift,<span style='color:green'>Lift,<span style='color:green'>Lift,<span style='color:red'>Fail,<span style='color:green'>Lift,<span style='color:green'>Lift,<span style='color:green'>Lift,<span style='color:green'>Lift,<span style='color:red'>Fail","<span style='color:red'>Fail,<span style='color:green'>Lift,<span style='color:green'>Lift,<span style='color:red'>Fail,<span style='color:green'>Lift,<span style='color:green'>Lift","0,0,1,1,0,0,0,0,1,0,1,0","0,0,1,1,1,1,0,1,1,1,1,0","0,1,1,0,1,1",10,20,20,"","","","","{""Q0"":""It consists of multiple contests, each contest with three rounds."",""Q1"":""When a new contest begins."",""Q2"":""The box weight always stays the same (equivalent to strength of 5)."",""Q3"":""They will split the $20, that is $10 for each."",""Q4"":""How close my guesses are to the actual outcome.""}","[0,1,2,3,4]",NA,NA,"",NA,NA,NA,NA,NA,NA,NA,NA,NA,NA,NA,NA,NA,NA,NA,NA,NA,NA,NA,NA,NA,NA,NA,NA,NA,NA,NA,NA,NA,NA,NA,NA,NA,NA,NA,NA,NA,NA,NA,"",NA,NA,NA,NA,NA,NA,NA,NA,2025-11-21 00:49:11
"2937.9000000059605","https://psyc-201.github.io/xiang2023/exp/index1.html?PROLIFIC_PID=REDACTED&STUDY_ID=691f8ca61c6b4dcbb0aeb5f4&SESSION_ID=691fb533ecd251a3bf969a1e","html-button-response",5,117621,"0.0-5.0-1.0","qsr97SOw+K4+MLPuY1fb1aBoKkPXl4L6yE9B2Ow6jaUi2+K9Rfbyzkp752z3yGwFh9saQBj6nhZ93pXGkR0wTn0Bb7Y9RqmhVWsXM4NACJjHRQ50ZeBn5Xf/1HUyx+RhZJfnZx4wpbLFsvqxSO1qQ+00Xg/IPO6eWWmI+rK55LRQuJPjb1cgOhKNoTNus6TpNQcQaJ2NeY9Odpiy1i/KjALqfR+4B+7ES0OIYI+rBzpeQxn+Bp2FOU4/IjOLRosVC/I9PqEJCrHiuPH1oqiYubNvjfz1iIlgD+lcFn0t17asYdrN684pw5FBAs4egNcnzhhWRf4pMdTuu2u5c1HtPQ==","691f8ca61c6b4dcbb0aeb5f4","691fb533ecd251a3bf969a1e","index1","<span style='color:red'>Fail,<span style='color:red'>Fail,<span style='color:green'>Lift,<span style='color:green'>Lift,<span style='color:red'>Fail,<span style='color:red'>Fail,<span style='color:red'>Fail,<span style='color:red'>Fail,<span style='color:green'>Lift,<span style='color:red'>Fail,<span style='color:green'>Lift,<span style='color:red'>Fail","<span style='color:red'>Fail,<span style='color:red'>Fail,<span style='color:green'>Lift,<span style='color:green'>Lift,<span style='color:green'>Lift,<span style='color:green'>Lift,<span style='color:red'>Fail,<span style='color:green'>Lift,<span style='color:green'>Lift,<span style='color:green'>Lift,<span style='color:green'>Lift,<span style='color:red'>Fail","<span style='color:red'>Fail,<span style='color:green'>Lift,<span style='color:green'>Lift,<span style='color:red'>Fail,<span style='color:green'>Lift,<span style='color:green'>Lift","0,0,1,1,0,0,0,0,1,0,1,0","0,0,1,1,1,1,0,1,1,1,1,0","0,1,1,0,1,1",10,20,20,"","","<p> Oops! You did not pass the comprehension check. <b>Please note that you have only 1 attempt(s) left.</b> </p>","","","",1,NA,"",NA,NA,NA,NA,NA,NA,NA,NA,NA,NA,NA,NA,NA,NA,NA,NA,NA,NA,NA,NA,NA,NA,NA,NA,NA,NA,NA,NA,NA,NA,NA,NA,NA,NA,NA,NA,NA,NA,NA,"",NA,NA,NA,NA,NA,NA,NA,NA,2025-11-21 00:49:11
"33327.90000000596","https://psyc-201.github.io/xiang2023/exp/index1.html?PROLIFIC_PID=REDACTED&STUDY_ID=691f8ca61c6b4dcbb0aeb5f4&SESSION_ID=691fb533ecd251a3bf969a1e","instructions",6,150949,"0.0-6.0-0.0","qsr97SOw+K4+MLPuY1fb1aBoKkPXl4L6yE9B2Ow6jaUi2+K9Rfbyzkp752z3yGwFh9saQBj6nhZ93pXGkR0wTn0Bb7Y9RqmhVWsXM4NACJjHRQ50ZeBn5Xf/1HUyx+RhZJfnZx4wpbLFsvqxSO1qQ+00Xg/IPO6eWWmI+rK55LRQuJPjb1cgOhKNoTNus6TpNQcQaJ2NeY9Odpiy1i/KjALqfR+4B+7ES0OIYI+rBzpeQxn+Bp2FOU4/IjOLRosVC/I9PqEJCrHiuPH1oqiYubNvjfz1iIlgD+lcFn0t17asYdrN684pw5FBAs4egNcnzhhWRf4pMdTuu2u5c1HtPQ==","691f8ca61c6b4dcbb0aeb5f4","691fb533ecd251a3bf969a1e","index1","<span style='color:red'>Fail,<span style='color:red'>Fail,<span style='color:green'>Lift,<span style='color:green'>Lift,<span style='color:red'>Fail,<span style='color:red'>Fail,<span style='color:red'>Fail,<span style='color:red'>Fail,<span style='color:green'>Lift,<span style='color:red'>Fail,<span style='color:green'>Lift,<span style='color:red'>Fail","<span style='color:red'>Fail,<span style='color:red'>Fail,<span style='color:green'>Lift,<span style='color:green'>Lift,<span style='color:green'>Lift,<span style='color:green'>Lift,<span style='color:red'>Fail,<span style='color:green'>Lift,<span style='color:green'>Lift,<span style='color:green'>Lift,<span style='color:green'>Lift,<span style='color:red'>Fail","<span style='color:red'>Fail,<span style='color:green'>Lift,<span style='color:green'>Lift,<span style='color:red'>Fail,<span style='color:green'>Lift,<span style='color:green'>Lift","0,0,1,1,0,0,0,0,1,0,1,0","0,0,1,1,1,1,0,1,1,1,1,0","0,1,1,0,1,1",10,20,20,"","[{""page_index"":0,""viewing_time"":15944.90000000596},{""page_index"":1,""viewing_time"":5610.79999999702},{""page_index"":2,""viewing_time"":8126.0999999940395},{""page_index"":3,""viewing_time"":1229.6000000089407},{""page_index"":4,""viewing_time"":877.8999999910593},{""page_index"":5,""viewing_time"":758.4000000059605},{""page_index"":6,""viewing_time"":780}]","","","","",NA,NA,"",NA,NA,NA,NA,NA,NA,NA,NA,NA,NA,NA,NA,NA,NA,NA,NA,NA,NA,NA,NA,NA,NA,NA,NA,NA,NA,NA,NA,NA,NA,NA,NA,NA,NA,NA,NA,NA,NA,NA,"",NA,NA,NA,NA,NA,NA,NA,NA,2025-11-21 00:49:11
"null","https://psyc-201.github.io/xiang2023/exp/index1.html?PROLIFIC_PID=REDACTED&STUDY_ID=691f8ca61c6b4dcbb0aeb5f4&SESSION_ID=691fb533ecd251a3bf969a1e","html-keyboard-response",7,151952,"0.0-6.0-1.0","qsr97SOw+K4+MLPuY1fb1aBoKkPXl4L6yE9B2Ow6jaUi2+K9Rfbyzkp752z3yGwFh9saQBj6nhZ93pXGkR0wTn0Bb7Y9RqmhVWsXM4NACJjHRQ50ZeBn5Xf/1HUyx+RhZJfnZx4wpbLFsvqxSO1qQ+00Xg/IPO6eWWmI+rK55LRQuJPjb1cgOhKNoTNus6TpNQcQaJ2NeY9Odpiy1i/KjALqfR+4B+7ES0OIYI+rBzpeQxn+Bp2FOU4/IjOLRosVC/I9PqEJCrHiuPH1oqiYubNvjfz1iIlgD+lcFn0t17asYdrN684pw5FBAs4egNcnzhhWRf4pMdTuu2u5c1HtPQ==","691f8ca61c6b4dcbb0aeb5f4","691fb533ecd251a3bf969a1e","index1","<span style='color:red'>Fail,<span style='color:red'>Fail,<span style='color:green'>Lift,<span style='color:green'>Lift,<span style='color:red'>Fail,<span style='color:red'>Fail,<span style='color:red'>Fail,<span style='color:red'>Fail,<span style='color:green'>Lift,<span style='color:red'>Fail,<span style='color:green'>Lift,<span style='color:red'>Fail","<span style='color:red'>Fail,<span style='color:red'>Fail,<span style='color:green'>Lift,<span style='color:green'>Lift,<span style='color:green'>Lift,<span style='color:green'>Lift,<span style='color:red'>Fail,<span style='color:green'>Lift,<span style='color:green'>Lift,<span style='color:green'>Lift,<span style='color:green'>Lift,<span style='color:red'>Fail","<span style='color:red'>Fail,<span style='color:green'>Lift,<span style='color:green'>Lift,<span style='color:red'>Fail,<span style='color:green'>Lift,<span style='color:green'>Lift","0,0,1,1,0,0,0,0,1,0,1,0","0,0,1,1,1,1,0,1,1,1,1,0","0,1,1,0,1,1",10,20,20,"",""," ","null","","",NA,NA,"",NA,NA,NA,NA,NA,NA,NA,NA,NA,NA,NA,NA,NA,NA,NA,NA,NA,NA,NA,NA,NA,NA,NA,NA,NA,NA,NA,NA,NA,NA,NA,NA,NA,NA,NA,NA,NA,NA,NA,"",NA,NA,NA,NA,NA,NA,NA,NA,2025-11-21 00:49:11
"19564.10000000894","https://psyc-201.github.io/xiang2023/exp/index1.html?PROLIFIC_PID=REDACTED&STUDY_ID=691f8ca61c6b4dcbb0aeb5f4&SESSION_ID=691fb533ecd251a3bf969a1e","survey-multi-choice",8,171517,"0.0-7.0-0.0","qsr97SOw+K4+MLPuY1fb1aBoKkPXl4L6yE9B2Ow6jaUi2+K9Rfbyzkp752z3yGwFh9saQBj6nhZ93pXGkR0wTn0Bb7Y9RqmhVWsXM4NACJjHRQ50ZeBn5Xf/1HUyx+RhZJfnZx4wpbLFsvqxSO1qQ+00Xg/IPO6eWWmI+rK55LRQuJPjb1cgOhKNoTNus6TpNQcQaJ2NeY9Odpiy1i/KjALqfR+4B+7ES0OIYI+rBzpeQxn+Bp2FOU4/IjOLRosVC/I9PqEJCrHiuPH1oqiYubNvjfz1iIlgD+lcFn0t17asYdrN684pw5FBAs4egNcnzhhWRf4pMdTuu2u5c1HtPQ==","691f8ca61c6b4dcbb0aeb5f4","691fb533ecd251a3bf969a1e","index1","<span style='color:red'>Fail,<span style='color:red'>Fail,<span style='color:green'>Lift,<span style='color:green'>Lift,<span style='color:red'>Fail,<span style='color:red'>Fail,<span style='color:red'>Fail,<span style='color:red'>Fail,<span style='color:green'>Lift,<span style='color:red'>Fail,<span style='color:green'>Lift,<span style='color:red'>Fail","<span style='color:red'>Fail,<span style='color:red'>Fail,<span style='color:green'>Lift,<span style='color:green'>Lift,<span style='color:green'>Lift,<span style='color:green'>Lift,<span style='color:red'>Fail,<span style='color:green'>Lift,<span style='color:green'>Lift,<span style='color:green'>Lift,<span style='color:green'>Lift,<span style='color:red'>Fail","<span style='color:red'>Fail,<span style='color:green'>Lift,<span style='color:green'>Lift,<span style='color:red'>Fail,<span style='color:green'>Lift,<span style='color:green'>Lift","0,0,1,1,0,0,0,0,1,0,1,0","0,0,1,1,1,1,0,1,1,1,1,0","0,1,1,0,1,1",10,20,20,"","","","","{""Q0"":""It consists of multiple contests, each contest with three rounds."",""Q1"":""When a new contest begins."",""Q2"":""The box weight always stays the same (equivalent to strength of 5)."",""Q3"":""Each will get $20."",""Q4"":""How close my guesses are to the actual outcome.""}","[0,1,2,3,4]",NA,NA,"",NA,NA,NA,NA,NA,NA,NA,NA,NA,NA,NA,NA,NA,NA,NA,NA,NA,NA,NA,NA,NA,NA,NA,NA,NA,NA,NA,NA,NA,NA,NA,NA,NA,NA,NA,NA,NA,NA,NA,"",NA,NA,NA,NA,NA,NA,NA,NA,2025-11-21 00:49:11
"4547.5999999940395","https://psyc-201.github.io/xiang2023/exp/index1.html?PROLIFIC_PID=REDACTED&STUDY_ID=691f8ca61c6b4dcbb0aeb5f4&SESSION_ID=691fb533ecd251a3bf969a1e","instructions",9,176068,"0.0-305.0","qsr97SOw+K4+MLPuY1fb1aBoKkPXl4L6yE9B2Ow6jaUi2+K9Rfbyzkp752z3yGwFh9saQBj6nhZ93pXGkR0wTn0Bb7Y9RqmhVWsXM4NACJjHRQ50ZeBn5Xf/1HUyx+RhZJfnZx4wpbLFsvqxSO1qQ+00Xg/IPO6eWWmI+rK55LRQuJPjb1cgOhKNoTNus6TpNQcQaJ2NeY9Odpiy1i/KjALqfR+4B+7ES0OIYI+rBzpeQxn+Bp2FOU4/IjOLRosVC/I9PqEJCrHiuPH1oqiYubNvjfz1iIlgD+lcFn0t17asYdrN684pw5FBAs4egNcnzhhWRf4pMdTuu2u5c1HtPQ==","691f8ca61c6b4dcbb0aeb5f4","691fb533ecd251a3bf969a1e","index1","<span style='color:red'>Fail,<span style='color:red'>Fail,<span style='color:green'>Lift,<span style='color:green'>Lift,<span style='color:red'>Fail,<span style='color:red'>Fail,<span style='color:red'>Fail,<span style='color:red'>Fail,<span style='color:green'>Lift,<span style='color:red'>Fail,<span style='color:green'>Lift,<span style='color:red'>Fail","<span style='color:red'>Fail,<span style='color:red'>Fail,<span style='color:green'>Lift,<span style='color:green'>Lift,<span style='color:green'>Lift,<span style='color:green'>Lift,<span style='color:red'>Fail,<span style='color:green'>Lift,<span style='color:green'>Lift,<span style='color:green'>Lift,<span style='color:green'>Lift,<span style='color:red'>Fail","<span style='color:red'>Fail,<span style='color:green'>Lift,<span style='color:green'>Lift,<span style='color:red'>Fail,<span style='color:green'>Lift,<span style='color:green'>Lift","0,0,1,1,0,0,0,0,1,0,1,0","0,0,1,1,1,1,0,1,1,1,1,0","0,1,1,0,1,1",10,20,20,"","[{""page_index"":0,""viewing_time"":1534.2999999970198},{""page_index"":1,""viewing_time"":3013.0999999940395}]","","","","",NA,NA,"",NA,NA,NA,NA,NA,NA,NA,NA,NA,NA,NA,NA,NA,NA,NA,NA,NA,NA,NA,NA,NA,NA,NA,NA,NA,NA,NA,NA,NA,NA,NA,NA,NA,NA,NA,NA,NA,NA,NA,"",NA,NA,NA,NA,NA,NA,NA,NA,2025-11-21 00:49:11
"null","https://psyc-201.github.io/xiang2023/exp/index1.html?PROLIFIC_PID=REDACTED&STUDY_ID=691f8ca61c6b4dcbb0aeb5f4&SESSION_ID=691fb533ecd251a3bf969a1e","html-keyboard-response",10,177078,"0.0-306.0","qsr97SOw+K4+MLPuY1fb1aBoKkPXl4L6yE9B2Ow6jaUi2+K9Rfbyzkp752z3yGwFh9saQBj6nhZ93pXGkR0wTn0Bb7Y9RqmhVWsXM4NACJjHRQ50ZeBn5Xf/1HUyx+RhZJfnZx4wpbLFsvqxSO1qQ+00Xg/IPO6eWWmI+rK55LRQuJPjb1cgOhKNoTNus6TpNQcQaJ2NeY9Odpiy1i/KjALqfR+4B+7ES0OIYI+rBzpeQxn+Bp2FOU4/IjOLRosVC/I9PqEJCrHiuPH1oqiYubNvjfz1iIlgD+lcFn0t17asYdrN684pw5FBAs4egNcnzhhWRf4pMdTuu2u5c1HtPQ==","691f8ca61c6b4dcbb0aeb5f4","691fb533ecd251a3bf969a1e","index1","<span style='color:red'>Fail,<span style='color:red'>Fail,<span style='color:green'>Lift,<span style='color:green'>Lift,<span style='color:red'>Fail,<span style='color:red'>Fail,<span style='color:red'>Fail,<span style='color:red'>Fail,<span style='color:green'>Lift,<span style='color:red'>Fail,<span style='color:green'>Lift,<span style='color:red'>Fail","<span style='color:red'>Fail,<span style='color:red'>Fail,<span style='color:green'>Lift,<span style='color:green'>Lift,<span style='color:green'>Lift,<span style='color:green'>Lift,<span style='color:red'>Fail,<span style='color:green'>Lift,<span style='color:green'>Lift,<span style='color:green'>Lift,<span style='color:green'>Lift,<span style='color:red'>Fail","<span style='color:red'>Fail,<span style='color:green'>Lift,<span style='color:green'>Lift,<span style='color:red'>Fail,<span style='color:green'>Lift,<span style='color:green'>Lift","0,0,1,1,0,0,0,0,1,0,1,0","0,0,1,1,1,1,0,1,1,1,1,0","0,1,1,0,1,1",10,20,20,"",""," ","null","","",NA,1,"",NA,NA,NA,NA,NA,NA,NA,NA,NA,NA,NA,NA,NA,NA,NA,NA,NA,NA,NA,NA,NA,NA,NA,NA,NA,NA,NA,NA,NA,NA,NA,NA,NA,NA,NA,NA,NA,NA,NA,"",NA,NA,NA,NA,NA,NA,NA,NA,2025-11-21 00:49:11
"null","https://psyc-201.github.io/xiang2023/exp/index1.html?PROLIFIC_PID=REDACTED&STUDY_ID=691f8ca61c6b4dcbb0aeb5f4&SESSION_ID=691fb533ecd251a3bf969a1e","html-keyboard-response",11,180087,"0.0-307.0","qsr97SOw+K4+MLPuY1fb1aBoKkPXl4L6yE9B2Ow6jaUi2+K9Rfbyzkp752z3yGwFh9saQBj6nhZ93pXGkR0wTn0Bb7Y9RqmhVWsXM4NACJjHRQ50ZeBn5Xf/1HUyx+RhZJfnZx4wpbLFsvqxSO1qQ+00Xg/IPO6eWWmI+rK55LRQuJPjb1cgOhKNoTNus6TpNQcQaJ2NeY9Odpiy1i/KjALqfR+4B+7ES0OIYI+rBzpeQxn+Bp2FOU4/IjOLRosVC/I9PqEJCrHiuPH1oqiYubNvjfz1iIlgD+lcFn0t17asYdrN684pw5FBAs4egNcnzhhWRf4pMdTuu2u5c1HtPQ==","691f8ca61c6b4dcbb0aeb5f4","691fb533ecd251a3bf969a1e","index1","<span style='color:red'>Fail,<span style='color:red'>Fail,<span style='color:green'>Lift,<span style='color:green'>Lift,<span style='color:red'>Fail,<span style='color:red'>Fail,<span style='color:red'>Fail,<span style='color:red'>Fail,<span style='color:green'>Lift,<span style='color:red'>Fail,<span style='color:green'>Lift,<span style='color:red'>Fail","<span style='color:red'>Fail,<span style='color:red'>Fail,<span style='color:green'>Lift,<span style='color:green'>Lift,<span style='color:green'>Lift,<span style='color:green'>Lift,<span style='color:red'>Fail,<span style='color:green'>Lift,<span style='color:green'>Lift,<span style='color:green'>Lift,<span style='color:green'>Lift,<span style='color:red'>Fail","<span style='color:red'>Fail,<span style='color:green'>Lift,<span style='color:green'>Lift,<span style='color:red'>Fail,<span style='color:green'>Lift,<span style='color:green'>Lift","0,0,1,1,0,0,0,0,1,0,1,0","0,0,1,1,1,1,0,1,1,1,1,0","0,1,1,0,1,1",10,20,20,"","","<p style='font-size:30px'><b> New Contest! </b></p>","null","","",NA,1,"",NA,NA,NA,NA,NA,NA,NA,NA,NA,NA,NA,NA,NA,NA,NA,NA,NA,NA,NA,NA,NA,NA,NA,NA,NA,NA,NA,NA,NA,NA,NA,NA,NA,NA,NA,NA,NA,NA,NA,"",NA,NA,NA,NA,NA,NA,NA,NA,2025-11-21 00:49:11
"7373.0999999940395","https://psyc-201.github.io/xiang2023/exp/index1.html?PROLIFIC_PID=REDACTED&STUDY_ID=691f8ca61c6b4dcbb0aeb5f4&SESSION_ID=691fb533ecd251a3bf969a1e","survey-html-form",12,187462,"0.0-308.0","qsr97SOw+K4+MLPuY1fb1aBoKkPXl4L6yE9B2Ow6jaUi2+K9Rfbyzkp752z3yGwFh9saQBj6nhZ93pXGkR0wTn0Bb7Y9RqmhVWsXM4NACJjHRQ50ZeBn5Xf/1HUyx+RhZJfnZx4wpbLFsvqxSO1qQ+00Xg/IPO6eWWmI+rK55LRQuJPjb1cgOhKNoTNus6TpNQcQaJ2NeY9Odpiy1i/KjALqfR+4B+7ES0OIYI+rBzpeQxn+Bp2FOU4/IjOLRosVC/I9PqEJCrHiuPH1oqiYubNvjfz1iIlgD+lcFn0t17asYdrN684pw5FBAs4egNcnzhhWRf4pMdTuu2u5c1HtPQ==","691f8ca61c6b4dcbb0aeb5f4","691fb533ecd251a3bf969a1e","index1","<span style='color:red'>Fail,<span style='color:red'>Fail,<span style='color:green'>Lift,<span style='color:green'>Lift,<span style='color:red'>Fail,<span style='color:red'>Fail,<span style='color:red'>Fail,<span style='color:red'>Fail,<span style='color:green'>Lift,<span style='color:red'>Fail,<span style='color:green'>Lift,<span style='color:red'>Fail","<span style='color:red'>Fail,<span style='color:red'>Fail,<span style='color:green'>Lift,<span style='color:green'>Lift,<span style='color:green'>Lift,<span style='color:green'>Lift,<span style='color:red'>Fail,<span style='color:green'>Lift,<span style='color:green'>Lift,<span style='color:green'>Lift,<span style='color:green'>Lift,<span style='color:red'>Fail","<span style='color:red'>Fail,<span style='color:green'>Lift,<span style='color:green'>Lift,<span style='color:red'>Fail,<span style='color:green'>Lift,<span style='color:green'>Lift","0,0,1,1,0,0,0,0,1,0,1,0","0,0,1,1,1,1,0,1,1,1,1,0","0,1,1,0,1,1",10,20,20,"","","","","{""box1"":""4"",""box2"":""4""}","",NA,1,"round1_outcome",1,1,1,4,4,NA,NA,0,0,10,4,4,NA,NA,0,0,10,NA,NA,NA,NA,NA,NA,NA,NA,NA,NA,NA,NA,NA,NA,NA,NA,NA,NA,NA,NA,NA,NA,"",NA,NA,NA,NA,NA,NA,NA,NA,2025-11-21 00:49:11
"7385.9000000059605","https://psyc-201.github.io/xiang2023/exp/index1.html?PROLIFIC_PID=REDACTED&STUDY_ID=691f8ca61c6b4dcbb0aeb5f4&SESSION_ID=691fb533ecd251a3bf969a1e","survey-html-form",13,194849,"0.0-309.0","qsr97SOw+K4+MLPuY1fb1aBoKkPXl4L6yE9B2Ow6jaUi2+K9Rfbyzkp752z3yGwFh9saQBj6nhZ93pXGkR0wTn0Bb7Y9RqmhVWsXM4NACJjHRQ50ZeBn5Xf/1HUyx+RhZJfnZx4wpbLFsvqxSO1qQ+00Xg/IPO6eWWmI+rK55LRQuJPjb1cgOhKNoTNus6TpNQcQaJ2NeY9Odpiy1i/KjALqfR+4B+7ES0OIYI+rBzpeQxn+Bp2FOU4/IjOLRosVC/I9PqEJCrHiuPH1oqiYubNvjfz1iIlgD+lcFn0t17asYdrN684pw5FBAs4egNcnzhhWRf4pMdTuu2u5c1HtPQ==","691f8ca61c6b4dcbb0aeb5f4","691fb533ecd251a3bf969a1e","index1","<span style='color:red'>Fail,<span style='color:red'>Fail,<span style='color:green'>Lift,<span style='color:green'>Lift,<span style='color:red'>Fail,<span style='color:red'>Fail,<span style='color:red'>Fail,<span style='color:red'>Fail,<span style='color:green'>Lift,<span style='color:red'>Fail,<span style='color:green'>Lift,<span style='color:red'>Fail","<span style='color:red'>Fail,<span style='color:red'>Fail,<span style='color:green'>Lift,<span style='color:green'>Lift,<span style='color:green'>Lift,<span style='color:green'>Lift,<span style='color:red'>Fail,<span style='color:green'>Lift,<span style='color:green'>Lift,<span style='color:green'>Lift,<span style='color:green'>Lift,<span style='color:red'>Fail","<span style='color:red'>Fail,<span style='color:green'>Lift,<span style='color:green'>Lift,<span style='color:red'>Fail,<span style='color:green'>Lift,<span style='color:green'>Lift","0,0,1,1,0,0,0,0,1,0,1,0","0,0,1,1,1,1,0,1,1,1,1,0","0,1,1,0,1,1",10,20,20,"","","","","{""box1"":""40"",""box2"":""40""}","",NA,1,"round2_ready",2,1,2,NA,NA,NA,NA,NA,NA,NA,NA,NA,NA,NA,NA,NA,NA,40,40,40,40,NA,NA,NA,NA,NA,NA,NA,NA,NA,NA,NA,NA,NA,NA,NA,NA,NA,NA,"",NA,NA,NA,NA,NA,NA,NA,NA,2025-11-21 00:49:11
"16936.20000000298","https://psyc-201.github.io/xiang2023/exp/index1.html?PROLIFIC_PID=REDACTED&STUDY_ID=691f8ca61c6b4dcbb0aeb5f4&SESSION_ID=691fb533ecd251a3bf969a1e","survey-html-form",14,211786,"0.0-310.0","qsr97SOw+K4+MLPuY1fb1aBoKkPXl4L6yE9B2Ow6jaUi2+K9Rfbyzkp752z3yGwFh9saQBj6nhZ93pXGkR0wTn0Bb7Y9RqmhVWsXM4NACJjHRQ50ZeBn5Xf/1HUyx+RhZJfnZx4wpbLFsvqxSO1qQ+00Xg/IPO6eWWmI+rK55LRQuJPjb1cgOhKNoTNus6TpNQcQaJ2NeY9Odpiy1i/KjALqfR+4B+7ES0OIYI+rBzpeQxn+Bp2FOU4/IjOLRosVC/I9PqEJCrHiuPH1oqiYubNvjfz1iIlgD+lcFn0t17asYdrN684pw5FBAs4egNcnzhhWRf4pMdTuu2u5c1HtPQ==","691f8ca61c6b4dcbb0aeb5f4","691fb533ecd251a3bf969a1e","index1","<span style='color:red'>Fail,<span style='color:red'>Fail,<span style='color:green'>Lift,<span style='color:green'>Lift,<span style='color:red'>Fail,<span style='color:red'>Fail,<span style='color:red'>Fail,<span style='color:red'>Fail,<span style='color:green'>Lift,<span style='color:red'>Fail,<span style='color:green'>Lift,<span style='color:red'>Fail","<span style='color:red'>Fail,<span style='color:red'>Fail,<span style='color:green'>Lift,<span style='color:green'>Lift,<span style='color:green'>Lift,<span style='color:green'>Lift,<span style='color:red'>Fail,<span style='color:green'>Lift,<span style='color:green'>Lift,<span style='color:green'>Lift,<span style='color:green'>Lift,<span style='color:red'>Fail","<span style='color:red'>Fail,<span style='color:green'>Lift,<span style='color:green'>Lift,<span style='color:red'>Fail,<span style='color:green'>Lift,<span style='color:green'>Lift","0,0,1,1,0,0,0,0,1,0,1,0","0,0,1,1,1,1,0,1,1,1,1,0","0,1,1,0,1,1",10,20,20,"","","","","{""box1"":""6"",""box2"":""6"",""box3"":""90"",""box4"":""90""}","",NA,1,"round2_outcome",3,1,2,6,6,90,90,1,1,20,NA,NA,NA,NA,NA,NA,NA,NA,NA,NA,NA,6,6,90,90,1,1,20,NA,NA,NA,NA,NA,NA,NA,NA,NA,NA,NA,"",NA,NA,NA,NA,NA,NA,NA,NA,2025-11-21 00:49:11
"5623.5999999940395","https://psyc-201.github.io/xiang2023/exp/index1.html?PROLIFIC_PID=REDACTED&STUDY_ID=691f8ca61c6b4dcbb0aeb5f4&SESSION_ID=691fb533ecd251a3bf969a1e","survey-html-form",15,217411,"0.0-311.0","qsr97SOw+K4+MLPuY1fb1aBoKkPXl4L6yE9B2Ow6jaUi2+K9Rfbyzkp752z3yGwFh9saQBj6nhZ93pXGkR0wTn0Bb7Y9RqmhVWsXM4NACJjHRQ50ZeBn5Xf/1HUyx+RhZJfnZx4wpbLFsvqxSO1qQ+00Xg/IPO6eWWmI+rK55LRQuJPjb1cgOhKNoTNus6TpNQcQaJ2NeY9Odpiy1i/KjALqfR+4B+7ES0OIYI+rBzpeQxn+Bp2FOU4/IjOLRosVC/I9PqEJCrHiuPH1oqiYubNvjfz1iIlgD+lcFn0t17asYdrN684pw5FBAs4egNcnzhhWRf4pMdTuu2u5c1HtPQ==","691f8ca61c6b4dcbb0aeb5f4","691fb533ecd251a3bf969a1e","index1","<span style='color:red'>Fail,<span style='color:red'>Fail,<span style='color:green'>Lift,<span style='color:green'>Lift,<span style='color:red'>Fail,<span style='color:red'>Fail,<span style='color:red'>Fail,<span style='color:red'>Fail,<span style='color:green'>Lift,<span style='color:red'>Fail,<span style='color:green'>Lift,<span style='color:red'>Fail","<span style='color:red'>Fail,<span style='color:red'>Fail,<span style='color:green'>Lift,<span style='color:green'>Lift,<span style='color:green'>Lift,<span style='color:green'>Lift,<span style='color:red'>Fail,<span style='color:green'>Lift,<span style='color:green'>Lift,<span style='color:green'>Lift,<span style='color:green'>Lift,<span style='color:red'>Fail","<span style='color:red'>Fail,<span style='color:green'>Lift,<span style='color:green'>Lift,<span style='color:red'>Fail,<span style='color:green'>Lift,<span style='color:green'>Lift","0,0,1,1,0,0,0,0,1,0,1,0","0,0,1,1,1,1,0,1,1,1,1,0","0,1,1,0,1,1",10,20,20,"","","","","{""box1"":""90""}","",NA,1,"round3_ready",4,1,3,NA,NA,NA,NA,NA,NA,NA,NA,NA,NA,NA,NA,NA,NA,90,90,NA,NA,NA,NA,NA,NA,NA,NA,NA,90,90,NA,NA,NA,NA,NA,NA,NA,NA,NA,"",NA,NA,NA,NA,NA,NA,NA,NA,2025-11-21 00:49:11
"9782.20000000298","https://psyc-201.github.io/xiang2023/exp/index1.html?PROLIFIC_PID=REDACTED&STUDY_ID=691f8ca61c6b4dcbb0aeb5f4&SESSION_ID=691fb533ecd251a3bf969a1e","survey-html-form",16,227195,"0.0-312.0-0.0","qsr97SOw+K4+MLPuY1fb1aBoKkPXl4L6yE9B2Ow6jaUi2+K9Rfbyzkp752z3yGwFh9saQBj6nhZ93pXGkR0wTn0Bb7Y9RqmhVWsXM4NACJjHRQ50ZeBn5Xf/1HUyx+RhZJfnZx4wpbLFsvqxSO1qQ+00Xg/IPO6eWWmI+rK55LRQuJPjb1cgOhKNoTNus6TpNQcQaJ2NeY9Odpiy1i/KjALqfR+4B+7ES0OIYI+rBzpeQxn+Bp2FOU4/IjOLRosVC/I9PqEJCrHiuPH1oqiYubNvjfz1iIlgD+lcFn0t17asYdrN684pw5FBAs4egNcnzhhWRf4pMdTuu2u5c1HtPQ==","691f8ca61c6b4dcbb0aeb5f4","691fb533ecd251a3bf969a1e","index1","<span style='color:red'>Fail,<span style='color:red'>Fail,<span style='color:green'>Lift,<span style='color:green'>Lift,<span style='color:red'>Fail,<span style='color:red'>Fail,<span style='color:red'>Fail,<span style='color:red'>Fail,<span style='color:green'>Lift,<span style='color:red'>Fail,<span style='color:green'>Lift,<span style='color:red'>Fail","<span style='color:red'>Fail,<span style='color:red'>Fail,<span style='color:green'>Lift,<span style='color:green'>Lift,<span style='color:green'>Lift,<span style='color:green'>Lift,<span style='color:red'>Fail,<span style='color:green'>Lift,<span style='color:green'>Lift,<span style='color:green'>Lift,<span style='color:green'>Lift,<span style='color:red'>Fail","<span style='color:red'>Fail,<span style='color:green'>Lift,<span style='color:green'>Lift,<span style='color:red'>Fail,<span style='color:green'>Lift,<span style='color:green'>Lift","0,0,1,1,0,0,0,0,1,0,1,0","0,0,1,1,1,1,0,1,1,1,1,0","0,1,1,0,1,1",10,20,20,"","","","","{""box1"":""6"",""box2"":""6"",""box3"":""70"",""box4"":""70""}","",NA,2,"round3_lift",5,1,3,6,6,70,70,1,1,20,NA,NA,NA,NA,NA,NA,NA,NA,NA,NA,NA,NA,NA,NA,NA,NA,NA,NA,NA,NA,6,6,70,70,1,1,20,NA,NA,"",NA,NA,NA,NA,NA,NA,NA,NA,2025-11-21 00:49:11
"null","https://psyc-201.github.io/xiang2023/exp/index1.html?PROLIFIC_PID=REDACTED&STUDY_ID=691f8ca61c6b4dcbb0aeb5f4&SESSION_ID=691fb533ecd251a3bf969a1e","html-keyboard-response",17,230202,"0.0-316.0","qsr97SOw+K4+MLPuY1fb1aBoKkPXl4L6yE9B2Ow6jaUi2+K9Rfbyzkp752z3yGwFh9saQBj6nhZ93pXGkR0wTn0Bb7Y9RqmhVWsXM4NACJjHRQ50ZeBn5Xf/1HUyx+RhZJfnZx4wpbLFsvqxSO1qQ+00Xg/IPO6eWWmI+rK55LRQuJPjb1cgOhKNoTNus6TpNQcQaJ2NeY9Odpiy1i/KjALqfR+4B+7ES0OIYI+rBzpeQxn+Bp2FOU4/IjOLRosVC/I9PqEJCrHiuPH1oqiYubNvjfz1iIlgD+lcFn0t17asYdrN684pw5FBAs4egNcnzhhWRf4pMdTuu2u5c1HtPQ==","691f8ca61c6b4dcbb0aeb5f4","691fb533ecd251a3bf969a1e","index1","<span style='color:red'>Fail,<span style='color:red'>Fail,<span style='color:green'>Lift,<span style='color:green'>Lift,<span style='color:red'>Fail,<span style='color:red'>Fail,<span style='color:red'>Fail,<span style='color:red'>Fail,<span style='color:green'>Lift,<span style='color:red'>Fail,<span style='color:green'>Lift,<span style='color:red'>Fail","<span style='color:red'>Fail,<span style='color:red'>Fail,<span style='color:green'>Lift,<span style='color:green'>Lift,<span style='color:green'>Lift,<span style='color:green'>Lift,<span style='color:red'>Fail,<span style='color:green'>Lift,<span style='color:green'>Lift,<span style='color:green'>Lift,<span style='color:green'>Lift,<span style='color:red'>Fail","<span style='color:red'>Fail,<span style='color:green'>Lift,<span style='color:green'>Lift,<span style='color:red'>Fail,<span style='color:green'>Lift,<span style='color:green'>Lift","0,0,1,1,0,0,0,0,1,0,1,0","0,0,1,1,1,1,0,1,1,1,1,0","0,1,1,0,1,1",10,20,20,"","","<p style='font-size:30px'><b> New Contest! </b></p>","null","","",NA,2,"",NA,NA,NA,NA,NA,NA,NA,NA,NA,NA,NA,NA,NA,NA,NA,NA,NA,NA,NA,NA,NA,NA,NA,NA,NA,NA,NA,NA,NA,NA,NA,NA,NA,NA,NA,NA,NA,NA,NA,"",NA,NA,NA,NA,NA,NA,NA,NA,2025-11-21 00:49:11
"12259.89999999106","https://psyc-201.github.io/xiang2023/exp/index1.html?PROLIFIC_PID=REDACTED&STUDY_ID=691f8ca61c6b4dcbb0aeb5f4&SESSION_ID=691fb533ecd251a3bf969a1e","survey-html-form",18,242463,"0.0-317.0","qsr97SOw+K4+MLPuY1fb1aBoKkPXl4L6yE9B2Ow6jaUi2+K9Rfbyzkp752z3yGwFh9saQBj6nhZ93pXGkR0wTn0Bb7Y9RqmhVWsXM4NACJjHRQ50ZeBn5Xf/1HUyx+RhZJfnZx4wpbLFsvqxSO1qQ+00Xg/IPO6eWWmI+rK55LRQuJPjb1cgOhKNoTNus6TpNQcQaJ2NeY9Odpiy1i/KjALqfR+4B+7ES0OIYI+rBzpeQxn+Bp2FOU4/IjOLRosVC/I9PqEJCrHiuPH1oqiYubNvjfz1iIlgD+lcFn0t17asYdrN684pw5FBAs4egNcnzhhWRf4pMdTuu2u5c1HtPQ==","691f8ca61c6b4dcbb0aeb5f4","691fb533ecd251a3bf969a1e","index1","<span style='color:red'>Fail,<span style='color:red'>Fail,<span style='color:green'>Lift,<span style='color:green'>Lift,<span style='color:red'>Fail,<span style='color:red'>Fail,<span style='color:red'>Fail,<span style='color:red'>Fail,<span style='color:green'>Lift,<span style='color:red'>Fail,<span style='color:green'>Lift,<span style='color:red'>Fail","<span style='color:red'>Fail,<span style='color:red'>Fail,<span style='color:green'>Lift,<span style='color:green'>Lift,<span style='color:green'>Lift,<span style='color:green'>Lift,<span style='color:red'>Fail,<span style='color:green'>Lift,<span style='color:green'>Lift,<span style='color:green'>Lift,<span style='color:green'>Lift,<span style='color:red'>Fail","<span style='color:red'>Fail,<span style='color:green'>Lift,<span style='color:green'>Lift,<span style='color:red'>Fail,<span style='color:green'>Lift,<span style='color:green'>Lift","0,0,1,1,0,0,0,0,1,0,1,0","0,0,1,1,1,1,0,1,1,1,1,0","0,1,1,0,1,1",10,20,20,"","","","","{""box1"":""8"",""box2"":""3"",""box3"":""90""}","",NA,2,"round1_outcome",1,2,1,8,3,90,NA,1,0,10,8,3,90,NA,1,0,10,NA,NA,NA,NA,NA,NA,NA,NA,NA,NA,NA,NA,NA,NA,NA,NA,NA,NA,NA,NA,NA,NA,"",NA,NA,NA,NA,NA,NA,NA,NA,2025-11-21 00:49:11
"8855.70000000298","https://psyc-201.github.io/xiang2023/exp/index1.html?PROLIFIC_PID=REDACTED&STUDY_ID=691f8ca61c6b4dcbb0aeb5f4&SESSION_ID=691fb533ecd251a3bf969a1e","survey-html-form",19,251320,"0.0-318.0","qsr97SOw+K4+MLPuY1fb1aBoKkPXl4L6yE9B2Ow6jaUi2+K9Rfbyzkp752z3yGwFh9saQBj6nhZ93pXGkR0wTn0Bb7Y9RqmhVWsXM4NACJjHRQ50ZeBn5Xf/1HUyx+RhZJfnZx4wpbLFsvqxSO1qQ+00Xg/IPO6eWWmI+rK55LRQuJPjb1cgOhKNoTNus6TpNQcQaJ2NeY9Odpiy1i/KjALqfR+4B+7ES0OIYI+rBzpeQxn+Bp2FOU4/IjOLRosVC/I9PqEJCrHiuPH1oqiYubNvjfz1iIlgD+lcFn0t17asYdrN684pw5FBAs4egNcnzhhWRf4pMdTuu2u5c1HtPQ==","691f8ca61c6b4dcbb0aeb5f4","691fb533ecd251a3bf969a1e","index1","<span style='color:red'>Fail,<span style='color:red'>Fail,<span style='color:green'>Lift,<span style='color:green'>Lift,<span style='color:red'>Fail,<span style='color:red'>Fail,<span style='color:red'>Fail,<span style='color:red'>Fail,<span style='color:green'>Lift,<span style='color:red'>Fail,<span style='color:green'>Lift,<span style='color:red'>Fail","<span style='color:red'>Fail,<span style='color:red'>Fail,<span style='color:green'>Lift,<span style='color:green'>Lift,<span style='color:green'>Lift,<span style='color:green'>Lift,<span style='color:red'>Fail,<span style='color:green'>Lift,<span style='color:green'>Lift,<span style='color:green'>Lift,<span style='color:green'>Lift,<span style='color:red'>Fail","<span style='color:red'>Fail,<span style='color:green'>Lift,<span style='color:green'>Lift,<span style='color:red'>Fail,<span style='color:green'>Lift,<span style='color:green'>Lift","0,0,1,1,0,0,0,0,1,0,1,0","0,0,1,1,1,1,0,1,1,1,1,0","0,1,1,0,1,1",10,20,20,"","","","","{""box1"":""95"",""box2"":""40""}","",NA,2,"round2_ready",2,2,2,NA,NA,NA,NA,NA,NA,NA,NA,NA,NA,NA,NA,NA,NA,95,40,95,40,NA,NA,NA,NA,NA,NA,NA,NA,NA,NA,NA,NA,NA,NA,NA,NA,NA,NA,"",NA,NA,NA,NA,NA,NA,NA,NA,2025-11-21 00:49:11
"17112.09999999404","https://psyc-201.github.io/xiang2023/exp/index1.html?PROLIFIC_PID=REDACTED&STUDY_ID=691f8ca61c6b4dcbb0aeb5f4&SESSION_ID=691fb533ecd251a3bf969a1e","survey-html-form",20,268434,"0.0-319.0","qsr97SOw+K4+MLPuY1fb1aBoKkPXl4L6yE9B2Ow6jaUi2+K9Rfbyzkp752z3yGwFh9saQBj6nhZ93pXGkR0wTn0Bb7Y9RqmhVWsXM4NACJjHRQ50ZeBn5Xf/1HUyx+RhZJfnZx4wpbLFsvqxSO1qQ+00Xg/IPO6eWWmI+rK55LRQuJPjb1cgOhKNoTNus6TpNQcQaJ2NeY9Odpiy1i/KjALqfR+4B+7ES0OIYI+rBzpeQxn+Bp2FOU4/IjOLRosVC/I9PqEJCrHiuPH1oqiYubNvjfz1iIlgD+lcFn0t17asYdrN684pw5FBAs4egNcnzhhWRf4pMdTuu2u5c1HtPQ==","691f8ca61c6b4dcbb0aeb5f4","691fb533ecd251a3bf969a1e","index1","<span style='color:red'>Fail,<span style='color:red'>Fail,<span style='color:green'>Lift,<span style='color:green'>Lift,<span style='color:red'>Fail,<span style='color:red'>Fail,<span style='color:red'>Fail,<span style='color:red'>Fail,<span style='color:green'>Lift,<span style='color:red'>Fail,<span style='color:green'>Lift,<span style='color:red'>Fail","<span style='color:red'>Fail,<span style='color:red'>Fail,<span style='color:green'>Lift,<span style='color:green'>Lift,<span style='color:green'>Lift,<span style='color:green'>Lift,<span style='color:red'>Fail,<span style='color:green'>Lift,<span style='color:green'>Lift,<span style='color:green'>Lift,<span style='color:green'>Lift,<span style='color:red'>Fail","<span style='color:red'>Fail,<span style='color:green'>Lift,<span style='color:green'>Lift,<span style='color:red'>Fail,<span style='color:green'>Lift,<span style='color:green'>Lift","0,0,1,1,0,0,0,0,1,0,1,0","0,0,1,1,1,1,0,1,1,1,1,0","0,1,1,0,1,1",10,20,20,"","","","","{""box1"":""8"",""box2"":""3"",""box3"":""100""}","",NA,2,"round2_outcome",3,2,2,8,3,100,NA,1,0,20,NA,NA,NA,NA,NA,NA,NA,NA,NA,NA,NA,8,3,100,NA,1,0,20,NA,NA,NA,NA,NA,NA,NA,NA,NA,NA,NA,"",NA,NA,NA,NA,NA,NA,NA,NA,2025-11-21 00:49:11
"3230.2000000029802","https://psyc-201.github.io/xiang2023/exp/index1.html?PROLIFIC_PID=REDACTED&STUDY_ID=691f8ca61c6b4dcbb0aeb5f4&SESSION_ID=691fb533ecd251a3bf969a1e","survey-html-form",21,271665,"0.0-320.0","qsr97SOw+K4+MLPuY1fb1aBoKkPXl4L6yE9B2Ow6jaUi2+K9Rfbyzkp752z3yGwFh9saQBj6nhZ93pXGkR0wTn0Bb7Y9RqmhVWsXM4NACJjHRQ50ZeBn5Xf/1HUyx+RhZJfnZx4wpbLFsvqxSO1qQ+00Xg/IPO6eWWmI+rK55LRQuJPjb1cgOhKNoTNus6TpNQcQaJ2NeY9Odpiy1i/KjALqfR+4B+7ES0OIYI+rBzpeQxn+Bp2FOU4/IjOLRosVC/I9PqEJCrHiuPH1oqiYubNvjfz1iIlgD+lcFn0t17asYdrN684pw5FBAs4egNcnzhhWRf4pMdTuu2u5c1HtPQ==","691f8ca61c6b4dcbb0aeb5f4","691fb533ecd251a3bf969a1e","index1","<span style='color:red'>Fail,<span style='color:red'>Fail,<span style='color:green'>Lift,<span style='color:green'>Lift,<span style='color:red'>Fail,<span style='color:red'>Fail,<span style='color:red'>Fail,<span style='color:red'>Fail,<span style='color:green'>Lift,<span style='color:red'>Fail,<span style='color:green'>Lift,<span style='color:red'>Fail","<span style='color:red'>Fail,<span style='color:red'>Fail,<span style='color:green'>Lift,<span style='color:green'>Lift,<span style='color:green'>Lift,<span style='color:green'>Lift,<span style='color:red'>Fail,<span style='color:green'>Lift,<span style='color:green'>Lift,<span style='color:green'>Lift,<span style='color:green'>Lift,<span style='color:red'>Fail","<span style='color:red'>Fail,<span style='color:green'>Lift,<span style='color:green'>Lift,<span style='color:red'>Fail,<span style='color:green'>Lift,<span style='color:green'>Lift","0,0,1,1,0,0,0,0,1,0,1,0","0,0,1,1,1,1,0,1,1,1,1,0","0,1,1,0,1,1",10,20,20,"","","","","{""box1"":""100""}","",NA,2,"round3_ready",4,2,3,NA,NA,NA,NA,NA,NA,NA,NA,NA,NA,NA,NA,NA,NA,100,100,NA,NA,NA,NA,NA,NA,NA,NA,NA,100,100,NA,NA,NA,NA,NA,NA,NA,NA,NA,"",NA,NA,NA,NA,NA,NA,NA,NA,2025-11-21 00:49:11
"7643.100000008941","https://psyc-201.github.io/xiang2023/exp/index1.html?PROLIFIC_PID=REDACTED&STUDY_ID=691f8ca61c6b4dcbb0aeb5f4&SESSION_ID=691fb533ecd251a3bf969a1e","survey-html-form",22,279309,"0.0-321.0-0.0","qsr97SOw+K4+MLPuY1fb1aBoKkPXl4L6yE9B2Ow6jaUi2+K9Rfbyzkp752z3yGwFh9saQBj6nhZ93pXGkR0wTn0Bb7Y9RqmhVWsXM4NACJjHRQ50ZeBn5Xf/1HUyx+RhZJfnZx4wpbLFsvqxSO1qQ+00Xg/IPO6eWWmI+rK55LRQuJPjb1cgOhKNoTNus6TpNQcQaJ2NeY9Odpiy1i/KjALqfR+4B+7ES0OIYI+rBzpeQxn+Bp2FOU4/IjOLRosVC/I9PqEJCrHiuPH1oqiYubNvjfz1iIlgD+lcFn0t17asYdrN684pw5FBAs4egNcnzhhWRf4pMdTuu2u5c1HtPQ==","691f8ca61c6b4dcbb0aeb5f4","691fb533ecd251a3bf969a1e","index1","<span style='color:red'>Fail,<span style='color:red'>Fail,<span style='color:green'>Lift,<span style='color:green'>Lift,<span style='color:red'>Fail,<span style='color:red'>Fail,<span style='color:red'>Fail,<span style='color:red'>Fail,<span style='color:green'>Lift,<span style='color:red'>Fail,<span style='color:green'>Lift,<span style='color:red'>Fail","<span style='color:red'>Fail,<span style='color:red'>Fail,<span style='color:green'>Lift,<span style='color:green'>Lift,<span style='color:green'>Lift,<span style='color:green'>Lift,<span style='color:red'>Fail,<span style='color:green'>Lift,<span style='color:green'>Lift,<span style='color:green'>Lift,<span style='color:green'>Lift,<span style='color:red'>Fail","<span style='color:red'>Fail,<span style='color:green'>Lift,<span style='color:green'>Lift,<span style='color:red'>Fail,<span style='color:green'>Lift,<span style='color:green'>Lift","0,0,1,1,0,0,0,0,1,0,1,0","0,0,1,1,1,1,0,1,1,1,1,0","0,1,1,0,1,1",10,20,20,"","","","","{""box1"":""8"",""box2"":""3"",""box3"":""80"",""box4"":""100""}","",NA,3,"round3_lift",5,2,3,8,3,80,100,1,1,20,NA,NA,NA,NA,NA,NA,NA,NA,NA,NA,NA,NA,NA,NA,NA,NA,NA,NA,NA,NA,8,3,80,100,1,1,20,NA,NA,"",NA,NA,NA,NA,NA,NA,NA,NA,2025-11-21 00:49:11
"null","https://psyc-201.github.io/xiang2023/exp/index1.html?PROLIFIC_PID=REDACTED&STUDY_ID=691f8ca61c6b4dcbb0aeb5f4&SESSION_ID=691fb533ecd251a3bf969a1e","html-keyboard-response",23,282319,"0.0-325.0","qsr97SOw+K4+MLPuY1fb1aBoKkPXl4L6yE9B2Ow6jaUi2+K9Rfbyzkp752z3yGwFh9saQBj6nhZ93pXGkR0wTn0Bb7Y9RqmhVWsXM4NACJjHRQ50ZeBn5Xf/1HUyx+RhZJfnZx4wpbLFsvqxSO1qQ+00Xg/IPO6eWWmI+rK55LRQuJPjb1cgOhKNoTNus6TpNQcQaJ2NeY9Odpiy1i/KjALqfR+4B+7ES0OIYI+rBzpeQxn+Bp2FOU4/IjOLRosVC/I9PqEJCrHiuPH1oqiYubNvjfz1iIlgD+lcFn0t17asYdrN684pw5FBAs4egNcnzhhWRf4pMdTuu2u5c1HtPQ==","691f8ca61c6b4dcbb0aeb5f4","691fb533ecd251a3bf969a1e","index1","<span style='color:red'>Fail,<span style='color:red'>Fail,<span style='color:green'>Lift,<span style='color:green'>Lift,<span style='color:red'>Fail,<span style='color:red'>Fail,<span style='color:red'>Fail,<span style='color:red'>Fail,<span style='color:green'>Lift,<span style='color:red'>Fail,<span style='color:green'>Lift,<span style='color:red'>Fail","<span style='color:red'>Fail,<span style='color:red'>Fail,<span style='color:green'>Lift,<span style='color:green'>Lift,<span style='color:green'>Lift,<span style='color:green'>Lift,<span style='color:red'>Fail,<span style='color:green'>Lift,<span style='color:green'>Lift,<span style='color:green'>Lift,<span style='color:green'>Lift,<span style='color:red'>Fail","<span style='color:red'>Fail,<span style='color:green'>Lift,<span style='color:green'>Lift,<span style='color:red'>Fail,<span style='color:green'>Lift,<span style='color:green'>Lift","0,0,1,1,0,0,0,0,1,0,1,0","0,0,1,1,1,1,0,1,1,1,1,0","0,1,1,0,1,1",10,20,20,"","","<p style='font-size:30px'><b> New Contest! </b></p>","null","","",NA,3,"",NA,NA,NA,NA,NA,NA,NA,NA,NA,NA,NA,NA,NA,NA,NA,NA,NA,NA,NA,NA,NA,NA,NA,NA,NA,NA,NA,NA,NA,NA,NA,NA,NA,NA,NA,NA,NA,NA,NA,"",NA,NA,NA,NA,NA,NA,NA,NA,2025-11-21 00:49:11
"5156","https://psyc-201.github.io/xiang2023/exp/index1.html?PROLIFIC_PID=REDACTED&STUDY_ID=691f8ca61c6b4dcbb0aeb5f4&SESSION_ID=691fb533ecd251a3bf969a1e","survey-html-form",24,287476,"0.0-326.0","qsr97SOw+K4+MLPuY1fb1aBoKkPXl4L6yE9B2Ow6jaUi2+K9Rfbyzkp752z3yGwFh9saQBj6nhZ93pXGkR0wTn0Bb7Y9RqmhVWsXM4NACJjHRQ50ZeBn5Xf/1HUyx+RhZJfnZx4wpbLFsvqxSO1qQ+00Xg/IPO6eWWmI+rK55LRQuJPjb1cgOhKNoTNus6TpNQcQaJ2NeY9Odpiy1i/KjALqfR+4B+7ES0OIYI+rBzpeQxn+Bp2FOU4/IjOLRosVC/I9PqEJCrHiuPH1oqiYubNvjfz1iIlgD+lcFn0t17asYdrN684pw5FBAs4egNcnzhhWRf4pMdTuu2u5c1HtPQ==","691f8ca61c6b4dcbb0aeb5f4","691fb533ecd251a3bf969a1e","index1","<span style='color:red'>Fail,<span style='color:red'>Fail,<span style='color:green'>Lift,<span style='color:green'>Lift,<span style='color:red'>Fail,<span style='color:red'>Fail,<span style='color:red'>Fail,<span style='color:red'>Fail,<span style='color:green'>Lift,<span style='color:red'>Fail,<span style='color:green'>Lift,<span style='color:red'>Fail","<span style='color:red'>Fail,<span style='color:red'>Fail,<span style='color:green'>Lift,<span style='color:green'>Lift,<span style='color:green'>Lift,<span style='color:green'>Lift,<span style='color:red'>Fail,<span style='color:green'>Lift,<span style='color:green'>Lift,<span style='color:green'>Lift,<span style='color:green'>Lift,<span style='color:red'>Fail","<span style='color:red'>Fail,<span style='color:green'>Lift,<span style='color:green'>Lift,<span style='color:red'>Fail,<span style='color:green'>Lift,<span style='color:green'>Lift","0,0,1,1,0,0,0,0,1,0,1,0","0,0,1,1,1,1,0,1,1,1,1,0","0,1,1,0,1,1",10,20,20,"","","","","{""box1"":""3"",""box2"":""3""}","",NA,3,"round1_outcome",1,3,1,3,3,NA,NA,0,0,10,3,3,NA,NA,0,0,10,NA,NA,NA,NA,NA,NA,NA,NA,NA,NA,NA,NA,NA,NA,NA,NA,NA,NA,NA,NA,NA,NA,"",NA,NA,NA,NA,NA,NA,NA,NA,2025-11-21 00:49:11
"5019.4000000059605","https://psyc-201.github.io/xiang2023/exp/index1.html?PROLIFIC_PID=REDACTED&STUDY_ID=691f8ca61c6b4dcbb0aeb5f4&SESSION_ID=691fb533ecd251a3bf969a1e","survey-html-form",25,292497,"0.0-327.0","qsr97SOw+K4+MLPuY1fb1aBoKkPXl4L6yE9B2Ow6jaUi2+K9Rfbyzkp752z3yGwFh9saQBj6nhZ93pXGkR0wTn0Bb7Y9RqmhVWsXM4NACJjHRQ50ZeBn5Xf/1HUyx+RhZJfnZx4wpbLFsvqxSO1qQ+00Xg/IPO6eWWmI+rK55LRQuJPjb1cgOhKNoTNus6TpNQcQaJ2NeY9Odpiy1i/KjALqfR+4B+7ES0OIYI+rBzpeQxn+Bp2FOU4/IjOLRosVC/I9PqEJCrHiuPH1oqiYubNvjfz1iIlgD+lcFn0t17asYdrN684pw5FBAs4egNcnzhhWRf4pMdTuu2u5c1HtPQ==","691f8ca61c6b4dcbb0aeb5f4","691fb533ecd251a3bf969a1e","index1","<span style='color:red'>Fail,<span style='color:red'>Fail,<span style='color:green'>Lift,<span style='color:green'>Lift,<span style='color:red'>Fail,<span style='color:red'>Fail,<span style='color:red'>Fail,<span style='color:red'>Fail,<span style='color:green'>Lift,<span style='color:red'>Fail,<span style='color:green'>Lift,<span style='color:red'>Fail","<span style='color:red'>Fail,<span style='color:red'>Fail,<span style='color:green'>Lift,<span style='color:green'>Lift,<span style='color:green'>Lift,<span style='color:green'>Lift,<span style='color:red'>Fail,<span style='color:green'>Lift,<span style='color:green'>Lift,<span style='color:green'>Lift,<span style='color:green'>Lift,<span style='color:red'>Fail","<span style='color:red'>Fail,<span style='color:green'>Lift,<span style='color:green'>Lift,<span style='color:red'>Fail,<span style='color:green'>Lift,<span style='color:green'>Lift","0,0,1,1,0,0,0,0,1,0,1,0","0,0,1,1,1,1,0,1,1,1,1,0","0,1,1,0,1,1",10,20,20,"","","","","{""box1"":""25"",""box2"":""25""}","",NA,3,"round2_ready",2,3,2,NA,NA,NA,NA,NA,NA,NA,NA,NA,NA,NA,NA,NA,NA,25,25,25,25,NA,NA,NA,NA,NA,NA,NA,NA,NA,NA,NA,NA,NA,NA,NA,NA,NA,NA,"",NA,NA,NA,NA,NA,NA,NA,NA,2025-11-21 00:49:11
"9529.70000000298","https://psyc-201.github.io/xiang2023/exp/index1.html?PROLIFIC_PID=REDACTED&STUDY_ID=691f8ca61c6b4dcbb0aeb5f4&SESSION_ID=691fb533ecd251a3bf969a1e","survey-html-form",26,302028,"0.0-328.0","qsr97SOw+K4+MLPuY1fb1aBoKkPXl4L6yE9B2Ow6jaUi2+K9Rfbyzkp752z3yGwFh9saQBj6nhZ93pXGkR0wTn0Bb7Y9RqmhVWsXM4NACJjHRQ50ZeBn5Xf/1HUyx+RhZJfnZx4wpbLFsvqxSO1qQ+00Xg/IPO6eWWmI+rK55LRQuJPjb1cgOhKNoTNus6TpNQcQaJ2NeY9Odpiy1i/KjALqfR+4B+7ES0OIYI+rBzpeQxn+Bp2FOU4/IjOLRosVC/I9PqEJCrHiuPH1oqiYubNvjfz1iIlgD+lcFn0t17asYdrN684pw5FBAs4egNcnzhhWRf4pMdTuu2u5c1HtPQ==","691f8ca61c6b4dcbb0aeb5f4","691fb533ecd251a3bf969a1e","index1","<span style='color:red'>Fail,<span style='color:red'>Fail,<span style='color:green'>Lift,<span style='color:green'>Lift,<span style='color:red'>Fail,<span style='color:red'>Fail,<span style='color:red'>Fail,<span style='color:red'>Fail,<span style='color:green'>Lift,<span style='color:red'>Fail,<span style='color:green'>Lift,<span style='color:red'>Fail","<span style='color:red'>Fail,<span style='color:red'>Fail,<span style='color:green'>Lift,<span style='color:green'>Lift,<span style='color:green'>Lift,<span style='color:green'>Lift,<span style='color:red'>Fail,<span style='color:green'>Lift,<span style='color:green'>Lift,<span style='color:green'>Lift,<span style='color:green'>Lift,<span style='color:red'>Fail","<span style='color:red'>Fail,<span style='color:green'>Lift,<span style='color:green'>Lift,<span style='color:red'>Fail,<span style='color:green'>Lift,<span style='color:green'>Lift","0,0,1,1,0,0,0,0,1,0,1,0","0,0,1,1,1,1,0,1,1,1,1,0","0,1,1,0,1,1",10,20,20,"","","","","{""box1"":""3"",""box2"":""6"",""box4"":""100""}","",NA,3,"round2_outcome",3,3,2,3,6,NA,100,0,1,20,NA,NA,NA,NA,NA,NA,NA,NA,NA,NA,NA,3,6,NA,100,0,1,20,NA,NA,NA,NA,NA,NA,NA,NA,NA,NA,NA,"",NA,NA,NA,NA,NA,NA,NA,NA,2025-11-21 00:49:11
"3762.5","https://psyc-201.github.io/xiang2023/exp/index1.html?PROLIFIC_PID=REDACTED&STUDY_ID=691f8ca61c6b4dcbb0aeb5f4&SESSION_ID=691fb533ecd251a3bf969a1e","survey-html-form",27,305791,"0.0-329.0","qsr97SOw+K4+MLPuY1fb1aBoKkPXl4L6yE9B2Ow6jaUi2+K9Rfbyzkp752z3yGwFh9saQBj6nhZ93pXGkR0wTn0Bb7Y9RqmhVWsXM4NACJjHRQ50ZeBn5Xf/1HUyx+RhZJfnZx4wpbLFsvqxSO1qQ+00Xg/IPO6eWWmI+rK55LRQuJPjb1cgOhKNoTNus6TpNQcQaJ2NeY9Odpiy1i/KjALqfR+4B+7ES0OIYI+rBzpeQxn+Bp2FOU4/IjOLRosVC/I9PqEJCrHiuPH1oqiYubNvjfz1iIlgD+lcFn0t17asYdrN684pw5FBAs4egNcnzhhWRf4pMdTuu2u5c1HtPQ==","691f8ca61c6b4dcbb0aeb5f4","691fb533ecd251a3bf969a1e","index1","<span style='color:red'>Fail,<span style='color:red'>Fail,<span style='color:green'>Lift,<span style='color:green'>Lift,<span style='color:red'>Fail,<span style='color:red'>Fail,<span style='color:red'>Fail,<span style='color:red'>Fail,<span style='color:green'>Lift,<span style='color:red'>Fail,<span style='color:green'>Lift,<span style='color:red'>Fail","<span style='color:red'>Fail,<span style='color:red'>Fail,<span style='color:green'>Lift,<span style='color:green'>Lift,<span style='color:green'>Lift,<span style='color:green'>Lift,<span style='color:red'>Fail,<span style='color:green'>Lift,<span style='color:green'>Lift,<span style='color:green'>Lift,<span style='color:green'>Lift,<span style='color:red'>Fail","<span style='color:red'>Fail,<span style='color:green'>Lift,<span style='color:green'>Lift,<span style='color:red'>Fail,<span style='color:green'>Lift,<span style='color:green'>Lift","0,0,1,1,0,0,0,0,1,0,1,0","0,0,1,1,1,1,0,1,1,1,1,0","0,1,1,0,1,1",10,20,20,"","","","","{""box1"":""95""}","",NA,3,"round3_ready",4,3,3,NA,NA,NA,NA,NA,NA,NA,NA,NA,NA,NA,NA,NA,NA,95,95,NA,NA,NA,NA,NA,NA,NA,NA,NA,95,95,NA,NA,NA,NA,NA,NA,NA,NA,NA,"",NA,NA,NA,NA,NA,NA,NA,NA,2025-11-21 00:49:11
"10559.199999988079","https://psyc-201.github.io/xiang2023/exp/index1.html?PROLIFIC_PID=REDACTED&STUDY_ID=691f8ca61c6b4dcbb0aeb5f4&SESSION_ID=691fb533ecd251a3bf969a1e","survey-html-form",28,316352,"0.0-331.0-0.0","qsr97SOw+K4+MLPuY1fb1aBoKkPXl4L6yE9B2Ow6jaUi2+K9Rfbyzkp752z3yGwFh9saQBj6nhZ93pXGkR0wTn0Bb7Y9RqmhVWsXM4NACJjHRQ50ZeBn5Xf/1HUyx+RhZJfnZx4wpbLFsvqxSO1qQ+00Xg/IPO6eWWmI+rK55LRQuJPjb1cgOhKNoTNus6TpNQcQaJ2NeY9Odpiy1i/KjALqfR+4B+7ES0OIYI+rBzpeQxn+Bp2FOU4/IjOLRosVC/I9PqEJCrHiuPH1oqiYubNvjfz1iIlgD+lcFn0t17asYdrN684pw5FBAs4egNcnzhhWRf4pMdTuu2u5c1HtPQ==","691f8ca61c6b4dcbb0aeb5f4","691fb533ecd251a3bf969a1e","index1","<span style='color:red'>Fail,<span style='color:red'>Fail,<span style='color:green'>Lift,<span style='color:green'>Lift,<span style='color:red'>Fail,<span style='color:red'>Fail,<span style='color:red'>Fail,<span style='color:red'>Fail,<span style='color:green'>Lift,<span style='color:red'>Fail,<span style='color:green'>Lift,<span style='color:red'>Fail","<span style='color:red'>Fail,<span style='color:red'>Fail,<span style='color:green'>Lift,<span style='color:green'>Lift,<span style='color:green'>Lift,<span style='color:green'>Lift,<span style='color:red'>Fail,<span style='color:green'>Lift,<span style='color:green'>Lift,<span style='color:green'>Lift,<span style='color:green'>Lift,<span style='color:red'>Fail","<span style='color:red'>Fail,<span style='color:green'>Lift,<span style='color:green'>Lift,<span style='color:red'>Fail,<span style='color:green'>Lift,<span style='color:green'>Lift","0,0,1,1,0,0,0,0,1,0,1,0","0,0,1,1,1,1,0,1,1,1,1,0","0,1,1,0,1,1",10,20,20,"","","","","{""box1"":""1"",""box2"":""5"",""box3"":""999"",""box4"":""999""}","",NA,4,"round3_fail",5,3,3,1,5,NA,NA,0,0,20,NA,NA,NA,NA,NA,NA,NA,NA,NA,NA,NA,NA,NA,NA,NA,NA,NA,NA,NA,NA,1,5,NA,NA,0,0,20,1,1,"",NA,NA,NA,NA,NA,NA,NA,NA,2025-11-21 00:49:11
"null","https://psyc-201.github.io/xiang2023/exp/index1.html?PROLIFIC_PID=REDACTED&STUDY_ID=691f8ca61c6b4dcbb0aeb5f4&SESSION_ID=691fb533ecd251a3bf969a1e","html-keyboard-response",29,319354,"0.0-334.0","qsr97SOw+K4+MLPuY1fb1aBoKkPXl4L6yE9B2Ow6jaUi2+K9Rfbyzkp752z3yGwFh9saQBj6nhZ93pXGkR0wTn0Bb7Y9RqmhVWsXM4NACJjHRQ50ZeBn5Xf/1HUyx+RhZJfnZx4wpbLFsvqxSO1qQ+00Xg/IPO6eWWmI+rK55LRQuJPjb1cgOhKNoTNus6TpNQcQaJ2NeY9Odpiy1i/KjALqfR+4B+7ES0OIYI+rBzpeQxn+Bp2FOU4/IjOLRosVC/I9PqEJCrHiuPH1oqiYubNvjfz1iIlgD+lcFn0t17asYdrN684pw5FBAs4egNcnzhhWRf4pMdTuu2u5c1HtPQ==","691f8ca61c6b4dcbb0aeb5f4","691fb533ecd251a3bf969a1e","index1","<span style='color:red'>Fail,<span style='color:red'>Fail,<span style='color:green'>Lift,<span style='color:green'>Lift,<span style='color:red'>Fail,<span style='color:red'>Fail,<span style='color:red'>Fail,<span style='color:red'>Fail,<span style='color:green'>Lift,<span style='color:red'>Fail,<span style='color:green'>Lift,<span style='color:red'>Fail","<span style='color:red'>Fail,<span style='color:red'>Fail,<span style='color:green'>Lift,<span style='color:green'>Lift,<span style='color:green'>Lift,<span style='color:green'>Lift,<span style='color:red'>Fail,<span style='color:green'>Lift,<span style='color:green'>Lift,<span style='color:green'>Lift,<span style='color:green'>Lift,<span style='color:red'>Fail","<span style='color:red'>Fail,<span style='color:green'>Lift,<span style='color:green'>Lift,<span style='color:red'>Fail,<span style='color:green'>Lift,<span style='color:green'>Lift","0,0,1,1,0,0,0,0,1,0,1,0","0,0,1,1,1,1,0,1,1,1,1,0","0,1,1,0,1,1",10,20,20,"","","<p style='font-size:30px'><b> New Contest! </b></p>","null","","",NA,4,"",NA,NA,NA,NA,NA,NA,NA,NA,NA,NA,NA,NA,NA,NA,NA,NA,NA,NA,NA,NA,NA,NA,NA,NA,NA,NA,NA,NA,NA,NA,NA,NA,NA,NA,NA,NA,NA,NA,NA,"",NA,NA,NA,NA,NA,NA,NA,NA,2025-11-21 00:49:11
"6707.79999999702","https://psyc-201.github.io/xiang2023/exp/index1.html?PROLIFIC_PID=REDACTED&STUDY_ID=691f8ca61c6b4dcbb0aeb5f4&SESSION_ID=691fb533ecd251a3bf969a1e","survey-html-form",30,326063,"0.0-335.0","qsr97SOw+K4+MLPuY1fb1aBoKkPXl4L6yE9B2Ow6jaUi2+K9Rfbyzkp752z3yGwFh9saQBj6nhZ93pXGkR0wTn0Bb7Y9RqmhVWsXM4NACJjHRQ50ZeBn5Xf/1HUyx+RhZJfnZx4wpbLFsvqxSO1qQ+00Xg/IPO6eWWmI+rK55LRQuJPjb1cgOhKNoTNus6TpNQcQaJ2NeY9Odpiy1i/KjALqfR+4B+7ES0OIYI+rBzpeQxn+Bp2FOU4/IjOLRosVC/I9PqEJCrHiuPH1oqiYubNvjfz1iIlgD+lcFn0t17asYdrN684pw5FBAs4egNcnzhhWRf4pMdTuu2u5c1HtPQ==","691f8ca61c6b4dcbb0aeb5f4","691fb533ecd251a3bf969a1e","index1","<span style='color:red'>Fail,<span style='color:red'>Fail,<span style='color:green'>Lift,<span style='color:green'>Lift,<span style='color:red'>Fail,<span style='color:red'>Fail,<span style='color:red'>Fail,<span style='color:red'>Fail,<span style='color:green'>Lift,<span style='color:red'>Fail,<span style='color:green'>Lift,<span style='color:red'>Fail","<span style='color:red'>Fail,<span style='color:red'>Fail,<span style='color:green'>Lift,<span style='color:green'>Lift,<span style='color:green'>Lift,<span style='color:green'>Lift,<span style='color:red'>Fail,<span style='color:green'>Lift,<span style='color:green'>Lift,<span style='color:green'>Lift,<span style='color:green'>Lift,<span style='color:red'>Fail","<span style='color:red'>Fail,<span style='color:green'>Lift,<span style='color:green'>Lift,<span style='color:red'>Fail,<span style='color:green'>Lift,<span style='color:green'>Lift","0,0,1,1,0,0,0,0,1,0,1,0","0,0,1,1,1,1,0,1,1,1,1,0","0,1,1,0,1,1",10,20,20,"","","","","{""box1"":""8"",""box2"":""8"",""box3"":""90"",""box4"":""90""}","",NA,4,"round1_outcome",1,4,1,8,8,90,90,1,1,10,8,8,90,90,1,1,10,NA,NA,NA,NA,NA,NA,NA,NA,NA,NA,NA,NA,NA,NA,NA,NA,NA,NA,NA,NA,NA,NA,"",NA,NA,NA,NA,NA,NA,NA,NA,2025-11-21 00:49:11
"5012.399999991059","https://psyc-201.github.io/xiang2023/exp/index1.html?PROLIFIC_PID=REDACTED&STUDY_ID=691f8ca61c6b4dcbb0aeb5f4&SESSION_ID=691fb533ecd251a3bf969a1e","survey-html-form",31,331077,"0.0-336.0","qsr97SOw+K4+MLPuY1fb1aBoKkPXl4L6yE9B2Ow6jaUi2+K9Rfbyzkp752z3yGwFh9saQBj6nhZ93pXGkR0wTn0Bb7Y9RqmhVWsXM4NACJjHRQ50ZeBn5Xf/1HUyx+RhZJfnZx4wpbLFsvqxSO1qQ+00Xg/IPO6eWWmI+rK55LRQuJPjb1cgOhKNoTNus6TpNQcQaJ2NeY9Odpiy1i/KjALqfR+4B+7ES0OIYI+rBzpeQxn+Bp2FOU4/IjOLRosVC/I9PqEJCrHiuPH1oqiYubNvjfz1iIlgD+lcFn0t17asYdrN684pw5FBAs4egNcnzhhWRf4pMdTuu2u5c1HtPQ==","691f8ca61c6b4dcbb0aeb5f4","691fb533ecd251a3bf969a1e","index1","<span style='color:red'>Fail,<span style='color:red'>Fail,<span style='color:green'>Lift,<span style='color:green'>Lift,<span style='color:red'>Fail,<span style='color:red'>Fail,<span style='color:red'>Fail,<span style='color:red'>Fail,<span style='color:green'>Lift,<span style='color:red'>Fail,<span style='color:green'>Lift,<span style='color:red'>Fail","<span style='color:red'>Fail,<span style='color:red'>Fail,<span style='color:green'>Lift,<span style='color:green'>Lift,<span style='color:green'>Lift,<span style='color:green'>Lift,<span style='color:red'>Fail,<span style='color:green'>Lift,<span style='color:green'>Lift,<span style='color:green'>Lift,<span style='color:green'>Lift,<span style='color:red'>Fail","<span style='color:red'>Fail,<span style='color:green'>Lift,<span style='color:green'>Lift,<span style='color:red'>Fail,<span style='color:green'>Lift,<span style='color:green'>Lift","0,0,1,1,0,0,0,0,1,0,1,0","0,0,1,1,1,1,0,1,1,1,1,0","0,1,1,0,1,1",10,20,20,"","","","","{""box1"":""95"",""box2"":""95""}","",NA,4,"round2_ready",2,4,2,NA,NA,NA,NA,NA,NA,NA,NA,NA,NA,NA,NA,NA,NA,95,95,95,95,NA,NA,NA,NA,NA,NA,NA,NA,NA,NA,NA,NA,NA,NA,NA,NA,NA,NA,"",NA,NA,NA,NA,NA,NA,NA,NA,2025-11-21 00:49:11
"6902.5","https://psyc-201.github.io/xiang2023/exp/index1.html?PROLIFIC_PID=REDACTED&STUDY_ID=691f8ca61c6b4dcbb0aeb5f4&SESSION_ID=691fb533ecd251a3bf969a1e","survey-html-form",32,337981,"0.0-337.0","qsr97SOw+K4+MLPuY1fb1aBoKkPXl4L6yE9B2Ow6jaUi2+K9Rfbyzkp752z3yGwFh9saQBj6nhZ93pXGkR0wTn0Bb7Y9RqmhVWsXM4NACJjHRQ50ZeBn5Xf/1HUyx+RhZJfnZx4wpbLFsvqxSO1qQ+00Xg/IPO6eWWmI+rK55LRQuJPjb1cgOhKNoTNus6TpNQcQaJ2NeY9Odpiy1i/KjALqfR+4B+7ES0OIYI+rBzpeQxn+Bp2FOU4/IjOLRosVC/I9PqEJCrHiuPH1oqiYubNvjfz1iIlgD+lcFn0t17asYdrN684pw5FBAs4egNcnzhhWRf4pMdTuu2u5c1HtPQ==","691f8ca61c6b4dcbb0aeb5f4","691fb533ecd251a3bf969a1e","index1","<span style='color:red'>Fail,<span style='color:red'>Fail,<span style='color:green'>Lift,<span style='color:green'>Lift,<span style='color:red'>Fail,<span style='color:red'>Fail,<span style='color:red'>Fail,<span style='color:red'>Fail,<span style='color:green'>Lift,<span style='color:red'>Fail,<span style='color:green'>Lift,<span style='color:red'>Fail","<span style='color:red'>Fail,<span style='color:red'>Fail,<span style='color:green'>Lift,<span style='color:green'>Lift,<span style='color:green'>Lift,<span style='color:green'>Lift,<span style='color:red'>Fail,<span style='color:green'>Lift,<span style='color:green'>Lift,<span style='color:green'>Lift,<span style='color:green'>Lift,<span style='color:red'>Fail","<span style='color:red'>Fail,<span style='color:green'>Lift,<span style='color:green'>Lift,<span style='color:red'>Fail,<span style='color:green'>Lift,<span style='color:green'>Lift","0,0,1,1,0,0,0,0,1,0,1,0","0,0,1,1,1,1,0,1,1,1,1,0","0,1,1,0,1,1",10,20,20,"","","","","{""box1"":""9"",""box2"":""9"",""box3"":""100"",""box4"":""100""}","",NA,4,"round2_outcome",3,4,2,9,9,100,100,1,1,20,NA,NA,NA,NA,NA,NA,NA,NA,NA,NA,NA,9,9,100,100,1,1,20,NA,NA,NA,NA,NA,NA,NA,NA,NA,NA,NA,"",NA,NA,NA,NA,NA,NA,NA,NA,2025-11-21 00:49:11
"4332.29999999702","https://psyc-201.github.io/xiang2023/exp/index1.html?PROLIFIC_PID=REDACTED&STUDY_ID=691f8ca61c6b4dcbb0aeb5f4&SESSION_ID=691fb533ecd251a3bf969a1e","survey-html-form",33,342314,"0.0-338.0","qsr97SOw+K4+MLPuY1fb1aBoKkPXl4L6yE9B2Ow6jaUi2+K9Rfbyzkp752z3yGwFh9saQBj6nhZ93pXGkR0wTn0Bb7Y9RqmhVWsXM4NACJjHRQ50ZeBn5Xf/1HUyx+RhZJfnZx4wpbLFsvqxSO1qQ+00Xg/IPO6eWWmI+rK55LRQuJPjb1cgOhKNoTNus6TpNQcQaJ2NeY9Odpiy1i/KjALqfR+4B+7ES0OIYI+rBzpeQxn+Bp2FOU4/IjOLRosVC/I9PqEJCrHiuPH1oqiYubNvjfz1iIlgD+lcFn0t17asYdrN684pw5FBAs4egNcnzhhWRf4pMdTuu2u5c1HtPQ==","691f8ca61c6b4dcbb0aeb5f4","691fb533ecd251a3bf969a1e","index1","<span style='color:red'>Fail,<span style='color:red'>Fail,<span style='color:green'>Lift,<span style='color:green'>Lift,<span style='color:red'>Fail,<span style='color:red'>Fail,<span style='color:red'>Fail,<span style='color:red'>Fail,<span style='color:green'>Lift,<span style='color:red'>Fail,<span style='color:green'>Lift,<span style='color:red'>Fail","<span style='color:red'>Fail,<span style='color:red'>Fail,<span style='color:green'>Lift,<span style='color:green'>Lift,<span style='color:green'>Lift,<span style='color:green'>Lift,<span style='color:red'>Fail,<span style='color:green'>Lift,<span style='color:green'>Lift,<span style='color:green'>Lift,<span style='color:green'>Lift,<span style='color:red'>Fail","<span style='color:red'>Fail,<span style='color:green'>Lift,<span style='color:green'>Lift,<span style='color:red'>Fail,<span style='color:green'>Lift,<span style='color:green'>Lift","0,0,1,1,0,0,0,0,1,0,1,0","0,0,1,1,1,1,0,1,1,1,1,0","0,1,1,0,1,1",10,20,20,"","","","","{""box1"":""100""}","",NA,4,"round3_ready",4,4,3,NA,NA,NA,NA,NA,NA,NA,NA,NA,NA,NA,NA,NA,NA,100,100,NA,NA,NA,NA,NA,NA,NA,NA,NA,100,100,NA,NA,NA,NA,NA,NA,NA,NA,NA,"",NA,NA,NA,NA,NA,NA,NA,NA,2025-11-21 00:49:11
"7392.79999999702","https://psyc-201.github.io/xiang2023/exp/index1.html?PROLIFIC_PID=REDACTED&STUDY_ID=691f8ca61c6b4dcbb0aeb5f4&SESSION_ID=691fb533ecd251a3bf969a1e","survey-html-form",34,349708,"0.0-339.0-0.0","qsr97SOw+K4+MLPuY1fb1aBoKkPXl4L6yE9B2Ow6jaUi2+K9Rfbyzkp752z3yGwFh9saQBj6nhZ93pXGkR0wTn0Bb7Y9RqmhVWsXM4NACJjHRQ50ZeBn5Xf/1HUyx+RhZJfnZx4wpbLFsvqxSO1qQ+00Xg/IPO6eWWmI+rK55LRQuJPjb1cgOhKNoTNus6TpNQcQaJ2NeY9Odpiy1i/KjALqfR+4B+7ES0OIYI+rBzpeQxn+Bp2FOU4/IjOLRosVC/I9PqEJCrHiuPH1oqiYubNvjfz1iIlgD+lcFn0t17asYdrN684pw5FBAs4egNcnzhhWRf4pMdTuu2u5c1HtPQ==","691f8ca61c6b4dcbb0aeb5f4","691fb533ecd251a3bf969a1e","index1","<span style='color:red'>Fail,<span style='color:red'>Fail,<span style='color:green'>Lift,<span style='color:green'>Lift,<span style='color:red'>Fail,<span style='color:red'>Fail,<span style='color:red'>Fail,<span style='color:red'>Fail,<span style='color:green'>Lift,<span style='color:red'>Fail,<span style='color:green'>Lift,<span style='color:red'>Fail","<span style='color:red'>Fail,<span style='color:red'>Fail,<span style='color:green'>Lift,<span style='color:green'>Lift,<span style='color:green'>Lift,<span style='color:green'>Lift,<span style='color:red'>Fail,<span style='color:green'>Lift,<span style='color:green'>Lift,<span style='color:green'>Lift,<span style='color:green'>Lift,<span style='color:red'>Fail","<span style='color:red'>Fail,<span style='color:green'>Lift,<span style='color:green'>Lift,<span style='color:red'>Fail,<span style='color:green'>Lift,<span style='color:green'>Lift","0,0,1,1,0,0,0,0,1,0,1,0","0,0,1,1,1,1,0,1,1,1,1,0","0,1,1,0,1,1",10,20,20,"","","","","{""box1"":""8"",""box2"":""8"",""box3"":""80"",""box4"":""80""}","",NA,5,"round3_lift",5,4,3,8,8,80,80,1,1,20,NA,NA,NA,NA,NA,NA,NA,NA,NA,NA,NA,NA,NA,NA,NA,NA,NA,NA,NA,NA,8,8,80,80,1,1,20,NA,NA,"",NA,NA,NA,NA,NA,NA,NA,NA,2025-11-21 00:49:11
"null","https://psyc-201.github.io/xiang2023/exp/index1.html?PROLIFIC_PID=REDACTED&STUDY_ID=691f8ca61c6b4dcbb0aeb5f4&SESSION_ID=691fb533ecd251a3bf969a1e","html-keyboard-response",35,352712,"0.0-343.0","qsr97SOw+K4+MLPuY1fb1aBoKkPXl4L6yE9B2Ow6jaUi2+K9Rfbyzkp752z3yGwFh9saQBj6nhZ93pXGkR0wTn0Bb7Y9RqmhVWsXM4NACJjHRQ50ZeBn5Xf/1HUyx+RhZJfnZx4wpbLFsvqxSO1qQ+00Xg/IPO6eWWmI+rK55LRQuJPjb1cgOhKNoTNus6TpNQcQaJ2NeY9Odpiy1i/KjALqfR+4B+7ES0OIYI+rBzpeQxn+Bp2FOU4/IjOLRosVC/I9PqEJCrHiuPH1oqiYubNvjfz1iIlgD+lcFn0t17asYdrN684pw5FBAs4egNcnzhhWRf4pMdTuu2u5c1HtPQ==","691f8ca61c6b4dcbb0aeb5f4","691fb533ecd251a3bf969a1e","index1","<span style='color:red'>Fail,<span style='color:red'>Fail,<span style='color:green'>Lift,<span style='color:green'>Lift,<span style='color:red'>Fail,<span style='color:red'>Fail,<span style='color:red'>Fail,<span style='color:red'>Fail,<span style='color:green'>Lift,<span style='color:red'>Fail,<span style='color:green'>Lift,<span style='color:red'>Fail","<span style='color:red'>Fail,<span style='color:red'>Fail,<span style='color:green'>Lift,<span style='color:green'>Lift,<span style='color:green'>Lift,<span style='color:green'>Lift,<span style='color:red'>Fail,<span style='color:green'>Lift,<span style='color:green'>Lift,<span style='color:green'>Lift,<span style='color:green'>Lift,<span style='color:red'>Fail","<span style='color:red'>Fail,<span style='color:green'>Lift,<span style='color:green'>Lift,<span style='color:red'>Fail,<span style='color:green'>Lift,<span style='color:green'>Lift","0,0,1,1,0,0,0,0,1,0,1,0","0,0,1,1,1,1,0,1,1,1,1,0","0,1,1,0,1,1",10,20,20,"","","<p style='font-size:30px'><b> New Contest! </b></p>","null","","",NA,5,"",NA,NA,NA,NA,NA,NA,NA,NA,NA,NA,NA,NA,NA,NA,NA,NA,NA,NA,NA,NA,NA,NA,NA,NA,NA,NA,NA,NA,NA,NA,NA,NA,NA,NA,NA,NA,NA,NA,NA,"",NA,NA,NA,NA,NA,NA,NA,NA,2025-11-21 00:49:11
"4837.899999991059","https://psyc-201.github.io/xiang2023/exp/index1.html?PROLIFIC_PID=REDACTED&STUDY_ID=691f8ca61c6b4dcbb0aeb5f4&SESSION_ID=691fb533ecd251a3bf969a1e","survey-html-form",36,357551,"0.0-344.0","qsr97SOw+K4+MLPuY1fb1aBoKkPXl4L6yE9B2Ow6jaUi2+K9Rfbyzkp752z3yGwFh9saQBj6nhZ93pXGkR0wTn0Bb7Y9RqmhVWsXM4NACJjHRQ50ZeBn5Xf/1HUyx+RhZJfnZx4wpbLFsvqxSO1qQ+00Xg/IPO6eWWmI+rK55LRQuJPjb1cgOhKNoTNus6TpNQcQaJ2NeY9Odpiy1i/KjALqfR+4B+7ES0OIYI+rBzpeQxn+Bp2FOU4/IjOLRosVC/I9PqEJCrHiuPH1oqiYubNvjfz1iIlgD+lcFn0t17asYdrN684pw5FBAs4egNcnzhhWRf4pMdTuu2u5c1HtPQ==","691f8ca61c6b4dcbb0aeb5f4","691fb533ecd251a3bf969a1e","index1","<span style='color:red'>Fail,<span style='color:red'>Fail,<span style='color:green'>Lift,<span style='color:green'>Lift,<span style='color:red'>Fail,<span style='color:red'>Fail,<span style='color:red'>Fail,<span style='color:red'>Fail,<span style='color:green'>Lift,<span style='color:red'>Fail,<span style='color:green'>Lift,<span style='color:red'>Fail","<span style='color:red'>Fail,<span style='color:red'>Fail,<span style='color:green'>Lift,<span style='color:green'>Lift,<span style='color:green'>Lift,<span style='color:green'>Lift,<span style='color:red'>Fail,<span style='color:green'>Lift,<span style='color:green'>Lift,<span style='color:green'>Lift,<span style='color:green'>Lift,<span style='color:red'>Fail","<span style='color:red'>Fail,<span style='color:green'>Lift,<span style='color:green'>Lift,<span style='color:red'>Fail,<span style='color:green'>Lift,<span style='color:green'>Lift","0,0,1,1,0,0,0,0,1,0,1,0","0,0,1,1,1,1,0,1,1,1,1,0","0,1,1,0,1,1",10,20,20,"","","","","{""box1"":""3"",""box2"":""3""}","",NA,5,"round1_outcome",1,5,1,3,3,NA,NA,0,0,10,3,3,NA,NA,0,0,10,NA,NA,NA,NA,NA,NA,NA,NA,NA,NA,NA,NA,NA,NA,NA,NA,NA,NA,NA,NA,NA,NA,"",NA,NA,NA,NA,NA,NA,NA,NA,2025-11-21 00:49:11
"6878.70000000298","https://psyc-201.github.io/xiang2023/exp/index1.html?PROLIFIC_PID=REDACTED&STUDY_ID=691f8ca61c6b4dcbb0aeb5f4&SESSION_ID=691fb533ecd251a3bf969a1e","survey-html-form",37,364431,"0.0-345.0","qsr97SOw+K4+MLPuY1fb1aBoKkPXl4L6yE9B2Ow6jaUi2+K9Rfbyzkp752z3yGwFh9saQBj6nhZ93pXGkR0wTn0Bb7Y9RqmhVWsXM4NACJjHRQ50ZeBn5Xf/1HUyx+RhZJfnZx4wpbLFsvqxSO1qQ+00Xg/IPO6eWWmI+rK55LRQuJPjb1cgOhKNoTNus6TpNQcQaJ2NeY9Odpiy1i/KjALqfR+4B+7ES0OIYI+rBzpeQxn+Bp2FOU4/IjOLRosVC/I9PqEJCrHiuPH1oqiYubNvjfz1iIlgD+lcFn0t17asYdrN684pw5FBAs4egNcnzhhWRf4pMdTuu2u5c1HtPQ==","691f8ca61c6b4dcbb0aeb5f4","691fb533ecd251a3bf969a1e","index1","<span style='color:red'>Fail,<span style='color:red'>Fail,<span style='color:green'>Lift,<span style='color:green'>Lift,<span style='color:red'>Fail,<span style='color:red'>Fail,<span style='color:red'>Fail,<span style='color:red'>Fail,<span style='color:green'>Lift,<span style='color:red'>Fail,<span style='color:green'>Lift,<span style='color:red'>Fail","<span style='color:red'>Fail,<span style='color:red'>Fail,<span style='color:green'>Lift,<span style='color:green'>Lift,<span style='color:green'>Lift,<span style='color:green'>Lift,<span style='color:red'>Fail,<span style='color:green'>Lift,<span style='color:green'>Lift,<span style='color:green'>Lift,<span style='color:green'>Lift,<span style='color:red'>Fail","<span style='color:red'>Fail,<span style='color:green'>Lift,<span style='color:green'>Lift,<span style='color:red'>Fail,<span style='color:green'>Lift,<span style='color:green'>Lift","0,0,1,1,0,0,0,0,1,0,1,0","0,0,1,1,1,1,0,1,1,1,1,0","0,1,1,0,1,1",10,20,20,"","","","","{""box1"":""60"",""box2"":""60""}","",NA,5,"round2_ready",2,5,2,NA,NA,NA,NA,NA,NA,NA,NA,NA,NA,NA,NA,NA,NA,60,60,60,60,NA,NA,NA,NA,NA,NA,NA,NA,NA,NA,NA,NA,NA,NA,NA,NA,NA,NA,"",NA,NA,NA,NA,NA,NA,NA,NA,2025-11-21 00:49:11
"4140.5999999940395","https://psyc-201.github.io/xiang2023/exp/index1.html?PROLIFIC_PID=REDACTED&STUDY_ID=691f8ca61c6b4dcbb0aeb5f4&SESSION_ID=691fb533ecd251a3bf969a1e","survey-html-form",38,368573,"0.0-346.0","qsr97SOw+K4+MLPuY1fb1aBoKkPXl4L6yE9B2Ow6jaUi2+K9Rfbyzkp752z3yGwFh9saQBj6nhZ93pXGkR0wTn0Bb7Y9RqmhVWsXM4NACJjHRQ50ZeBn5Xf/1HUyx+RhZJfnZx4wpbLFsvqxSO1qQ+00Xg/IPO6eWWmI+rK55LRQuJPjb1cgOhKNoTNus6TpNQcQaJ2NeY9Odpiy1i/KjALqfR+4B+7ES0OIYI+rBzpeQxn+Bp2FOU4/IjOLRosVC/I9PqEJCrHiuPH1oqiYubNvjfz1iIlgD+lcFn0t17asYdrN684pw5FBAs4egNcnzhhWRf4pMdTuu2u5c1HtPQ==","691f8ca61c6b4dcbb0aeb5f4","691fb533ecd251a3bf969a1e","index1","<span style='color:red'>Fail,<span style='color:red'>Fail,<span style='color:green'>Lift,<span style='color:green'>Lift,<span style='color:red'>Fail,<span style='color:red'>Fail,<span style='color:red'>Fail,<span style='color:red'>Fail,<span style='color:green'>Lift,<span style='color:red'>Fail,<span style='color:green'>Lift,<span style='color:red'>Fail","<span style='color:red'>Fail,<span style='color:red'>Fail,<span style='color:green'>Lift,<span style='color:green'>Lift,<span style='color:green'>Lift,<span style='color:green'>Lift,<span style='color:red'>Fail,<span style='color:green'>Lift,<span style='color:green'>Lift,<span style='color:green'>Lift,<span style='color:green'>Lift,<span style='color:red'>Fail","<span style='color:red'>Fail,<span style='color:green'>Lift,<span style='color:green'>Lift,<span style='color:red'>Fail,<span style='color:green'>Lift,<span style='color:green'>Lift","0,0,1,1,0,0,0,0,1,0,1,0","0,0,1,1,1,1,0,1,1,1,1,0","0,1,1,0,1,1",10,20,20,"","","","","{""box1"":""1"",""box2"":""1""}","",NA,5,"round2_outcome",3,5,2,1,1,NA,NA,0,0,20,NA,NA,NA,NA,NA,NA,NA,NA,NA,NA,NA,1,1,NA,NA,0,0,20,NA,NA,NA,NA,NA,NA,NA,NA,NA,NA,NA,"",NA,NA,NA,NA,NA,NA,NA,NA,2025-11-21 00:49:11
"3277.2000000029802","https://psyc-201.github.io/xiang2023/exp/index1.html?PROLIFIC_PID=REDACTED&STUDY_ID=691f8ca61c6b4dcbb0aeb5f4&SESSION_ID=691fb533ecd251a3bf969a1e","survey-html-form",39,371851,"0.0-347.0","qsr97SOw+K4+MLPuY1fb1aBoKkPXl4L6yE9B2Ow6jaUi2+K9Rfbyzkp752z3yGwFh9saQBj6nhZ93pXGkR0wTn0Bb7Y9RqmhVWsXM4NACJjHRQ50ZeBn5Xf/1HUyx+RhZJfnZx4wpbLFsvqxSO1qQ+00Xg/IPO6eWWmI+rK55LRQuJPjb1cgOhKNoTNus6TpNQcQaJ2NeY9Odpiy1i/KjALqfR+4B+7ES0OIYI+rBzpeQxn+Bp2FOU4/IjOLRosVC/I9PqEJCrHiuPH1oqiYubNvjfz1iIlgD+lcFn0t17asYdrN684pw5FBAs4egNcnzhhWRf4pMdTuu2u5c1HtPQ==","691f8ca61c6b4dcbb0aeb5f4","691fb533ecd251a3bf969a1e","index1","<span style='color:red'>Fail,<span style='color:red'>Fail,<span style='color:green'>Lift,<span style='color:green'>Lift,<span style='color:red'>Fail,<span style='color:red'>Fail,<span style='color:red'>Fail,<span style='color:red'>Fail,<span style='color:green'>Lift,<span style='color:red'>Fail,<span style='color:green'>Lift,<span style='color:red'>Fail","<span style='color:red'>Fail,<span style='color:red'>Fail,<span style='color:green'>Lift,<span style='color:green'>Lift,<span style='color:green'>Lift,<span style='color:green'>Lift,<span style='color:red'>Fail,<span style='color:green'>Lift,<span style='color:green'>Lift,<span style='color:green'>Lift,<span style='color:green'>Lift,<span style='color:red'>Fail","<span style='color:red'>Fail,<span style='color:green'>Lift,<span style='color:green'>Lift,<span style='color:red'>Fail,<span style='color:green'>Lift,<span style='color:green'>Lift","0,0,1,1,0,0,0,0,1,0,1,0","0,0,1,1,1,1,0,1,1,1,1,0","0,1,1,0,1,1",10,20,20,"","","","","{""box1"":""50""}","",NA,5,"round3_ready",4,5,3,NA,NA,NA,NA,NA,NA,NA,NA,NA,NA,NA,NA,NA,NA,50,50,NA,NA,NA,NA,NA,NA,NA,NA,NA,50,50,NA,NA,NA,NA,NA,NA,NA,NA,NA,"",NA,NA,NA,NA,NA,NA,NA,NA,2025-11-21 00:49:11
"8050.79999999702","https://psyc-201.github.io/xiang2023/exp/index1.html?PROLIFIC_PID=REDACTED&STUDY_ID=691f8ca61c6b4dcbb0aeb5f4&SESSION_ID=691fb533ecd251a3bf969a1e","survey-html-form",40,379903,"0.0-349.0-0.0","qsr97SOw+K4+MLPuY1fb1aBoKkPXl4L6yE9B2Ow6jaUi2+K9Rfbyzkp752z3yGwFh9saQBj6nhZ93pXGkR0wTn0Bb7Y9RqmhVWsXM4NACJjHRQ50ZeBn5Xf/1HUyx+RhZJfnZx4wpbLFsvqxSO1qQ+00Xg/IPO6eWWmI+rK55LRQuJPjb1cgOhKNoTNus6TpNQcQaJ2NeY9Odpiy1i/KjALqfR+4B+7ES0OIYI+rBzpeQxn+Bp2FOU4/IjOLRosVC/I9PqEJCrHiuPH1oqiYubNvjfz1iIlgD+lcFn0t17asYdrN684pw5FBAs4egNcnzhhWRf4pMdTuu2u5c1HtPQ==","691f8ca61c6b4dcbb0aeb5f4","691fb533ecd251a3bf969a1e","index1","<span style='color:red'>Fail,<span style='color:red'>Fail,<span style='color:green'>Lift,<span style='color:green'>Lift,<span style='color:red'>Fail,<span style='color:red'>Fail,<span style='color:red'>Fail,<span style='color:red'>Fail,<span style='color:green'>Lift,<span style='color:red'>Fail,<span style='color:green'>Lift,<span style='color:red'>Fail","<span style='color:red'>Fail,<span style='color:red'>Fail,<span style='color:green'>Lift,<span style='color:green'>Lift,<span style='color:green'>Lift,<span style='color:green'>Lift,<span style='color:red'>Fail,<span style='color:green'>Lift,<span style='color:green'>Lift,<span style='color:green'>Lift,<span style='color:green'>Lift,<span style='color:red'>Fail","<span style='color:red'>Fail,<span style='color:green'>Lift,<span style='color:green'>Lift,<span style='color:red'>Fail,<span style='color:green'>Lift,<span style='color:green'>Lift","0,0,1,1,0,0,0,0,1,0,1,0","0,0,1,1,1,1,0,1,1,1,1,0","0,1,1,0,1,1",10,20,20,"","","","","{""box1"":""1"",""box2"":""1"",""box3"":""999"",""box4"":""999""}","",NA,6,"round3_fail",5,5,3,1,1,NA,NA,0,0,20,NA,NA,NA,NA,NA,NA,NA,NA,NA,NA,NA,NA,NA,NA,NA,NA,NA,NA,NA,NA,1,1,NA,NA,0,0,20,1,1,"",NA,NA,NA,NA,NA,NA,NA,NA,2025-11-21 00:49:11
"null","https://psyc-201.github.io/xiang2023/exp/index1.html?PROLIFIC_PID=REDACTED&STUDY_ID=691f8ca61c6b4dcbb0aeb5f4&SESSION_ID=691fb533ecd251a3bf969a1e","html-keyboard-response",41,382914,"0.0-352.0","qsr97SOw+K4+MLPuY1fb1aBoKkPXl4L6yE9B2Ow6jaUi2+K9Rfbyzkp752z3yGwFh9saQBj6nhZ93pXGkR0wTn0Bb7Y9RqmhVWsXM4NACJjHRQ50ZeBn5Xf/1HUyx+RhZJfnZx4wpbLFsvqxSO1qQ+00Xg/IPO6eWWmI+rK55LRQuJPjb1cgOhKNoTNus6TpNQcQaJ2NeY9Odpiy1i/KjALqfR+4B+7ES0OIYI+rBzpeQxn+Bp2FOU4/IjOLRosVC/I9PqEJCrHiuPH1oqiYubNvjfz1iIlgD+lcFn0t17asYdrN684pw5FBAs4egNcnzhhWRf4pMdTuu2u5c1HtPQ==","691f8ca61c6b4dcbb0aeb5f4","691fb533ecd251a3bf969a1e","index1","<span style='color:red'>Fail,<span style='color:red'>Fail,<span style='color:green'>Lift,<span style='color:green'>Lift,<span style='color:red'>Fail,<span style='color:red'>Fail,<span style='color:red'>Fail,<span style='color:red'>Fail,<span style='color:green'>Lift,<span style='color:red'>Fail,<span style='color:green'>Lift,<span style='color:red'>Fail","<span style='color:red'>Fail,<span style='color:red'>Fail,<span style='color:green'>Lift,<span style='color:green'>Lift,<span style='color:green'>Lift,<span style='color:green'>Lift,<span style='color:red'>Fail,<span style='color:green'>Lift,<span style='color:green'>Lift,<span style='color:green'>Lift,<span style='color:green'>Lift,<span style='color:red'>Fail","<span style='color:red'>Fail,<span style='color:green'>Lift,<span style='color:green'>Lift,<span style='color:red'>Fail,<span style='color:green'>Lift,<span style='color:green'>Lift","0,0,1,1,0,0,0,0,1,0,1,0","0,0,1,1,1,1,0,1,1,1,1,0","0,1,1,0,1,1",10,20,20,"","","<p style='font-size:30px'><b> New Contest! </b></p>","null","","",NA,6,"",NA,NA,NA,NA,NA,NA,NA,NA,NA,NA,NA,NA,NA,NA,NA,NA,NA,NA,NA,NA,NA,NA,NA,NA,NA,NA,NA,NA,NA,NA,NA,NA,NA,NA,NA,NA,NA,NA,NA,"",NA,NA,NA,NA,NA,NA,NA,NA,2025-11-21 00:49:11
"9367.70000000298","https://psyc-201.github.io/xiang2023/exp/index1.html?PROLIFIC_PID=REDACTED&STUDY_ID=691f8ca61c6b4dcbb0aeb5f4&SESSION_ID=691fb533ecd251a3bf969a1e","survey-html-form",42,392282,"0.0-353.0","qsr97SOw+K4+MLPuY1fb1aBoKkPXl4L6yE9B2Ow6jaUi2+K9Rfbyzkp752z3yGwFh9saQBj6nhZ93pXGkR0wTn0Bb7Y9RqmhVWsXM4NACJjHRQ50ZeBn5Xf/1HUyx+RhZJfnZx4wpbLFsvqxSO1qQ+00Xg/IPO6eWWmI+rK55LRQuJPjb1cgOhKNoTNus6TpNQcQaJ2NeY9Odpiy1i/KjALqfR+4B+7ES0OIYI+rBzpeQxn+Bp2FOU4/IjOLRosVC/I9PqEJCrHiuPH1oqiYubNvjfz1iIlgD+lcFn0t17asYdrN684pw5FBAs4egNcnzhhWRf4pMdTuu2u5c1HtPQ==","691f8ca61c6b4dcbb0aeb5f4","691fb533ecd251a3bf969a1e","index1","<span style='color:red'>Fail,<span style='color:red'>Fail,<span style='color:green'>Lift,<span style='color:green'>Lift,<span style='color:red'>Fail,<span style='color:red'>Fail,<span style='color:red'>Fail,<span style='color:red'>Fail,<span style='color:green'>Lift,<span style='color:red'>Fail,<span style='color:green'>Lift,<span style='color:red'>Fail","<span style='color:red'>Fail,<span style='color:red'>Fail,<span style='color:green'>Lift,<span style='color:green'>Lift,<span style='color:green'>Lift,<span style='color:green'>Lift,<span style='color:red'>Fail,<span style='color:green'>Lift,<span style='color:green'>Lift,<span style='color:green'>Lift,<span style='color:green'>Lift,<span style='color:red'>Fail","<span style='color:red'>Fail,<span style='color:green'>Lift,<span style='color:green'>Lift,<span style='color:red'>Fail,<span style='color:green'>Lift,<span style='color:green'>Lift","0,0,1,1,0,0,0,0,1,0,1,0","0,0,1,1,1,1,0,1,1,1,1,0","0,1,1,0,1,1",10,20,20,"","","","","{""box1"":""7"",""box2"":""2"",""box3"":""90""}","",NA,6,"round1_outcome",1,6,1,7,2,90,NA,1,0,10,7,2,90,NA,1,0,10,NA,NA,NA,NA,NA,NA,NA,NA,NA,NA,NA,NA,NA,NA,NA,NA,NA,NA,NA,NA,NA,NA,"",NA,NA,NA,NA,NA,NA,NA,NA,2025-11-21 00:49:11
"8708.40000000596","https://psyc-201.github.io/xiang2023/exp/index1.html?PROLIFIC_PID=REDACTED&STUDY_ID=691f8ca61c6b4dcbb0aeb5f4&SESSION_ID=691fb533ecd251a3bf969a1e","survey-html-form",43,400992,"0.0-354.0","qsr97SOw+K4+MLPuY1fb1aBoKkPXl4L6yE9B2Ow6jaUi2+K9Rfbyzkp752z3yGwFh9saQBj6nhZ93pXGkR0wTn0Bb7Y9RqmhVWsXM4NACJjHRQ50ZeBn5Xf/1HUyx+RhZJfnZx4wpbLFsvqxSO1qQ+00Xg/IPO6eWWmI+rK55LRQuJPjb1cgOhKNoTNus6TpNQcQaJ2NeY9Odpiy1i/KjALqfR+4B+7ES0OIYI+rBzpeQxn+Bp2FOU4/IjOLRosVC/I9PqEJCrHiuPH1oqiYubNvjfz1iIlgD+lcFn0t17asYdrN684pw5FBAs4egNcnzhhWRf4pMdTuu2u5c1HtPQ==","691f8ca61c6b4dcbb0aeb5f4","691fb533ecd251a3bf969a1e","index1","<span style='color:red'>Fail,<span style='color:red'>Fail,<span style='color:green'>Lift,<span style='color:green'>Lift,<span style='color:red'>Fail,<span style='color:red'>Fail,<span style='color:red'>Fail,<span style='color:red'>Fail,<span style='color:green'>Lift,<span style='color:red'>Fail,<span style='color:green'>Lift,<span style='color:red'>Fail","<span style='color:red'>Fail,<span style='color:red'>Fail,<span style='color:green'>Lift,<span style='color:green'>Lift,<span style='color:green'>Lift,<span style='color:green'>Lift,<span style='color:red'>Fail,<span style='color:green'>Lift,<span style='color:green'>Lift,<span style='color:green'>Lift,<span style='color:green'>Lift,<span style='color:red'>Fail","<span style='color:red'>Fail,<span style='color:green'>Lift,<span style='color:green'>Lift,<span style='color:red'>Fail,<span style='color:green'>Lift,<span style='color:green'>Lift","0,0,1,1,0,0,0,0,1,0,1,0","0,0,1,1,1,1,0,1,1,1,1,0","0,1,1,0,1,1",10,20,20,"","","","","{""box1"":""100"",""box2"":""35""}","",NA,6,"round2_ready",2,6,2,NA,NA,NA,NA,NA,NA,NA,NA,NA,NA,NA,NA,NA,NA,100,35,100,35,NA,NA,NA,NA,NA,NA,NA,NA,NA,NA,NA,NA,NA,NA,NA,NA,NA,NA,"",NA,NA,NA,NA,NA,NA,NA,NA,2025-11-21 00:49:11
"11445.5","https://psyc-201.github.io/xiang2023/exp/index1.html?PROLIFIC_PID=REDACTED&STUDY_ID=691f8ca61c6b4dcbb0aeb5f4&SESSION_ID=691fb533ecd251a3bf969a1e","survey-html-form",44,412439,"0.0-355.0","qsr97SOw+K4+MLPuY1fb1aBoKkPXl4L6yE9B2Ow6jaUi2+K9Rfbyzkp752z3yGwFh9saQBj6nhZ93pXGkR0wTn0Bb7Y9RqmhVWsXM4NACJjHRQ50ZeBn5Xf/1HUyx+RhZJfnZx4wpbLFsvqxSO1qQ+00Xg/IPO6eWWmI+rK55LRQuJPjb1cgOhKNoTNus6TpNQcQaJ2NeY9Odpiy1i/KjALqfR+4B+7ES0OIYI+rBzpeQxn+Bp2FOU4/IjOLRosVC/I9PqEJCrHiuPH1oqiYubNvjfz1iIlgD+lcFn0t17asYdrN684pw5FBAs4egNcnzhhWRf4pMdTuu2u5c1HtPQ==","691f8ca61c6b4dcbb0aeb5f4","691fb533ecd251a3bf969a1e","index1","<span style='color:red'>Fail,<span style='color:red'>Fail,<span style='color:green'>Lift,<span style='color:green'>Lift,<span style='color:red'>Fail,<span style='color:red'>Fail,<span style='color:red'>Fail,<span style='color:red'>Fail,<span style='color:green'>Lift,<span style='color:red'>Fail,<span style='color:green'>Lift,<span style='color:red'>Fail","<span style='color:red'>Fail,<span style='color:red'>Fail,<span style='color:green'>Lift,<span style='color:green'>Lift,<span style='color:green'>Lift,<span style='color:green'>Lift,<span style='color:red'>Fail,<span style='color:green'>Lift,<span style='color:green'>Lift,<span style='color:green'>Lift,<span style='color:green'>Lift,<span style='color:red'>Fail","<span style='color:red'>Fail,<span style='color:green'>Lift,<span style='color:green'>Lift,<span style='color:red'>Fail,<span style='color:green'>Lift,<span style='color:green'>Lift","0,0,1,1,0,0,0,0,1,0,1,0","0,0,1,1,1,1,0,1,1,1,1,0","0,1,1,0,1,1",10,20,20,"","","","","{""box1"":""9"",""box2"":""6"",""box3"":""90"",""box4"":""100""}","",NA,6,"round2_outcome",3,6,2,9,6,90,100,1,1,20,NA,NA,NA,NA,NA,NA,NA,NA,NA,NA,NA,9,6,90,100,1,1,20,NA,NA,NA,NA,NA,NA,NA,NA,NA,NA,NA,"",NA,NA,NA,NA,NA,NA,NA,NA,2025-11-21 00:49:11
"3366.6000000089407","https://psyc-201.github.io/xiang2023/exp/index1.html?PROLIFIC_PID=REDACTED&STUDY_ID=691f8ca61c6b4dcbb0aeb5f4&SESSION_ID=691fb533ecd251a3bf969a1e","survey-html-form",45,415807,"0.0-356.0","qsr97SOw+K4+MLPuY1fb1aBoKkPXl4L6yE9B2Ow6jaUi2+K9Rfbyzkp752z3yGwFh9saQBj6nhZ93pXGkR0wTn0Bb7Y9RqmhVWsXM4NACJjHRQ50ZeBn5Xf/1HUyx+RhZJfnZx4wpbLFsvqxSO1qQ+00Xg/IPO6eWWmI+rK55LRQuJPjb1cgOhKNoTNus6TpNQcQaJ2NeY9Odpiy1i/KjALqfR+4B+7ES0OIYI+rBzpeQxn+Bp2FOU4/IjOLRosVC/I9PqEJCrHiuPH1oqiYubNvjfz1iIlgD+lcFn0t17asYdrN684pw5FBAs4egNcnzhhWRf4pMdTuu2u5c1HtPQ==","691f8ca61c6b4dcbb0aeb5f4","691fb533ecd251a3bf969a1e","index1","<span style='color:red'>Fail,<span style='color:red'>Fail,<span style='color:green'>Lift,<span style='color:green'>Lift,<span style='color:red'>Fail,<span style='color:red'>Fail,<span style='color:red'>Fail,<span style='color:red'>Fail,<span style='color:green'>Lift,<span style='color:red'>Fail,<span style='color:green'>Lift,<span style='color:red'>Fail","<span style='color:red'>Fail,<span style='color:red'>Fail,<span style='color:green'>Lift,<span style='color:green'>Lift,<span style='color:green'>Lift,<span style='color:green'>Lift,<span style='color:red'>Fail,<span style='color:green'>Lift,<span style='color:green'>Lift,<span style='color:green'>Lift,<span style='color:green'>Lift,<span style='color:red'>Fail","<span style='color:red'>Fail,<span style='color:green'>Lift,<span style='color:green'>Lift,<span style='color:red'>Fail,<span style='color:green'>Lift,<span style='color:green'>Lift","0,0,1,1,0,0,0,0,1,0,1,0","0,0,1,1,1,1,0,1,1,1,1,0","0,1,1,0,1,1",10,20,20,"","","","","{""box1"":""100""}","",NA,6,"round3_ready",4,6,3,NA,NA,NA,NA,NA,NA,NA,NA,NA,NA,NA,NA,NA,NA,100,100,NA,NA,NA,NA,NA,NA,NA,NA,NA,100,100,NA,NA,NA,NA,NA,NA,NA,NA,NA,"",NA,NA,NA,NA,NA,NA,NA,NA,2025-11-21 00:49:11
"7471.5","https://psyc-201.github.io/xiang2023/exp/index1.html?PROLIFIC_PID=REDACTED&STUDY_ID=691f8ca61c6b4dcbb0aeb5f4&SESSION_ID=691fb533ecd251a3bf969a1e","survey-html-form",46,423279,"0.0-357.0-0.0","qsr97SOw+K4+MLPuY1fb1aBoKkPXl4L6yE9B2Ow6jaUi2+K9Rfbyzkp752z3yGwFh9saQBj6nhZ93pXGkR0wTn0Bb7Y9RqmhVWsXM4NACJjHRQ50ZeBn5Xf/1HUyx+RhZJfnZx4wpbLFsvqxSO1qQ+00Xg/IPO6eWWmI+rK55LRQuJPjb1cgOhKNoTNus6TpNQcQaJ2NeY9Odpiy1i/KjALqfR+4B+7ES0OIYI+rBzpeQxn+Bp2FOU4/IjOLRosVC/I9PqEJCrHiuPH1oqiYubNvjfz1iIlgD+lcFn0t17asYdrN684pw5FBAs4egNcnzhhWRf4pMdTuu2u5c1HtPQ==","691f8ca61c6b4dcbb0aeb5f4","691fb533ecd251a3bf969a1e","index1","<span style='color:red'>Fail,<span style='color:red'>Fail,<span style='color:green'>Lift,<span style='color:green'>Lift,<span style='color:red'>Fail,<span style='color:red'>Fail,<span style='color:red'>Fail,<span style='color:red'>Fail,<span style='color:green'>Lift,<span style='color:red'>Fail,<span style='color:green'>Lift,<span style='color:red'>Fail","<span style='color:red'>Fail,<span style='color:red'>Fail,<span style='color:green'>Lift,<span style='color:green'>Lift,<span style='color:green'>Lift,<span style='color:green'>Lift,<span style='color:red'>Fail,<span style='color:green'>Lift,<span style='color:green'>Lift,<span style='color:green'>Lift,<span style='color:green'>Lift,<span style='color:red'>Fail","<span style='color:red'>Fail,<span style='color:green'>Lift,<span style='color:green'>Lift,<span style='color:red'>Fail,<span style='color:green'>Lift,<span style='color:green'>Lift","0,0,1,1,0,0,0,0,1,0,1,0","0,0,1,1,1,1,0,1,1,1,1,0","0,1,1,0,1,1",10,20,20,"","","","","{""box1"":""9"",""box2"":""6"",""box3"":""90"",""box4"":""100""}","",NA,6,"round3_lift",5,6,3,9,6,90,100,1,1,20,NA,NA,NA,NA,NA,NA,NA,NA,NA,NA,NA,NA,NA,NA,NA,NA,NA,NA,NA,NA,9,6,90,100,1,1,20,NA,NA,"",NA,NA,NA,NA,NA,NA,NA,NA,2025-11-21 00:49:11
"22909.09999999404","https://psyc-201.github.io/xiang2023/exp/index1.html?PROLIFIC_PID=REDACTED&STUDY_ID=691f8ca61c6b4dcbb0aeb5f4&SESSION_ID=691fb533ecd251a3bf969a1e","survey-text",47,446190,"0.0-361.0","qsr97SOw+K4+MLPuY1fb1aBoKkPXl4L6yE9B2Ow6jaUi2+K9Rfbyzkp752z3yGwFh9saQBj6nhZ93pXGkR0wTn0Bb7Y9RqmhVWsXM4NACJjHRQ50ZeBn5Xf/1HUyx+RhZJfnZx4wpbLFsvqxSO1qQ+00Xg/IPO6eWWmI+rK55LRQuJPjb1cgOhKNoTNus6TpNQcQaJ2NeY9Odpiy1i/KjALqfR+4B+7ES0OIYI+rBzpeQxn+Bp2FOU4/IjOLRosVC/I9PqEJCrHiuPH1oqiYubNvjfz1iIlgD+lcFn0t17asYdrN684pw5FBAs4egNcnzhhWRf4pMdTuu2u5c1HtPQ==","691f8ca61c6b4dcbb0aeb5f4","691fb533ecd251a3bf969a1e","index1","<span style='color:red'>Fail,<span style='color:red'>Fail,<span style='color:green'>Lift,<span style='color:green'>Lift,<span style='color:red'>Fail,<span style='color:red'>Fail,<span style='color:red'>Fail,<span style='color:red'>Fail,<span style='color:green'>Lift,<span style='color:red'>Fail,<span style='color:green'>Lift,<span style='color:red'>Fail","<span style='color:red'>Fail,<span style='color:red'>Fail,<span style='color:green'>Lift,<span style='color:green'>Lift,<span style='color:green'>Lift,<span style='color:green'>Lift,<span style='color:red'>Fail,<span style='color:green'>Lift,<span style='color:green'>Lift,<span style='color:green'>Lift,<span style='color:green'>Lift,<span style='color:red'>Fail","<span style='color:red'>Fail,<span style='color:green'>Lift,<span style='color:green'>Lift,<span style='color:red'>Fail,<span style='color:green'>Lift,<span style='color:green'>Lift","0,0,1,1,0,0,0,0,1,0,1,0","0,0,1,1,1,1,0,1,1,1,1,0","0,1,1,0,1,1",10,20,20,"","","","","{""Q0"":""The task was to rate the stength and effort of two contestants who were on gameshow that involved lifting a box for money.""}","",NA,NA,"",NA,NA,NA,NA,NA,NA,NA,NA,NA,NA,NA,NA,NA,NA,NA,NA,NA,NA,NA,NA,NA,NA,NA,NA,NA,NA,NA,NA,NA,NA,NA,NA,NA,NA,NA,NA,NA,NA,NA,"",NA,NA,NA,NA,NA,NA,NA,NA,2025-11-21 00:49:11
"2211.3999999910593","https://psyc-201.github.io/xiang2023/exp/index1.html?PROLIFIC_PID=REDACTED&STUDY_ID=691f8ca61c6b4dcbb0aeb5f4&SESSION_ID=691fb533ecd251a3bf969a1e","survey-text",48,448403,"0.0-362.0","qsr97SOw+K4+MLPuY1fb1aBoKkPXl4L6yE9B2Ow6jaUi2+K9Rfbyzkp752z3yGwFh9saQBj6nhZ93pXGkR0wTn0Bb7Y9RqmhVWsXM4NACJjHRQ50ZeBn5Xf/1HUyx+RhZJfnZx4wpbLFsvqxSO1qQ+00Xg/IPO6eWWmI+rK55LRQuJPjb1cgOhKNoTNus6TpNQcQaJ2NeY9Odpiy1i/KjALqfR+4B+7ES0OIYI+rBzpeQxn+Bp2FOU4/IjOLRosVC/I9PqEJCrHiuPH1oqiYubNvjfz1iIlgD+lcFn0t17asYdrN684pw5FBAs4egNcnzhhWRf4pMdTuu2u5c1HtPQ==","691f8ca61c6b4dcbb0aeb5f4","691fb533ecd251a3bf969a1e","index1","<span style='color:red'>Fail,<span style='color:red'>Fail,<span style='color:green'>Lift,<span style='color:green'>Lift,<span style='color:red'>Fail,<span style='color:red'>Fail,<span style='color:red'>Fail,<span style='color:red'>Fail,<span style='color:green'>Lift,<span style='color:red'>Fail,<span style='color:green'>Lift,<span style='color:red'>Fail","<span style='color:red'>Fail,<span style='color:red'>Fail,<span style='color:green'>Lift,<span style='color:green'>Lift,<span style='color:green'>Lift,<span style='color:green'>Lift,<span style='color:red'>Fail,<span style='color:green'>Lift,<span style='color:green'>Lift,<span style='color:green'>Lift,<span style='color:green'>Lift,<span style='color:red'>Fail","<span style='color:red'>Fail,<span style='color:green'>Lift,<span style='color:green'>Lift,<span style='color:red'>Fail,<span style='color:green'>Lift,<span style='color:green'>Lift","0,0,1,1,0,0,0,0,1,0,1,0","0,0,1,1,1,1,0,1,1,1,1,0","0,1,1,0,1,1",10,20,20,"","","","","{""Q0"":""""}","",NA,NA,"",NA,NA,NA,NA,NA,NA,NA,NA,NA,NA,NA,NA,NA,NA,NA,NA,NA,NA,NA,NA,NA,NA,NA,NA,NA,NA,NA,NA,NA,NA,NA,NA,NA,NA,NA,NA,NA,NA,NA,"[{""event"":""focus"",""trial"":0,""time"":1788},{""event"":""fullscreenenter"",""trial"":1,""time"":8505},{""event"":""fullscreenexit"",""trial"":2,""time"":9595},{""event"":""blur"",""trial"":2,""time"":11390},{""event"":""focus"",""trial"":2,""time"":12294}]",1,2,0,40,1,0.4,NA,NA,2025-11-21 00:49:11
"2528.4000000059605","https://psyc-201.github.io/xiang2023/exp/index1.html?PROLIFIC_PID=REDACTED&STUDY_ID=691f8ca61c6b4dcbb0aeb5f4&SESSION_ID=691fb533ecd251a3bf969a1e","html-button-response",49,450933,"0.0-363.0","qsr97SOw+K4+MLPuY1fb1aBoKkPXl4L6yE9B2Ow6jaUi2+K9Rfbyzkp752z3yGwFh9saQBj6nhZ93pXGkR0wTn0Bb7Y9RqmhVWsXM4NACJjHRQ50ZeBn5Xf/1HUyx+RhZJfnZx4wpbLFsvqxSO1qQ+00Xg/IPO6eWWmI+rK55LRQuJPjb1cgOhKNoTNus6TpNQcQaJ2NeY9Odpiy1i/KjALqfR+4B+7ES0OIYI+rBzpeQxn+Bp2FOU4/IjOLRosVC/I9PqEJCrHiuPH1oqiYubNvjfz1iIlgD+lcFn0t17asYdrN684pw5FBAs4egNcnzhhWRf4pMdTuu2u5c1HtPQ==","691f8ca61c6b4dcbb0aeb5f4","691fb533ecd251a3bf969a1e","index1","<span style='color:red'>Fail,<span style='color:red'>Fail,<span style='color:green'>Lift,<span style='color:green'>Lift,<span style='color:red'>Fail,<span style='color:red'>Fail,<span style='color:red'>Fail,<span style='color:red'>Fail,<span style='color:green'>Lift,<span style='color:red'>Fail,<span style='color:green'>Lift,<span style='color:red'>Fail","<span style='color:red'>Fail,<span style='color:red'>Fail,<span style='color:green'>Lift,<span style='color:green'>Lift,<span style='color:green'>Lift,<span style='color:green'>Lift,<span style='color:red'>Fail,<span style='color:green'>Lift,<span style='color:green'>Lift,<span style='color:green'>Lift,<span style='color:green'>Lift,<span style='color:red'>Fail","<span style='color:red'>Fail,<span style='color:green'>Lift,<span style='color:green'>Lift,<span style='color:red'>Fail,<span style='color:green'>Lift,<span style='color:green'>Lift","0,0,1,1,0,0,0,0,1,0,1,0","0,0,1,1,1,1,0,1,1,1,1,0","0,1,1,0,1,1",10,20,20,"","","<p> We randomly picked <b>Contest 1, Round 2</b> to calculate your bonus. </p><p> The outcome of Contestant A on that round is <span style='color:green'>Lift</span>. </p><p> The probability you entered was 40. </p><p><b> You won a bonus of $0.40!</b></p><p> IMPORTANT: Please click 'Next' to complete the game.</p>","","","",0,NA,"",NA,NA,NA,NA,NA,NA,NA,NA,NA,NA,NA,NA,NA,NA,NA,NA,NA,NA,NA,NA,NA,NA,NA,NA,NA,NA,NA,NA,NA,NA,NA,NA,NA,NA,NA,NA,NA,NA,NA,"",NA,NA,NA,NA,NA,NA,2,1,2025-11-21 00:49:11
