"rt","url","trial_type","trial_index","time_elapsed","internal_node_id","encryptedProlificId","studyId","sessionId","expIndex","round1_outcomes","round2_outcomes","round3_outcomes","round1_o","round2_o","round3_o","round1_reward","round2_reward","round3_reward","success","view_history","stimulus","key_press","responses","question_order","j","Stage","stage","contest","round","strength_a","strength_b","effort_a","effort_b","outcome_a","outcome_b","reward","r1_strength_a","r1_strength_b","r1_effort_a","r1_effort_b","r1_outcome_a","r1_outcome_b","r1_reward","probability_a","probability_b","r2_prob_a","r2_prob_b","r2_strength_a","r2_strength_b","r2_effort_a","r2_effort_b","r2_outcome_a","r2_outcome_b","r2_reward","r3_prob_a","r3_prob_b","attention_check","count","r3_strength_a","r3_strength_b","r3_outcome_a","r3_outcome_b","r3_reward","already","r3_effort_a","r3_effort_b","screen","pick_contest","pick_round","pick_side","trial_probability","trial_outcome","bonus","button_pressed","attention_sum","attention","datapipe_meta.attributes.date_modified"
"6304.900000095367","https://psyc-201.github.io/xiang2023/exp/index1.html?PROLIFIC_PID=REDACTED&STUDY_ID=691f8ca61c6b4dcbb0aeb5f4&SESSION_ID=691fb95b478bba25ad3d3813","external-html",0,6376,"0.0-0.0","Qycb9gtL+nQVUfeNstk1zrYv4SOGZFhAy2SHdLghTSBl2HgnR97AFgpaRgMN2kUCZ332PpOlmGiuT2dWEnann41gL1HmspFSNiYpNZkaSsxG/CW6cPGgKzVpBiQmnpsvniwqZAailQknevZwmqQ5yOLR0nrUsbNOwb6Qe1RdFBWrK+OTag0AUM0qfGcUeNrDs9upCxC2hv3H3gHeR6Mi1VgqtTvyzPzI3oesJ514zo3n9RotGrsCz0SCgCD4hAnFUzQoyU208hRNrkPv98AI0U+rWwlelbtOZAq395ACOn1UfRZKOCuuOkS1RKJLm2qDuQOyANAsJwqNbf7MCEtWIQ==","691f8ca61c6b4dcbb0aeb5f4","691fb95b478bba25ad3d3813","index1","<span style='color:red'>Fail,<span style='color:red'>Fail,<span style='color:green'>Lift,<span style='color:green'>Lift,<span style='color:red'>Fail,<span style='color:red'>Fail,<span style='color:red'>Fail,<span style='color:red'>Fail,<span style='color:green'>Lift,<span style='color:red'>Fail,<span style='color:red'>Fail,<span style='color:green'>Lift","<span style='color:red'>Fail,<span style='color:red'>Fail,<span style='color:green'>Lift,<span style='color:green'>Lift,<span style='color:green'>Lift,<span style='color:green'>Lift,<span style='color:red'>Fail,<span style='color:green'>Lift,<span style='color:green'>Lift,<span style='color:green'>Lift,<span style='color:red'>Fail,<span style='color:green'>Lift","<span style='color:red'>Fail,<span style='color:green'>Lift,<span style='color:green'>Lift,<span style='color:red'>Fail,<span style='color:green'>Lift,<span style='color:green'>Lift","0,0,1,1,0,0,0,0,1,0,0,1","0,0,1,1,1,1,0,1,1,1,0,1","0,1,1,0,1,1",10,20,20,"","","","","","",NA,"",NA,NA,NA,NA,NA,NA,NA,NA,NA,NA,NA,NA,NA,NA,NA,NA,NA,NA,NA,NA,NA,NA,NA,NA,NA,NA,NA,NA,NA,NA,NA,NA,NA,NA,NA,NA,NA,NA,NA,NA,"",NA,NA,NA,NA,NA,NA,NA,NA,NA,2025-11-21 01:13:36
"","https://psyc-201.github.io/xiang2023/exp/index1.html?PROLIFIC_PID=REDACTED&STUDY_ID=691f8ca61c6b4dcbb0aeb5f4&SESSION_ID=691fb95b478bba25ad3d3813","fullscreen",1,13347,"0.0-1.0","Qycb9gtL+nQVUfeNstk1zrYv4SOGZFhAy2SHdLghTSBl2HgnR97AFgpaRgMN2kUCZ332PpOlmGiuT2dWEnann41gL1HmspFSNiYpNZkaSsxG/CW6cPGgKzVpBiQmnpsvniwqZAailQknevZwmqQ5yOLR0nrUsbNOwb6Qe1RdFBWrK+OTag0AUM0qfGcUeNrDs9upCxC2hv3H3gHeR6Mi1VgqtTvyzPzI3oesJ514zo3n9RotGrsCz0SCgCD4hAnFUzQoyU208hRNrkPv98AI0U+rWwlelbtOZAq395ACOn1UfRZKOCuuOkS1RKJLm2qDuQOyANAsJwqNbf7MCEtWIQ==","691f8ca61c6b4dcbb0aeb5f4","691fb95b478bba25ad3d3813","index1","<span style='color:red'>Fail,<span style='color:red'>Fail,<span style='color:green'>Lift,<span style='color:green'>Lift,<span style='color:red'>Fail,<span style='color:red'>Fail,<span style='color:red'>Fail,<span style='color:red'>Fail,<span style='color:green'>Lift,<span style='color:red'>Fail,<span style='color:red'>Fail,<span style='color:green'>Lift","<span style='color:red'>Fail,<span style='color:red'>Fail,<span style='color:green'>Lift,<span style='color:green'>Lift,<span style='color:green'>Lift,<span style='color:green'>Lift,<span style='color:red'>Fail,<span style='color:green'>Lift,<span style='color:green'>Lift,<span style='color:green'>Lift,<span style='color:red'>Fail,<span style='color:green'>Lift","<span style='color:red'>Fail,<span style='color:green'>Lift,<span style='color:green'>Lift,<span style='color:red'>Fail,<span style='color:green'>Lift,<span style='color:green'>Lift","0,0,1,1,0,0,0,0,1,0,0,1","0,0,1,1,1,1,0,1,1,1,0,1","0,1,1,0,1,1",10,20,20,"true","","","","","",NA,"",NA,NA,NA,NA,NA,NA,NA,NA,NA,NA,NA,NA,NA,NA,NA,NA,NA,NA,NA,NA,NA,NA,NA,NA,NA,NA,NA,NA,NA,NA,NA,NA,NA,NA,NA,NA,NA,NA,NA,NA,"",NA,NA,NA,NA,NA,NA,NA,NA,NA,2025-11-21 01:13:36
"117899.69999992847","https://psyc-201.github.io/xiang2023/exp/index1.html?PROLIFIC_PID=REDACTED&STUDY_ID=691f8ca61c6b4dcbb0aeb5f4&SESSION_ID=691fb95b478bba25ad3d3813","instructions",2,131247,"0.0-2.0","Qycb9gtL+nQVUfeNstk1zrYv4SOGZFhAy2SHdLghTSBl2HgnR97AFgpaRgMN2kUCZ332PpOlmGiuT2dWEnann41gL1HmspFSNiYpNZkaSsxG/CW6cPGgKzVpBiQmnpsvniwqZAailQknevZwmqQ5yOLR0nrUsbNOwb6Qe1RdFBWrK+OTag0AUM0qfGcUeNrDs9upCxC2hv3H3gHeR6Mi1VgqtTvyzPzI3oesJ514zo3n9RotGrsCz0SCgCD4hAnFUzQoyU208hRNrkPv98AI0U+rWwlelbtOZAq395ACOn1UfRZKOCuuOkS1RKJLm2qDuQOyANAsJwqNbf7MCEtWIQ==","691f8ca61c6b4dcbb0aeb5f4","691fb95b478bba25ad3d3813","index1","<span style='color:red'>Fail,<span style='color:red'>Fail,<span style='color:green'>Lift,<span style='color:green'>Lift,<span style='color:red'>Fail,<span style='color:red'>Fail,<span style='color:red'>Fail,<span style='color:red'>Fail,<span style='color:green'>Lift,<span style='color:red'>Fail,<span style='color:red'>Fail,<span style='color:green'>Lift","<span style='color:red'>Fail,<span style='color:red'>Fail,<span style='color:green'>Lift,<span style='color:green'>Lift,<span style='color:green'>Lift,<span style='color:green'>Lift,<span style='color:red'>Fail,<span style='color:green'>Lift,<span style='color:green'>Lift,<span style='color:green'>Lift,<span style='color:red'>Fail,<span style='color:green'>Lift","<span style='color:red'>Fail,<span style='color:green'>Lift,<span style='color:green'>Lift,<span style='color:red'>Fail,<span style='color:green'>Lift,<span style='color:green'>Lift","0,0,1,1,0,0,0,0,1,0,0,1","0,0,1,1,1,1,0,1,1,1,0,1","0,1,1,0,1,1",10,20,20,"","[{""page_index"":0,""viewing_time"":25087.399999976158},{""page_index"":1,""viewing_time"":21444.100000023842},{""page_index"":2,""viewing_time"":12339.799999952316},{""page_index"":3,""viewing_time"":19452},{""page_index"":4,""viewing_time"":11226.5},{""page_index"":5,""viewing_time"":18285.800000071526},{""page_index"":6,""viewing_time"":10063.799999952316}]","","","","",NA,"",NA,NA,NA,NA,NA,NA,NA,NA,NA,NA,NA,NA,NA,NA,NA,NA,NA,NA,NA,NA,NA,NA,NA,NA,NA,NA,NA,NA,NA,NA,NA,NA,NA,NA,NA,NA,NA,NA,NA,NA,"",NA,NA,NA,NA,NA,NA,NA,NA,NA,2025-11-21 01:13:36
"null","https://psyc-201.github.io/xiang2023/exp/index1.html?PROLIFIC_PID=REDACTED&STUDY_ID=691f8ca61c6b4dcbb0aeb5f4&SESSION_ID=691fb95b478bba25ad3d3813","html-keyboard-response",3,132249,"0.0-3.0","Qycb9gtL+nQVUfeNstk1zrYv4SOGZFhAy2SHdLghTSBl2HgnR97AFgpaRgMN2kUCZ332PpOlmGiuT2dWEnann41gL1HmspFSNiYpNZkaSsxG/CW6cPGgKzVpBiQmnpsvniwqZAailQknevZwmqQ5yOLR0nrUsbNOwb6Qe1RdFBWrK+OTag0AUM0qfGcUeNrDs9upCxC2hv3H3gHeR6Mi1VgqtTvyzPzI3oesJ514zo3n9RotGrsCz0SCgCD4hAnFUzQoyU208hRNrkPv98AI0U+rWwlelbtOZAq395ACOn1UfRZKOCuuOkS1RKJLm2qDuQOyANAsJwqNbf7MCEtWIQ==","691f8ca61c6b4dcbb0aeb5f4","691fb95b478bba25ad3d3813","index1","<span style='color:red'>Fail,<span style='color:red'>Fail,<span style='color:green'>Lift,<span style='color:green'>Lift,<span style='color:red'>Fail,<span style='color:red'>Fail,<span style='color:red'>Fail,<span style='color:red'>Fail,<span style='color:green'>Lift,<span style='color:red'>Fail,<span style='color:red'>Fail,<span style='color:green'>Lift","<span style='color:red'>Fail,<span style='color:red'>Fail,<span style='color:green'>Lift,<span style='color:green'>Lift,<span style='color:green'>Lift,<span style='color:green'>Lift,<span style='color:red'>Fail,<span style='color:green'>Lift,<span style='color:green'>Lift,<span style='color:green'>Lift,<span style='color:red'>Fail,<span style='color:green'>Lift","<span style='color:red'>Fail,<span style='color:green'>Lift,<span style='color:green'>Lift,<span style='color:red'>Fail,<span style='color:green'>Lift,<span style='color:green'>Lift","0,0,1,1,0,0,0,0,1,0,0,1","0,0,1,1,1,1,0,1,1,1,0,1","0,1,1,0,1,1",10,20,20,"",""," ","null","","",NA,"",NA,NA,NA,NA,NA,NA,NA,NA,NA,NA,NA,NA,NA,NA,NA,NA,NA,NA,NA,NA,NA,NA,NA,NA,NA,NA,NA,NA,NA,NA,NA,NA,NA,NA,NA,NA,NA,NA,NA,NA,"",NA,NA,NA,NA,NA,NA,NA,NA,NA,2025-11-21 01:13:36
"35665.199999928474","https://psyc-201.github.io/xiang2023/exp/index1.html?PROLIFIC_PID=REDACTED&STUDY_ID=691f8ca61c6b4dcbb0aeb5f4&SESSION_ID=691fb95b478bba25ad3d3813","survey-multi-choice",4,167917,"0.0-4.0","Qycb9gtL+nQVUfeNstk1zrYv4SOGZFhAy2SHdLghTSBl2HgnR97AFgpaRgMN2kUCZ332PpOlmGiuT2dWEnann41gL1HmspFSNiYpNZkaSsxG/CW6cPGgKzVpBiQmnpsvniwqZAailQknevZwmqQ5yOLR0nrUsbNOwb6Qe1RdFBWrK+OTag0AUM0qfGcUeNrDs9upCxC2hv3H3gHeR6Mi1VgqtTvyzPzI3oesJ514zo3n9RotGrsCz0SCgCD4hAnFUzQoyU208hRNrkPv98AI0U+rWwlelbtOZAq395ACOn1UfRZKOCuuOkS1RKJLm2qDuQOyANAsJwqNbf7MCEtWIQ==","691f8ca61c6b4dcbb0aeb5f4","691fb95b478bba25ad3d3813","index1","<span style='color:red'>Fail,<span style='color:red'>Fail,<span style='color:green'>Lift,<span style='color:green'>Lift,<span style='color:red'>Fail,<span style='color:red'>Fail,<span style='color:red'>Fail,<span style='color:red'>Fail,<span style='color:green'>Lift,<span style='color:red'>Fail,<span style='color:red'>Fail,<span style='color:green'>Lift","<span style='color:red'>Fail,<span style='color:red'>Fail,<span style='color:green'>Lift,<span style='color:green'>Lift,<span style='color:green'>Lift,<span style='color:green'>Lift,<span style='color:red'>Fail,<span style='color:green'>Lift,<span style='color:green'>Lift,<span style='color:green'>Lift,<span style='color:red'>Fail,<span style='color:green'>Lift","<span style='color:red'>Fail,<span style='color:green'>Lift,<span style='color:green'>Lift,<span style='color:red'>Fail,<span style='color:green'>Lift,<span style='color:green'>Lift","0,0,1,1,0,0,0,0,1,0,0,1","0,0,1,1,1,1,0,1,1,1,0,1","0,1,1,0,1,1",10,20,20,"","","","","{""Q0"":""It consists of multiple contests, each contest with three rounds."",""Q1"":""When a new contest begins."",""Q2"":""The box weight always stays the same (equivalent to strength of 5)."",""Q3"":""Each will get $20."",""Q4"":""How close my guesses are to the actual outcome.""}","[0,1,2,3,4]",NA,"",NA,NA,NA,NA,NA,NA,NA,NA,NA,NA,NA,NA,NA,NA,NA,NA,NA,NA,NA,NA,NA,NA,NA,NA,NA,NA,NA,NA,NA,NA,NA,NA,NA,NA,NA,NA,NA,NA,NA,NA,"",NA,NA,NA,NA,NA,NA,NA,NA,NA,2025-11-21 01:13:36
"24738.399999976158","https://psyc-201.github.io/xiang2023/exp/index1.html?PROLIFIC_PID=REDACTED&STUDY_ID=691f8ca61c6b4dcbb0aeb5f4&SESSION_ID=691fb95b478bba25ad3d3813","instructions",5,192659,"0.0-305.0","Qycb9gtL+nQVUfeNstk1zrYv4SOGZFhAy2SHdLghTSBl2HgnR97AFgpaRgMN2kUCZ332PpOlmGiuT2dWEnann41gL1HmspFSNiYpNZkaSsxG/CW6cPGgKzVpBiQmnpsvniwqZAailQknevZwmqQ5yOLR0nrUsbNOwb6Qe1RdFBWrK+OTag0AUM0qfGcUeNrDs9upCxC2hv3H3gHeR6Mi1VgqtTvyzPzI3oesJ514zo3n9RotGrsCz0SCgCD4hAnFUzQoyU208hRNrkPv98AI0U+rWwlelbtOZAq395ACOn1UfRZKOCuuOkS1RKJLm2qDuQOyANAsJwqNbf7MCEtWIQ==","691f8ca61c6b4dcbb0aeb5f4","691fb95b478bba25ad3d3813","index1","<span style='color:red'>Fail,<span style='color:red'>Fail,<span style='color:green'>Lift,<span style='color:green'>Lift,<span style='color:red'>Fail,<span style='color:red'>Fail,<span style='color:red'>Fail,<span style='color:red'>Fail,<span style='color:green'>Lift,<span style='color:red'>Fail,<span style='color:red'>Fail,<span style='color:green'>Lift","<span style='color:red'>Fail,<span style='color:red'>Fail,<span style='color:green'>Lift,<span style='color:green'>Lift,<span style='color:green'>Lift,<span style='color:green'>Lift,<span style='color:red'>Fail,<span style='color:green'>Lift,<span style='color:green'>Lift,<span style='color:green'>Lift,<span style='color:red'>Fail,<span style='color:green'>Lift","<span style='color:red'>Fail,<span style='color:green'>Lift,<span style='color:green'>Lift,<span style='color:red'>Fail,<span style='color:green'>Lift,<span style='color:green'>Lift","0,0,1,1,0,0,0,0,1,0,0,1","0,0,1,1,1,1,0,1,1,1,0,1","0,1,1,0,1,1",10,20,20,"","[{""page_index"":0,""viewing_time"":19410.700000047684},{""page_index"":1,""viewing_time"":5327.5}]","","","","",NA,"",NA,NA,NA,NA,NA,NA,NA,NA,NA,NA,NA,NA,NA,NA,NA,NA,NA,NA,NA,NA,NA,NA,NA,NA,NA,NA,NA,NA,NA,NA,NA,NA,NA,NA,NA,NA,NA,NA,NA,NA,"",NA,NA,NA,NA,NA,NA,NA,NA,NA,2025-11-21 01:13:36
"null","https://psyc-201.github.io/xiang2023/exp/index1.html?PROLIFIC_PID=REDACTED&STUDY_ID=691f8ca61c6b4dcbb0aeb5f4&SESSION_ID=691fb95b478bba25ad3d3813","html-keyboard-response",6,193661,"0.0-306.0","Qycb9gtL+nQVUfeNstk1zrYv4SOGZFhAy2SHdLghTSBl2HgnR97AFgpaRgMN2kUCZ332PpOlmGiuT2dWEnann41gL1HmspFSNiYpNZkaSsxG/CW6cPGgKzVpBiQmnpsvniwqZAailQknevZwmqQ5yOLR0nrUsbNOwb6Qe1RdFBWrK+OTag0AUM0qfGcUeNrDs9upCxC2hv3H3gHeR6Mi1VgqtTvyzPzI3oesJ514zo3n9RotGrsCz0SCgCD4hAnFUzQoyU208hRNrkPv98AI0U+rWwlelbtOZAq395ACOn1UfRZKOCuuOkS1RKJLm2qDuQOyANAsJwqNbf7MCEtWIQ==","691f8ca61c6b4dcbb0aeb5f4","691fb95b478bba25ad3d3813","index1","<span style='color:red'>Fail,<span style='color:red'>Fail,<span style='color:green'>Lift,<span style='color:green'>Lift,<span style='color:red'>Fail,<span style='color:red'>Fail,<span style='color:red'>Fail,<span style='color:red'>Fail,<span style='color:green'>Lift,<span style='color:red'>Fail,<span style='color:red'>Fail,<span style='color:green'>Lift","<span style='color:red'>Fail,<span style='color:red'>Fail,<span style='color:green'>Lift,<span style='color:green'>Lift,<span style='color:green'>Lift,<span style='color:green'>Lift,<span style='color:red'>Fail,<span style='color:green'>Lift,<span style='color:green'>Lift,<span style='color:green'>Lift,<span style='color:red'>Fail,<span style='color:green'>Lift","<span style='color:red'>Fail,<span style='color:green'>Lift,<span style='color:green'>Lift,<span style='color:red'>Fail,<span style='color:green'>Lift,<span style='color:green'>Lift","0,0,1,1,0,0,0,0,1,0,0,1","0,0,1,1,1,1,0,1,1,1,0,1","0,1,1,0,1,1",10,20,20,"",""," ","null","","",1,"",NA,NA,NA,NA,NA,NA,NA,NA,NA,NA,NA,NA,NA,NA,NA,NA,NA,NA,NA,NA,NA,NA,NA,NA,NA,NA,NA,NA,NA,NA,NA,NA,NA,NA,NA,NA,NA,NA,NA,NA,"",NA,NA,NA,NA,NA,NA,NA,NA,NA,2025-11-21 01:13:36
"null","https://psyc-201.github.io/xiang2023/exp/index1.html?PROLIFIC_PID=REDACTED&STUDY_ID=691f8ca61c6b4dcbb0aeb5f4&SESSION_ID=691fb95b478bba25ad3d3813","html-keyboard-response",7,196662,"0.0-307.0","Qycb9gtL+nQVUfeNstk1zrYv4SOGZFhAy2SHdLghTSBl2HgnR97AFgpaRgMN2kUCZ332PpOlmGiuT2dWEnann41gL1HmspFSNiYpNZkaSsxG/CW6cPGgKzVpBiQmnpsvniwqZAailQknevZwmqQ5yOLR0nrUsbNOwb6Qe1RdFBWrK+OTag0AUM0qfGcUeNrDs9upCxC2hv3H3gHeR6Mi1VgqtTvyzPzI3oesJ514zo3n9RotGrsCz0SCgCD4hAnFUzQoyU208hRNrkPv98AI0U+rWwlelbtOZAq395ACOn1UfRZKOCuuOkS1RKJLm2qDuQOyANAsJwqNbf7MCEtWIQ==","691f8ca61c6b4dcbb0aeb5f4","691fb95b478bba25ad3d3813","index1","<span style='color:red'>Fail,<span style='color:red'>Fail,<span style='color:green'>Lift,<span style='color:green'>Lift,<span style='color:red'>Fail,<span style='color:red'>Fail,<span style='color:red'>Fail,<span style='color:red'>Fail,<span style='color:green'>Lift,<span style='color:red'>Fail,<span style='color:red'>Fail,<span style='color:green'>Lift","<span style='color:red'>Fail,<span style='color:red'>Fail,<span style='color:green'>Lift,<span style='color:green'>Lift,<span style='color:green'>Lift,<span style='color:green'>Lift,<span style='color:red'>Fail,<span style='color:green'>Lift,<span style='color:green'>Lift,<span style='color:green'>Lift,<span style='color:red'>Fail,<span style='color:green'>Lift","<span style='color:red'>Fail,<span style='color:green'>Lift,<span style='color:green'>Lift,<span style='color:red'>Fail,<span style='color:green'>Lift,<span style='color:green'>Lift","0,0,1,1,0,0,0,0,1,0,0,1","0,0,1,1,1,1,0,1,1,1,0,1","0,1,1,0,1,1",10,20,20,"","","<p style='font-size:30px'><b> New Contest! </b></p>","null","","",1,"",NA,NA,NA,NA,NA,NA,NA,NA,NA,NA,NA,NA,NA,NA,NA,NA,NA,NA,NA,NA,NA,NA,NA,NA,NA,NA,NA,NA,NA,NA,NA,NA,NA,NA,NA,NA,NA,NA,NA,NA,"",NA,NA,NA,NA,NA,NA,NA,NA,NA,2025-11-21 01:13:36
"32580.600000023842","https://psyc-201.github.io/xiang2023/exp/index1.html?PROLIFIC_PID=REDACTED&STUDY_ID=691f8ca61c6b4dcbb0aeb5f4&SESSION_ID=691fb95b478bba25ad3d3813","survey-html-form",8,229246,"0.0-308.0","Qycb9gtL+nQVUfeNstk1zrYv4SOGZFhAy2SHdLghTSBl2HgnR97AFgpaRgMN2kUCZ332PpOlmGiuT2dWEnann41gL1HmspFSNiYpNZkaSsxG/CW6cPGgKzVpBiQmnpsvniwqZAailQknevZwmqQ5yOLR0nrUsbNOwb6Qe1RdFBWrK+OTag0AUM0qfGcUeNrDs9upCxC2hv3H3gHeR6Mi1VgqtTvyzPzI3oesJ514zo3n9RotGrsCz0SCgCD4hAnFUzQoyU208hRNrkPv98AI0U+rWwlelbtOZAq395ACOn1UfRZKOCuuOkS1RKJLm2qDuQOyANAsJwqNbf7MCEtWIQ==","691f8ca61c6b4dcbb0aeb5f4","691fb95b478bba25ad3d3813","index1","<span style='color:red'>Fail,<span style='color:red'>Fail,<span style='color:green'>Lift,<span style='color:green'>Lift,<span style='color:red'>Fail,<span style='color:red'>Fail,<span style='color:red'>Fail,<span style='color:red'>Fail,<span style='color:green'>Lift,<span style='color:red'>Fail,<span style='color:red'>Fail,<span style='color:green'>Lift","<span style='color:red'>Fail,<span style='color:red'>Fail,<span style='color:green'>Lift,<span style='color:green'>Lift,<span style='color:green'>Lift,<span style='color:green'>Lift,<span style='color:red'>Fail,<span style='color:green'>Lift,<span style='color:green'>Lift,<span style='color:green'>Lift,<span style='color:red'>Fail,<span style='color:green'>Lift","<span style='color:red'>Fail,<span style='color:green'>Lift,<span style='color:green'>Lift,<span style='color:red'>Fail,<span style='color:green'>Lift,<span style='color:green'>Lift","0,0,1,1,0,0,0,0,1,0,0,1","0,0,1,1,1,1,0,1,1,1,0,1","0,1,1,0,1,1",10,20,20,"","","","","{""box1"":""7"",""box2"":""5""}","",1,"round1_outcome",1,1,1,7,5,NA,NA,0,0,10,7,5,NA,NA,0,0,10,NA,NA,NA,NA,NA,NA,NA,NA,NA,NA,NA,NA,NA,NA,NA,NA,NA,NA,NA,NA,NA,NA,NA,"",NA,NA,NA,NA,NA,NA,NA,NA,NA,2025-11-21 01:13:36
"30796","https://psyc-201.github.io/xiang2023/exp/index1.html?PROLIFIC_PID=REDACTED&STUDY_ID=691f8ca61c6b4dcbb0aeb5f4&SESSION_ID=691fb95b478bba25ad3d3813","survey-html-form",9,260043,"0.0-309.0","Qycb9gtL+nQVUfeNstk1zrYv4SOGZFhAy2SHdLghTSBl2HgnR97AFgpaRgMN2kUCZ332PpOlmGiuT2dWEnann41gL1HmspFSNiYpNZkaSsxG/CW6cPGgKzVpBiQmnpsvniwqZAailQknevZwmqQ5yOLR0nrUsbNOwb6Qe1RdFBWrK+OTag0AUM0qfGcUeNrDs9upCxC2hv3H3gHeR6Mi1VgqtTvyzPzI3oesJ514zo3n9RotGrsCz0SCgCD4hAnFUzQoyU208hRNrkPv98AI0U+rWwlelbtOZAq395ACOn1UfRZKOCuuOkS1RKJLm2qDuQOyANAsJwqNbf7MCEtWIQ==","691f8ca61c6b4dcbb0aeb5f4","691fb95b478bba25ad3d3813","index1","<span style='color:red'>Fail,<span style='color:red'>Fail,<span style='color:green'>Lift,<span style='color:green'>Lift,<span style='color:red'>Fail,<span style='color:red'>Fail,<span style='color:red'>Fail,<span style='color:red'>Fail,<span style='color:green'>Lift,<span style='color:red'>Fail,<span style='color:red'>Fail,<span style='color:green'>Lift","<span style='color:red'>Fail,<span style='color:red'>Fail,<span style='color:green'>Lift,<span style='color:green'>Lift,<span style='color:green'>Lift,<span style='color:green'>Lift,<span style='color:red'>Fail,<span style='color:green'>Lift,<span style='color:green'>Lift,<span style='color:green'>Lift,<span style='color:red'>Fail,<span style='color:green'>Lift","<span style='color:red'>Fail,<span style='color:green'>Lift,<span style='color:green'>Lift,<span style='color:red'>Fail,<span style='color:green'>Lift,<span style='color:green'>Lift","0,0,1,1,0,0,0,0,1,0,0,1","0,0,1,1,1,1,0,1,1,1,0,1","0,1,1,0,1,1",10,20,20,"","","","","{""box1"":""75"",""box2"":""60""}","",1,"round2_ready",2,1,2,NA,NA,NA,NA,NA,NA,NA,NA,NA,NA,NA,NA,NA,NA,75,60,75,60,NA,NA,NA,NA,NA,NA,NA,NA,NA,NA,NA,NA,NA,NA,NA,NA,NA,NA,NA,"",NA,NA,NA,NA,NA,NA,NA,NA,NA,2025-11-21 01:13:36
"26926.5","https://psyc-201.github.io/xiang2023/exp/index1.html?PROLIFIC_PID=REDACTED&STUDY_ID=691f8ca61c6b4dcbb0aeb5f4&SESSION_ID=691fb95b478bba25ad3d3813","survey-html-form",10,286972,"0.0-310.0","Qycb9gtL+nQVUfeNstk1zrYv4SOGZFhAy2SHdLghTSBl2HgnR97AFgpaRgMN2kUCZ332PpOlmGiuT2dWEnann41gL1HmspFSNiYpNZkaSsxG/CW6cPGgKzVpBiQmnpsvniwqZAailQknevZwmqQ5yOLR0nrUsbNOwb6Qe1RdFBWrK+OTag0AUM0qfGcUeNrDs9upCxC2hv3H3gHeR6Mi1VgqtTvyzPzI3oesJ514zo3n9RotGrsCz0SCgCD4hAnFUzQoyU208hRNrkPv98AI0U+rWwlelbtOZAq395ACOn1UfRZKOCuuOkS1RKJLm2qDuQOyANAsJwqNbf7MCEtWIQ==","691f8ca61c6b4dcbb0aeb5f4","691fb95b478bba25ad3d3813","index1","<span style='color:red'>Fail,<span style='color:red'>Fail,<span style='color:green'>Lift,<span style='color:green'>Lift,<span style='color:red'>Fail,<span style='color:red'>Fail,<span style='color:red'>Fail,<span style='color:red'>Fail,<span style='color:green'>Lift,<span style='color:red'>Fail,<span style='color:red'>Fail,<span style='color:green'>Lift","<span style='color:red'>Fail,<span style='color:red'>Fail,<span style='color:green'>Lift,<span style='color:green'>Lift,<span style='color:green'>Lift,<span style='color:green'>Lift,<span style='color:red'>Fail,<span style='color:green'>Lift,<span style='color:green'>Lift,<span style='color:green'>Lift,<span style='color:red'>Fail,<span style='color:green'>Lift","<span style='color:red'>Fail,<span style='color:green'>Lift,<span style='color:green'>Lift,<span style='color:red'>Fail,<span style='color:green'>Lift,<span style='color:green'>Lift","0,0,1,1,0,0,0,0,1,0,0,1","0,0,1,1,1,1,0,1,1,1,0,1","0,1,1,0,1,1",10,20,20,"","","","","{""box1"":""5"",""box2"":""7"",""box4"":""60""}","",1,"round2_outcome",3,1,2,5,7,NA,60,0,1,20,NA,NA,NA,NA,NA,NA,NA,NA,NA,NA,NA,5,7,NA,60,0,1,20,NA,NA,NA,NA,NA,NA,NA,NA,NA,NA,NA,NA,"",NA,NA,NA,NA,NA,NA,NA,NA,NA,2025-11-21 01:13:36
"8194.699999928474","https://psyc-201.github.io/xiang2023/exp/index1.html?PROLIFIC_PID=REDACTED&STUDY_ID=691f8ca61c6b4dcbb0aeb5f4&SESSION_ID=691fb95b478bba25ad3d3813","survey-html-form",11,295167,"0.0-311.0","Qycb9gtL+nQVUfeNstk1zrYv4SOGZFhAy2SHdLghTSBl2HgnR97AFgpaRgMN2kUCZ332PpOlmGiuT2dWEnann41gL1HmspFSNiYpNZkaSsxG/CW6cPGgKzVpBiQmnpsvniwqZAailQknevZwmqQ5yOLR0nrUsbNOwb6Qe1RdFBWrK+OTag0AUM0qfGcUeNrDs9upCxC2hv3H3gHeR6Mi1VgqtTvyzPzI3oesJ514zo3n9RotGrsCz0SCgCD4hAnFUzQoyU208hRNrkPv98AI0U+rWwlelbtOZAq395ACOn1UfRZKOCuuOkS1RKJLm2qDuQOyANAsJwqNbf7MCEtWIQ==","691f8ca61c6b4dcbb0aeb5f4","691fb95b478bba25ad3d3813","index1","<span style='color:red'>Fail,<span style='color:red'>Fail,<span style='color:green'>Lift,<span style='color:green'>Lift,<span style='color:red'>Fail,<span style='color:red'>Fail,<span style='color:red'>Fail,<span style='color:red'>Fail,<span style='color:green'>Lift,<span style='color:red'>Fail,<span style='color:red'>Fail,<span style='color:green'>Lift","<span style='color:red'>Fail,<span style='color:red'>Fail,<span style='color:green'>Lift,<span style='color:green'>Lift,<span style='color:green'>Lift,<span style='color:green'>Lift,<span style='color:red'>Fail,<span style='color:green'>Lift,<span style='color:green'>Lift,<span style='color:green'>Lift,<span style='color:red'>Fail,<span style='color:green'>Lift","<span style='color:red'>Fail,<span style='color:green'>Lift,<span style='color:green'>Lift,<span style='color:red'>Fail,<span style='color:green'>Lift,<span style='color:green'>Lift","0,0,1,1,0,0,0,0,1,0,0,1","0,0,1,1,1,1,0,1,1,1,0,1","0,1,1,0,1,1",10,20,20,"","","","","{""box1"":""100""}","",1,"round3_ready",4,1,3,NA,NA,NA,NA,NA,NA,NA,NA,NA,NA,NA,NA,NA,NA,100,100,NA,NA,NA,NA,NA,NA,NA,NA,NA,100,100,NA,NA,NA,NA,NA,NA,NA,NA,NA,NA,"",NA,NA,NA,NA,NA,NA,NA,NA,NA,2025-11-21 01:13:36
"25479","https://psyc-201.github.io/xiang2023/exp/index1.html?PROLIFIC_PID=REDACTED&STUDY_ID=691f8ca61c6b4dcbb0aeb5f4&SESSION_ID=691fb95b478bba25ad3d3813","survey-html-form",12,320648,"0.0-313.0-0.0","Qycb9gtL+nQVUfeNstk1zrYv4SOGZFhAy2SHdLghTSBl2HgnR97AFgpaRgMN2kUCZ332PpOlmGiuT2dWEnann41gL1HmspFSNiYpNZkaSsxG/CW6cPGgKzVpBiQmnpsvniwqZAailQknevZwmqQ5yOLR0nrUsbNOwb6Qe1RdFBWrK+OTag0AUM0qfGcUeNrDs9upCxC2hv3H3gHeR6Mi1VgqtTvyzPzI3oesJ514zo3n9RotGrsCz0SCgCD4hAnFUzQoyU208hRNrkPv98AI0U+rWwlelbtOZAq395ACOn1UfRZKOCuuOkS1RKJLm2qDuQOyANAsJwqNbf7MCEtWIQ==","691f8ca61c6b4dcbb0aeb5f4","691fb95b478bba25ad3d3813","index1","<span style='color:red'>Fail,<span style='color:red'>Fail,<span style='color:green'>Lift,<span style='color:green'>Lift,<span style='color:red'>Fail,<span style='color:red'>Fail,<span style='color:red'>Fail,<span style='color:red'>Fail,<span style='color:green'>Lift,<span style='color:red'>Fail,<span style='color:red'>Fail,<span style='color:green'>Lift","<span style='color:red'>Fail,<span style='color:red'>Fail,<span style='color:green'>Lift,<span style='color:green'>Lift,<span style='color:green'>Lift,<span style='color:green'>Lift,<span style='color:red'>Fail,<span style='color:green'>Lift,<span style='color:green'>Lift,<span style='color:green'>Lift,<span style='color:red'>Fail,<span style='color:green'>Lift","<span style='color:red'>Fail,<span style='color:green'>Lift,<span style='color:green'>Lift,<span style='color:red'>Fail,<span style='color:green'>Lift,<span style='color:green'>Lift","0,0,1,1,0,0,0,0,1,0,0,1","0,0,1,1,1,1,0,1,1,1,0,1","0,1,1,0,1,1",10,20,20,"","","","","{""box1"":""5"",""box2"":""7"",""box3"":""0"",""box4"":""60""}","",1,"round3_fail",5,1,3,5,7,NA,NA,0,0,20,NA,NA,NA,NA,NA,NA,NA,NA,NA,NA,NA,NA,NA,NA,NA,NA,NA,NA,NA,NA,0,1,5,7,0,0,20,NA,NA,NA,"",NA,NA,NA,NA,NA,NA,NA,NA,NA,2025-11-21 01:13:36
"null","https://psyc-201.github.io/xiang2023/exp/index1.html?PROLIFIC_PID=REDACTED&STUDY_ID=691f8ca61c6b4dcbb0aeb5f4&SESSION_ID=691fb95b478bba25ad3d3813","html-keyboard-response",13,325651,"0.0-314.0-0.0","Qycb9gtL+nQVUfeNstk1zrYv4SOGZFhAy2SHdLghTSBl2HgnR97AFgpaRgMN2kUCZ332PpOlmGiuT2dWEnann41gL1HmspFSNiYpNZkaSsxG/CW6cPGgKzVpBiQmnpsvniwqZAailQknevZwmqQ5yOLR0nrUsbNOwb6Qe1RdFBWrK+OTag0AUM0qfGcUeNrDs9upCxC2hv3H3gHeR6Mi1VgqtTvyzPzI3oesJ514zo3n9RotGrsCz0SCgCD4hAnFUzQoyU208hRNrkPv98AI0U+rWwlelbtOZAq395ACOn1UfRZKOCuuOkS1RKJLm2qDuQOyANAsJwqNbf7MCEtWIQ==","691f8ca61c6b4dcbb0aeb5f4","691fb95b478bba25ad3d3813","index1","<span style='color:red'>Fail,<span style='color:red'>Fail,<span style='color:green'>Lift,<span style='color:green'>Lift,<span style='color:red'>Fail,<span style='color:red'>Fail,<span style='color:red'>Fail,<span style='color:red'>Fail,<span style='color:green'>Lift,<span style='color:red'>Fail,<span style='color:red'>Fail,<span style='color:green'>Lift","<span style='color:red'>Fail,<span style='color:red'>Fail,<span style='color:green'>Lift,<span style='color:green'>Lift,<span style='color:green'>Lift,<span style='color:green'>Lift,<span style='color:red'>Fail,<span style='color:green'>Lift,<span style='color:green'>Lift,<span style='color:green'>Lift,<span style='color:red'>Fail,<span style='color:green'>Lift","<span style='color:red'>Fail,<span style='color:green'>Lift,<span style='color:green'>Lift,<span style='color:red'>Fail,<span style='color:green'>Lift,<span style='color:green'>Lift","0,0,1,1,0,0,0,0,1,0,0,1","0,0,1,1,1,1,0,1,1,1,0,1","0,1,1,0,1,1",10,20,20,"","","<p> <b>Oops you failed an attention check!</b> </p><p> <b>We will have to discard your data if you fail another one.</b> </p><p> <b>Please pay more attention!</b> </p>","null","","",2,"warning",NA,NA,NA,NA,NA,NA,NA,NA,NA,NA,NA,NA,NA,NA,NA,NA,NA,NA,NA,NA,NA,NA,NA,NA,NA,NA,NA,NA,NA,NA,NA,NA,NA,NA,NA,NA,NA,1,NA,NA,"",NA,NA,NA,NA,NA,NA,NA,NA,NA,2025-11-21 01:13:36
"null","https://psyc-201.github.io/xiang2023/exp/index1.html?PROLIFIC_PID=REDACTED&STUDY_ID=691f8ca61c6b4dcbb0aeb5f4&SESSION_ID=691fb95b478bba25ad3d3813","html-keyboard-response",14,328654,"0.0-316.0","Qycb9gtL+nQVUfeNstk1zrYv4SOGZFhAy2SHdLghTSBl2HgnR97AFgpaRgMN2kUCZ332PpOlmGiuT2dWEnann41gL1HmspFSNiYpNZkaSsxG/CW6cPGgKzVpBiQmnpsvniwqZAailQknevZwmqQ5yOLR0nrUsbNOwb6Qe1RdFBWrK+OTag0AUM0qfGcUeNrDs9upCxC2hv3H3gHeR6Mi1VgqtTvyzPzI3oesJ514zo3n9RotGrsCz0SCgCD4hAnFUzQoyU208hRNrkPv98AI0U+rWwlelbtOZAq395ACOn1UfRZKOCuuOkS1RKJLm2qDuQOyANAsJwqNbf7MCEtWIQ==","691f8ca61c6b4dcbb0aeb5f4","691fb95b478bba25ad3d3813","index1","<span style='color:red'>Fail,<span style='color:red'>Fail,<span style='color:green'>Lift,<span style='color:green'>Lift,<span style='color:red'>Fail,<span style='color:red'>Fail,<span style='color:red'>Fail,<span style='color:red'>Fail,<span style='color:green'>Lift,<span style='color:red'>Fail,<span style='color:red'>Fail,<span style='color:green'>Lift","<span style='color:red'>Fail,<span style='color:red'>Fail,<span style='color:green'>Lift,<span style='color:green'>Lift,<span style='color:green'>Lift,<span style='color:green'>Lift,<span style='color:red'>Fail,<span style='color:green'>Lift,<span style='color:green'>Lift,<span style='color:green'>Lift,<span style='color:red'>Fail,<span style='color:green'>Lift","<span style='color:red'>Fail,<span style='color:green'>Lift,<span style='color:green'>Lift,<span style='color:red'>Fail,<span style='color:green'>Lift,<span style='color:green'>Lift","0,0,1,1,0,0,0,0,1,0,0,1","0,0,1,1,1,1,0,1,1,1,0,1","0,1,1,0,1,1",10,20,20,"","","<p style='font-size:30px'><b> New Contest! </b></p>","null","","",2,"",NA,NA,NA,NA,NA,NA,NA,NA,NA,NA,NA,NA,NA,NA,NA,NA,NA,NA,NA,NA,NA,NA,NA,NA,NA,NA,NA,NA,NA,NA,NA,NA,NA,NA,NA,NA,NA,NA,NA,NA,"",NA,NA,NA,NA,NA,NA,NA,NA,NA,2025-11-21 01:13:36
"15959.399999976158","https://psyc-201.github.io/xiang2023/exp/index1.html?PROLIFIC_PID=REDACTED&STUDY_ID=691f8ca61c6b4dcbb0aeb5f4&SESSION_ID=691fb95b478bba25ad3d3813","survey-html-form",15,344616,"0.0-317.0","Qycb9gtL+nQVUfeNstk1zrYv4SOGZFhAy2SHdLghTSBl2HgnR97AFgpaRgMN2kUCZ332PpOlmGiuT2dWEnann41gL1HmspFSNiYpNZkaSsxG/CW6cPGgKzVpBiQmnpsvniwqZAailQknevZwmqQ5yOLR0nrUsbNOwb6Qe1RdFBWrK+OTag0AUM0qfGcUeNrDs9upCxC2hv3H3gHeR6Mi1VgqtTvyzPzI3oesJ514zo3n9RotGrsCz0SCgCD4hAnFUzQoyU208hRNrkPv98AI0U+rWwlelbtOZAq395ACOn1UfRZKOCuuOkS1RKJLm2qDuQOyANAsJwqNbf7MCEtWIQ==","691f8ca61c6b4dcbb0aeb5f4","691fb95b478bba25ad3d3813","index1","<span style='color:red'>Fail,<span style='color:red'>Fail,<span style='color:green'>Lift,<span style='color:green'>Lift,<span style='color:red'>Fail,<span style='color:red'>Fail,<span style='color:red'>Fail,<span style='color:red'>Fail,<span style='color:green'>Lift,<span style='color:red'>Fail,<span style='color:red'>Fail,<span style='color:green'>Lift","<span style='color:red'>Fail,<span style='color:red'>Fail,<span style='color:green'>Lift,<span style='color:green'>Lift,<span style='color:green'>Lift,<span style='color:green'>Lift,<span style='color:red'>Fail,<span style='color:green'>Lift,<span style='color:green'>Lift,<span style='color:green'>Lift,<span style='color:red'>Fail,<span style='color:green'>Lift","<span style='color:red'>Fail,<span style='color:green'>Lift,<span style='color:green'>Lift,<span style='color:red'>Fail,<span style='color:green'>Lift,<span style='color:green'>Lift","0,0,1,1,0,0,0,0,1,0,0,1","0,0,1,1,1,1,0,1,1,1,0,1","0,1,1,0,1,1",10,20,20,"","","","","{""box1"":""5"",""box2"":""5""}","",2,"round1_outcome",1,2,1,5,5,NA,NA,0,0,10,5,5,NA,NA,0,0,10,NA,NA,NA,NA,NA,NA,NA,NA,NA,NA,NA,NA,NA,NA,NA,NA,NA,NA,NA,NA,NA,NA,NA,"",NA,NA,NA,NA,NA,NA,NA,NA,NA,2025-11-21 01:13:36
"15374.5","https://psyc-201.github.io/xiang2023/exp/index1.html?PROLIFIC_PID=REDACTED&STUDY_ID=691f8ca61c6b4dcbb0aeb5f4&SESSION_ID=691fb95b478bba25ad3d3813","survey-html-form",16,359992,"0.0-318.0","Qycb9gtL+nQVUfeNstk1zrYv4SOGZFhAy2SHdLghTSBl2HgnR97AFgpaRgMN2kUCZ332PpOlmGiuT2dWEnann41gL1HmspFSNiYpNZkaSsxG/CW6cPGgKzVpBiQmnpsvniwqZAailQknevZwmqQ5yOLR0nrUsbNOwb6Qe1RdFBWrK+OTag0AUM0qfGcUeNrDs9upCxC2hv3H3gHeR6Mi1VgqtTvyzPzI3oesJ514zo3n9RotGrsCz0SCgCD4hAnFUzQoyU208hRNrkPv98AI0U+rWwlelbtOZAq395ACOn1UfRZKOCuuOkS1RKJLm2qDuQOyANAsJwqNbf7MCEtWIQ==","691f8ca61c6b4dcbb0aeb5f4","691fb95b478bba25ad3d3813","index1","<span style='color:red'>Fail,<span style='color:red'>Fail,<span style='color:green'>Lift,<span style='color:green'>Lift,<span style='color:red'>Fail,<span style='color:red'>Fail,<span style='color:red'>Fail,<span style='color:red'>Fail,<span style='color:green'>Lift,<span style='color:red'>Fail,<span style='color:red'>Fail,<span style='color:green'>Lift","<span style='color:red'>Fail,<span style='color:red'>Fail,<span style='color:green'>Lift,<span style='color:green'>Lift,<span style='color:green'>Lift,<span style='color:green'>Lift,<span style='color:red'>Fail,<span style='color:green'>Lift,<span style='color:green'>Lift,<span style='color:green'>Lift,<span style='color:red'>Fail,<span style='color:green'>Lift","<span style='color:red'>Fail,<span style='color:green'>Lift,<span style='color:green'>Lift,<span style='color:red'>Fail,<span style='color:green'>Lift,<span style='color:green'>Lift","0,0,1,1,0,0,0,0,1,0,0,1","0,0,1,1,1,1,0,1,1,1,0,1","0,1,1,0,1,1",10,20,20,"","","","","{""box1"":""70"",""box2"":""70""}","",2,"round2_ready",2,2,2,NA,NA,NA,NA,NA,NA,NA,NA,NA,NA,NA,NA,NA,NA,70,70,70,70,NA,NA,NA,NA,NA,NA,NA,NA,NA,NA,NA,NA,NA,NA,NA,NA,NA,NA,NA,"",NA,NA,NA,NA,NA,NA,NA,NA,NA,2025-11-21 01:13:36
"26635.700000047684","https://psyc-201.github.io/xiang2023/exp/index1.html?PROLIFIC_PID=REDACTED&STUDY_ID=691f8ca61c6b4dcbb0aeb5f4&SESSION_ID=691fb95b478bba25ad3d3813","survey-html-form",17,386629,"0.0-319.0","Qycb9gtL+nQVUfeNstk1zrYv4SOGZFhAy2SHdLghTSBl2HgnR97AFgpaRgMN2kUCZ332PpOlmGiuT2dWEnann41gL1HmspFSNiYpNZkaSsxG/CW6cPGgKzVpBiQmnpsvniwqZAailQknevZwmqQ5yOLR0nrUsbNOwb6Qe1RdFBWrK+OTag0AUM0qfGcUeNrDs9upCxC2hv3H3gHeR6Mi1VgqtTvyzPzI3oesJ514zo3n9RotGrsCz0SCgCD4hAnFUzQoyU208hRNrkPv98AI0U+rWwlelbtOZAq395ACOn1UfRZKOCuuOkS1RKJLm2qDuQOyANAsJwqNbf7MCEtWIQ==","691f8ca61c6b4dcbb0aeb5f4","691fb95b478bba25ad3d3813","index1","<span style='color:red'>Fail,<span style='color:red'>Fail,<span style='color:green'>Lift,<span style='color:green'>Lift,<span style='color:red'>Fail,<span style='color:red'>Fail,<span style='color:red'>Fail,<span style='color:red'>Fail,<span style='color:green'>Lift,<span style='color:red'>Fail,<span style='color:red'>Fail,<span style='color:green'>Lift","<span style='color:red'>Fail,<span style='color:red'>Fail,<span style='color:green'>Lift,<span style='color:green'>Lift,<span style='color:green'>Lift,<span style='color:green'>Lift,<span style='color:red'>Fail,<span style='color:green'>Lift,<span style='color:green'>Lift,<span style='color:green'>Lift,<span style='color:red'>Fail,<span style='color:green'>Lift","<span style='color:red'>Fail,<span style='color:green'>Lift,<span style='color:green'>Lift,<span style='color:red'>Fail,<span style='color:green'>Lift,<span style='color:green'>Lift","0,0,1,1,0,0,0,0,1,0,0,1","0,0,1,1,1,1,0,1,1,1,0,1","0,1,1,0,1,1",10,20,20,"","","","","{""box1"":""7"",""box2"":""7"",""box3"":""40"",""box4"":""40""}","",2,"round2_outcome",3,2,2,7,7,40,40,1,1,20,NA,NA,NA,NA,NA,NA,NA,NA,NA,NA,NA,7,7,40,40,1,1,20,NA,NA,NA,NA,NA,NA,NA,NA,NA,NA,NA,NA,"",NA,NA,NA,NA,NA,NA,NA,NA,NA,2025-11-21 01:13:36
"6593.700000047684","https://psyc-201.github.io/xiang2023/exp/index1.html?PROLIFIC_PID=REDACTED&STUDY_ID=691f8ca61c6b4dcbb0aeb5f4&SESSION_ID=691fb95b478bba25ad3d3813","survey-html-form",18,393224,"0.0-320.0","Qycb9gtL+nQVUfeNstk1zrYv4SOGZFhAy2SHdLghTSBl2HgnR97AFgpaRgMN2kUCZ332PpOlmGiuT2dWEnann41gL1HmspFSNiYpNZkaSsxG/CW6cPGgKzVpBiQmnpsvniwqZAailQknevZwmqQ5yOLR0nrUsbNOwb6Qe1RdFBWrK+OTag0AUM0qfGcUeNrDs9upCxC2hv3H3gHeR6Mi1VgqtTvyzPzI3oesJ514zo3n9RotGrsCz0SCgCD4hAnFUzQoyU208hRNrkPv98AI0U+rWwlelbtOZAq395ACOn1UfRZKOCuuOkS1RKJLm2qDuQOyANAsJwqNbf7MCEtWIQ==","691f8ca61c6b4dcbb0aeb5f4","691fb95b478bba25ad3d3813","index1","<span style='color:red'>Fail,<span style='color:red'>Fail,<span style='color:green'>Lift,<span style='color:green'>Lift,<span style='color:red'>Fail,<span style='color:red'>Fail,<span style='color:red'>Fail,<span style='color:red'>Fail,<span style='color:green'>Lift,<span style='color:red'>Fail,<span style='color:red'>Fail,<span style='color:green'>Lift","<span style='color:red'>Fail,<span style='color:red'>Fail,<span style='color:green'>Lift,<span style='color:green'>Lift,<span style='color:green'>Lift,<span style='color:green'>Lift,<span style='color:red'>Fail,<span style='color:green'>Lift,<span style='color:green'>Lift,<span style='color:green'>Lift,<span style='color:red'>Fail,<span style='color:green'>Lift","<span style='color:red'>Fail,<span style='color:green'>Lift,<span style='color:green'>Lift,<span style='color:red'>Fail,<span style='color:green'>Lift,<span style='color:green'>Lift","0,0,1,1,0,0,0,0,1,0,0,1","0,0,1,1,1,1,0,1,1,1,0,1","0,1,1,0,1,1",10,20,20,"","","","","{""box1"":""100""}","",2,"round3_ready",4,2,3,NA,NA,NA,NA,NA,NA,NA,NA,NA,NA,NA,NA,NA,NA,100,100,NA,NA,NA,NA,NA,NA,NA,NA,NA,100,100,NA,NA,NA,NA,NA,NA,NA,NA,NA,NA,"",NA,NA,NA,NA,NA,NA,NA,NA,NA,2025-11-21 01:13:36
"17994.699999928474","https://psyc-201.github.io/xiang2023/exp/index1.html?PROLIFIC_PID=REDACTED&STUDY_ID=691f8ca61c6b4dcbb0aeb5f4&SESSION_ID=691fb95b478bba25ad3d3813","survey-html-form",19,411220,"0.0-321.0-0.0","Qycb9gtL+nQVUfeNstk1zrYv4SOGZFhAy2SHdLghTSBl2HgnR97AFgpaRgMN2kUCZ332PpOlmGiuT2dWEnann41gL1HmspFSNiYpNZkaSsxG/CW6cPGgKzVpBiQmnpsvniwqZAailQknevZwmqQ5yOLR0nrUsbNOwb6Qe1RdFBWrK+OTag0AUM0qfGcUeNrDs9upCxC2hv3H3gHeR6Mi1VgqtTvyzPzI3oesJ514zo3n9RotGrsCz0SCgCD4hAnFUzQoyU208hRNrkPv98AI0U+rWwlelbtOZAq395ACOn1UfRZKOCuuOkS1RKJLm2qDuQOyANAsJwqNbf7MCEtWIQ==","691f8ca61c6b4dcbb0aeb5f4","691fb95b478bba25ad3d3813","index1","<span style='color:red'>Fail,<span style='color:red'>Fail,<span style='color:green'>Lift,<span style='color:green'>Lift,<span style='color:red'>Fail,<span style='color:red'>Fail,<span style='color:red'>Fail,<span style='color:red'>Fail,<span style='color:green'>Lift,<span style='color:red'>Fail,<span style='color:red'>Fail,<span style='color:green'>Lift","<span style='color:red'>Fail,<span style='color:red'>Fail,<span style='color:green'>Lift,<span style='color:green'>Lift,<span style='color:green'>Lift,<span style='color:green'>Lift,<span style='color:red'>Fail,<span style='color:green'>Lift,<span style='color:green'>Lift,<span style='color:green'>Lift,<span style='color:red'>Fail,<span style='color:green'>Lift","<span style='color:red'>Fail,<span style='color:green'>Lift,<span style='color:green'>Lift,<span style='color:red'>Fail,<span style='color:green'>Lift,<span style='color:green'>Lift","0,0,1,1,0,0,0,0,1,0,0,1","0,0,1,1,1,1,0,1,1,1,0,1","0,1,1,0,1,1",10,20,20,"","","","","{""box1"":""7"",""box2"":""7"",""box3"":""50"",""box4"":""50""}","",3,"round3_lift",5,2,3,7,7,50,50,1,1,20,NA,NA,NA,NA,NA,NA,NA,NA,NA,NA,NA,NA,NA,NA,NA,NA,NA,NA,NA,NA,NA,NA,7,7,1,1,20,NA,50,50,"",NA,NA,NA,NA,NA,NA,NA,NA,NA,2025-11-21 01:13:36
"null","https://psyc-201.github.io/xiang2023/exp/index1.html?PROLIFIC_PID=REDACTED&STUDY_ID=691f8ca61c6b4dcbb0aeb5f4&SESSION_ID=691fb95b478bba25ad3d3813","html-keyboard-response",20,414223,"0.0-325.0","Qycb9gtL+nQVUfeNstk1zrYv4SOGZFhAy2SHdLghTSBl2HgnR97AFgpaRgMN2kUCZ332PpOlmGiuT2dWEnann41gL1HmspFSNiYpNZkaSsxG/CW6cPGgKzVpBiQmnpsvniwqZAailQknevZwmqQ5yOLR0nrUsbNOwb6Qe1RdFBWrK+OTag0AUM0qfGcUeNrDs9upCxC2hv3H3gHeR6Mi1VgqtTvyzPzI3oesJ514zo3n9RotGrsCz0SCgCD4hAnFUzQoyU208hRNrkPv98AI0U+rWwlelbtOZAq395ACOn1UfRZKOCuuOkS1RKJLm2qDuQOyANAsJwqNbf7MCEtWIQ==","691f8ca61c6b4dcbb0aeb5f4","691fb95b478bba25ad3d3813","index1","<span style='color:red'>Fail,<span style='color:red'>Fail,<span style='color:green'>Lift,<span style='color:green'>Lift,<span style='color:red'>Fail,<span style='color:red'>Fail,<span style='color:red'>Fail,<span style='color:red'>Fail,<span style='color:green'>Lift,<span style='color:red'>Fail,<span style='color:red'>Fail,<span style='color:green'>Lift","<span style='color:red'>Fail,<span style='color:red'>Fail,<span style='color:green'>Lift,<span style='color:green'>Lift,<span style='color:green'>Lift,<span style='color:green'>Lift,<span style='color:red'>Fail,<span style='color:green'>Lift,<span style='color:green'>Lift,<span style='color:green'>Lift,<span style='color:red'>Fail,<span style='color:green'>Lift","<span style='color:red'>Fail,<span style='color:green'>Lift,<span style='color:green'>Lift,<span style='color:red'>Fail,<span style='color:green'>Lift,<span style='color:green'>Lift","0,0,1,1,0,0,0,0,1,0,0,1","0,0,1,1,1,1,0,1,1,1,0,1","0,1,1,0,1,1",10,20,20,"","","<p style='font-size:30px'><b> New Contest! </b></p>","null","","",3,"",NA,NA,NA,NA,NA,NA,NA,NA,NA,NA,NA,NA,NA,NA,NA,NA,NA,NA,NA,NA,NA,NA,NA,NA,NA,NA,NA,NA,NA,NA,NA,NA,NA,NA,NA,NA,NA,NA,NA,NA,"",NA,NA,NA,NA,NA,NA,NA,NA,NA,2025-11-21 01:13:36
"32274.200000047684","https://psyc-201.github.io/xiang2023/exp/index1.html?PROLIFIC_PID=REDACTED&STUDY_ID=691f8ca61c6b4dcbb0aeb5f4&SESSION_ID=691fb95b478bba25ad3d3813","survey-html-form",21,446500,"0.0-326.0","Qycb9gtL+nQVUfeNstk1zrYv4SOGZFhAy2SHdLghTSBl2HgnR97AFgpaRgMN2kUCZ332PpOlmGiuT2dWEnann41gL1HmspFSNiYpNZkaSsxG/CW6cPGgKzVpBiQmnpsvniwqZAailQknevZwmqQ5yOLR0nrUsbNOwb6Qe1RdFBWrK+OTag0AUM0qfGcUeNrDs9upCxC2hv3H3gHeR6Mi1VgqtTvyzPzI3oesJ514zo3n9RotGrsCz0SCgCD4hAnFUzQoyU208hRNrkPv98AI0U+rWwlelbtOZAq395ACOn1UfRZKOCuuOkS1RKJLm2qDuQOyANAsJwqNbf7MCEtWIQ==","691f8ca61c6b4dcbb0aeb5f4","691fb95b478bba25ad3d3813","index1","<span style='color:red'>Fail,<span style='color:red'>Fail,<span style='color:green'>Lift,<span style='color:green'>Lift,<span style='color:red'>Fail,<span style='color:red'>Fail,<span style='color:red'>Fail,<span style='color:red'>Fail,<span style='color:green'>Lift,<span style='color:red'>Fail,<span style='color:red'>Fail,<span style='color:green'>Lift","<span style='color:red'>Fail,<span style='color:red'>Fail,<span style='color:green'>Lift,<span style='color:green'>Lift,<span style='color:green'>Lift,<span style='color:green'>Lift,<span style='color:red'>Fail,<span style='color:green'>Lift,<span style='color:green'>Lift,<span style='color:green'>Lift,<span style='color:red'>Fail,<span style='color:green'>Lift","<span style='color:red'>Fail,<span style='color:green'>Lift,<span style='color:green'>Lift,<span style='color:red'>Fail,<span style='color:green'>Lift,<span style='color:green'>Lift","0,0,1,1,0,0,0,0,1,0,0,1","0,0,1,1,1,1,0,1,1,1,0,1","0,1,1,0,1,1",10,20,20,"","","","","{""box1"":""7"",""box2"":""5"",""box3"":""80""}","",3,"round1_outcome",1,3,1,7,5,80,NA,1,0,10,7,5,80,NA,1,0,10,NA,NA,NA,NA,NA,NA,NA,NA,NA,NA,NA,NA,NA,NA,NA,NA,NA,NA,NA,NA,NA,NA,NA,"",NA,NA,NA,NA,NA,NA,NA,NA,NA,2025-11-21 01:13:36
"13974.700000047684","https://psyc-201.github.io/xiang2023/exp/index1.html?PROLIFIC_PID=REDACTED&STUDY_ID=691f8ca61c6b4dcbb0aeb5f4&SESSION_ID=691fb95b478bba25ad3d3813","survey-html-form",22,460476,"0.0-327.0","Qycb9gtL+nQVUfeNstk1zrYv4SOGZFhAy2SHdLghTSBl2HgnR97AFgpaRgMN2kUCZ332PpOlmGiuT2dWEnann41gL1HmspFSNiYpNZkaSsxG/CW6cPGgKzVpBiQmnpsvniwqZAailQknevZwmqQ5yOLR0nrUsbNOwb6Qe1RdFBWrK+OTag0AUM0qfGcUeNrDs9upCxC2hv3H3gHeR6Mi1VgqtTvyzPzI3oesJ514zo3n9RotGrsCz0SCgCD4hAnFUzQoyU208hRNrkPv98AI0U+rWwlelbtOZAq395ACOn1UfRZKOCuuOkS1RKJLm2qDuQOyANAsJwqNbf7MCEtWIQ==","691f8ca61c6b4dcbb0aeb5f4","691fb95b478bba25ad3d3813","index1","<span style='color:red'>Fail,<span style='color:red'>Fail,<span style='color:green'>Lift,<span style='color:green'>Lift,<span style='color:red'>Fail,<span style='color:red'>Fail,<span style='color:red'>Fail,<span style='color:red'>Fail,<span style='color:green'>Lift,<span style='color:red'>Fail,<span style='color:red'>Fail,<span style='color:green'>Lift","<span style='color:red'>Fail,<span style='color:red'>Fail,<span style='color:green'>Lift,<span style='color:green'>Lift,<span style='color:green'>Lift,<span style='color:green'>Lift,<span style='color:red'>Fail,<span style='color:green'>Lift,<span style='color:green'>Lift,<span style='color:green'>Lift,<span style='color:red'>Fail,<span style='color:green'>Lift","<span style='color:red'>Fail,<span style='color:green'>Lift,<span style='color:green'>Lift,<span style='color:red'>Fail,<span style='color:green'>Lift,<span style='color:green'>Lift","0,0,1,1,0,0,0,0,1,0,0,1","0,0,1,1,1,1,0,1,1,1,0,1","0,1,1,0,1,1",10,20,20,"","","","","{""box1"":""100"",""box2"":""90""}","",3,"round2_ready",2,3,2,NA,NA,NA,NA,NA,NA,NA,NA,NA,NA,NA,NA,NA,NA,100,90,100,90,NA,NA,NA,NA,NA,NA,NA,NA,NA,NA,NA,NA,NA,NA,NA,NA,NA,NA,NA,"",NA,NA,NA,NA,NA,NA,NA,NA,NA,2025-11-21 01:13:36
"31431.100000023842","https://psyc-201.github.io/xiang2023/exp/index1.html?PROLIFIC_PID=REDACTED&STUDY_ID=691f8ca61c6b4dcbb0aeb5f4&SESSION_ID=691fb95b478bba25ad3d3813","survey-html-form",23,491908,"0.0-328.0","Qycb9gtL+nQVUfeNstk1zrYv4SOGZFhAy2SHdLghTSBl2HgnR97AFgpaRgMN2kUCZ332PpOlmGiuT2dWEnann41gL1HmspFSNiYpNZkaSsxG/CW6cPGgKzVpBiQmnpsvniwqZAailQknevZwmqQ5yOLR0nrUsbNOwb6Qe1RdFBWrK+OTag0AUM0qfGcUeNrDs9upCxC2hv3H3gHeR6Mi1VgqtTvyzPzI3oesJ514zo3n9RotGrsCz0SCgCD4hAnFUzQoyU208hRNrkPv98AI0U+rWwlelbtOZAq395ACOn1UfRZKOCuuOkS1RKJLm2qDuQOyANAsJwqNbf7MCEtWIQ==","691f8ca61c6b4dcbb0aeb5f4","691fb95b478bba25ad3d3813","index1","<span style='color:red'>Fail,<span style='color:red'>Fail,<span style='color:green'>Lift,<span style='color:green'>Lift,<span style='color:red'>Fail,<span style='color:red'>Fail,<span style='color:red'>Fail,<span style='color:red'>Fail,<span style='color:green'>Lift,<span style='color:red'>Fail,<span style='color:red'>Fail,<span style='color:green'>Lift","<span style='color:red'>Fail,<span style='color:red'>Fail,<span style='color:green'>Lift,<span style='color:green'>Lift,<span style='color:green'>Lift,<span style='color:green'>Lift,<span style='color:red'>Fail,<span style='color:green'>Lift,<span style='color:green'>Lift,<span style='color:green'>Lift,<span style='color:red'>Fail,<span style='color:green'>Lift","<span style='color:red'>Fail,<span style='color:green'>Lift,<span style='color:green'>Lift,<span style='color:red'>Fail,<span style='color:green'>Lift,<span style='color:green'>Lift","0,0,1,1,0,0,0,0,1,0,0,1","0,0,1,1,1,1,0,1,1,1,0,1","0,1,1,0,1,1",10,20,20,"","","","","{""box1"":""7"",""box2"":""7"",""box3"":""40"",""box4"":""40""}","",3,"round2_outcome",3,3,2,7,7,40,40,1,1,20,NA,NA,NA,NA,NA,NA,NA,NA,NA,NA,NA,7,7,40,40,1,1,20,NA,NA,NA,NA,NA,NA,NA,NA,NA,NA,NA,NA,"",NA,NA,NA,NA,NA,NA,NA,NA,NA,2025-11-21 01:13:36
"5783.399999976158","https://psyc-201.github.io/xiang2023/exp/index1.html?PROLIFIC_PID=REDACTED&STUDY_ID=691f8ca61c6b4dcbb0aeb5f4&SESSION_ID=691fb95b478bba25ad3d3813","survey-html-form",24,497693,"0.0-329.0","Qycb9gtL+nQVUfeNstk1zrYv4SOGZFhAy2SHdLghTSBl2HgnR97AFgpaRgMN2kUCZ332PpOlmGiuT2dWEnann41gL1HmspFSNiYpNZkaSsxG/CW6cPGgKzVpBiQmnpsvniwqZAailQknevZwmqQ5yOLR0nrUsbNOwb6Qe1RdFBWrK+OTag0AUM0qfGcUeNrDs9upCxC2hv3H3gHeR6Mi1VgqtTvyzPzI3oesJ514zo3n9RotGrsCz0SCgCD4hAnFUzQoyU208hRNrkPv98AI0U+rWwlelbtOZAq395ACOn1UfRZKOCuuOkS1RKJLm2qDuQOyANAsJwqNbf7MCEtWIQ==","691f8ca61c6b4dcbb0aeb5f4","691fb95b478bba25ad3d3813","index1","<span style='color:red'>Fail,<span style='color:red'>Fail,<span style='color:green'>Lift,<span style='color:green'>Lift,<span style='color:red'>Fail,<span style='color:red'>Fail,<span style='color:red'>Fail,<span style='color:red'>Fail,<span style='color:green'>Lift,<span style='color:red'>Fail,<span style='color:red'>Fail,<span style='color:green'>Lift","<span style='color:red'>Fail,<span style='color:red'>Fail,<span style='color:green'>Lift,<span style='color:green'>Lift,<span style='color:green'>Lift,<span style='color:green'>Lift,<span style='color:red'>Fail,<span style='color:green'>Lift,<span style='color:green'>Lift,<span style='color:green'>Lift,<span style='color:red'>Fail,<span style='color:green'>Lift","<span style='color:red'>Fail,<span style='color:green'>Lift,<span style='color:green'>Lift,<span style='color:red'>Fail,<span style='color:green'>Lift,<span style='color:green'>Lift","0,0,1,1,0,0,0,0,1,0,0,1","0,0,1,1,1,1,0,1,1,1,0,1","0,1,1,0,1,1",10,20,20,"","","","","{""box1"":""100""}","",3,"round3_ready",4,3,3,NA,NA,NA,NA,NA,NA,NA,NA,NA,NA,NA,NA,NA,NA,100,100,NA,NA,NA,NA,NA,NA,NA,NA,NA,100,100,NA,NA,NA,NA,NA,NA,NA,NA,NA,NA,"",NA,NA,NA,NA,NA,NA,NA,NA,NA,2025-11-21 01:13:36
"19632.600000023842","https://psyc-201.github.io/xiang2023/exp/index1.html?PROLIFIC_PID=REDACTED&STUDY_ID=691f8ca61c6b4dcbb0aeb5f4&SESSION_ID=691fb95b478bba25ad3d3813","survey-html-form",25,517326,"0.0-330.0-0.0","Qycb9gtL+nQVUfeNstk1zrYv4SOGZFhAy2SHdLghTSBl2HgnR97AFgpaRgMN2kUCZ332PpOlmGiuT2dWEnann41gL1HmspFSNiYpNZkaSsxG/CW6cPGgKzVpBiQmnpsvniwqZAailQknevZwmqQ5yOLR0nrUsbNOwb6Qe1RdFBWrK+OTag0AUM0qfGcUeNrDs9upCxC2hv3H3gHeR6Mi1VgqtTvyzPzI3oesJ514zo3n9RotGrsCz0SCgCD4hAnFUzQoyU208hRNrkPv98AI0U+rWwlelbtOZAq395ACOn1UfRZKOCuuOkS1RKJLm2qDuQOyANAsJwqNbf7MCEtWIQ==","691f8ca61c6b4dcbb0aeb5f4","691fb95b478bba25ad3d3813","index1","<span style='color:red'>Fail,<span style='color:red'>Fail,<span style='color:green'>Lift,<span style='color:green'>Lift,<span style='color:red'>Fail,<span style='color:red'>Fail,<span style='color:red'>Fail,<span style='color:red'>Fail,<span style='color:green'>Lift,<span style='color:red'>Fail,<span style='color:red'>Fail,<span style='color:green'>Lift","<span style='color:red'>Fail,<span style='color:red'>Fail,<span style='color:green'>Lift,<span style='color:green'>Lift,<span style='color:green'>Lift,<span style='color:green'>Lift,<span style='color:red'>Fail,<span style='color:green'>Lift,<span style='color:green'>Lift,<span style='color:green'>Lift,<span style='color:red'>Fail,<span style='color:green'>Lift","<span style='color:red'>Fail,<span style='color:green'>Lift,<span style='color:green'>Lift,<span style='color:red'>Fail,<span style='color:green'>Lift,<span style='color:green'>Lift","0,0,1,1,0,0,0,0,1,0,0,1","0,0,1,1,1,1,0,1,1,1,0,1","0,1,1,0,1,1",10,20,20,"","","","","{""box1"":""7"",""box2"":""7"",""box3"":""50"",""box4"":""50""}","",4,"round3_lift",5,3,3,7,7,50,50,1,1,20,NA,NA,NA,NA,NA,NA,NA,NA,NA,NA,NA,NA,NA,NA,NA,NA,NA,NA,NA,NA,NA,NA,7,7,1,1,20,NA,50,50,"",NA,NA,NA,NA,NA,NA,NA,NA,NA,2025-11-21 01:13:36
"null","https://psyc-201.github.io/xiang2023/exp/index1.html?PROLIFIC_PID=REDACTED&STUDY_ID=691f8ca61c6b4dcbb0aeb5f4&SESSION_ID=691fb95b478bba25ad3d3813","html-keyboard-response",26,520329,"0.0-334.0","Qycb9gtL+nQVUfeNstk1zrYv4SOGZFhAy2SHdLghTSBl2HgnR97AFgpaRgMN2kUCZ332PpOlmGiuT2dWEnann41gL1HmspFSNiYpNZkaSsxG/CW6cPGgKzVpBiQmnpsvniwqZAailQknevZwmqQ5yOLR0nrUsbNOwb6Qe1RdFBWrK+OTag0AUM0qfGcUeNrDs9upCxC2hv3H3gHeR6Mi1VgqtTvyzPzI3oesJ514zo3n9RotGrsCz0SCgCD4hAnFUzQoyU208hRNrkPv98AI0U+rWwlelbtOZAq395ACOn1UfRZKOCuuOkS1RKJLm2qDuQOyANAsJwqNbf7MCEtWIQ==","691f8ca61c6b4dcbb0aeb5f4","691fb95b478bba25ad3d3813","index1","<span style='color:red'>Fail,<span style='color:red'>Fail,<span style='color:green'>Lift,<span style='color:green'>Lift,<span style='color:red'>Fail,<span style='color:red'>Fail,<span style='color:red'>Fail,<span style='color:red'>Fail,<span style='color:green'>Lift,<span style='color:red'>Fail,<span style='color:red'>Fail,<span style='color:green'>Lift","<span style='color:red'>Fail,<span style='color:red'>Fail,<span style='color:green'>Lift,<span style='color:green'>Lift,<span style='color:green'>Lift,<span style='color:green'>Lift,<span style='color:red'>Fail,<span style='color:green'>Lift,<span style='color:green'>Lift,<span style='color:green'>Lift,<span style='color:red'>Fail,<span style='color:green'>Lift","<span style='color:red'>Fail,<span style='color:green'>Lift,<span style='color:green'>Lift,<span style='color:red'>Fail,<span style='color:green'>Lift,<span style='color:green'>Lift","0,0,1,1,0,0,0,0,1,0,0,1","0,0,1,1,1,1,0,1,1,1,0,1","0,1,1,0,1,1",10,20,20,"","","<p style='font-size:30px'><b> New Contest! </b></p>","null","","",4,"",NA,NA,NA,NA,NA,NA,NA,NA,NA,NA,NA,NA,NA,NA,NA,NA,NA,NA,NA,NA,NA,NA,NA,NA,NA,NA,NA,NA,NA,NA,NA,NA,NA,NA,NA,NA,NA,NA,NA,NA,"",NA,NA,NA,NA,NA,NA,NA,NA,NA,2025-11-21 01:13:36
"46268.60000002384","https://psyc-201.github.io/xiang2023/exp/index1.html?PROLIFIC_PID=REDACTED&STUDY_ID=691f8ca61c6b4dcbb0aeb5f4&SESSION_ID=691fb95b478bba25ad3d3813","survey-html-form",27,566599,"0.0-335.0","Qycb9gtL+nQVUfeNstk1zrYv4SOGZFhAy2SHdLghTSBl2HgnR97AFgpaRgMN2kUCZ332PpOlmGiuT2dWEnann41gL1HmspFSNiYpNZkaSsxG/CW6cPGgKzVpBiQmnpsvniwqZAailQknevZwmqQ5yOLR0nrUsbNOwb6Qe1RdFBWrK+OTag0AUM0qfGcUeNrDs9upCxC2hv3H3gHeR6Mi1VgqtTvyzPzI3oesJ514zo3n9RotGrsCz0SCgCD4hAnFUzQoyU208hRNrkPv98AI0U+rWwlelbtOZAq395ACOn1UfRZKOCuuOkS1RKJLm2qDuQOyANAsJwqNbf7MCEtWIQ==","691f8ca61c6b4dcbb0aeb5f4","691fb95b478bba25ad3d3813","index1","<span style='color:red'>Fail,<span style='color:red'>Fail,<span style='color:green'>Lift,<span style='color:green'>Lift,<span style='color:red'>Fail,<span style='color:red'>Fail,<span style='color:red'>Fail,<span style='color:red'>Fail,<span style='color:green'>Lift,<span style='color:red'>Fail,<span style='color:red'>Fail,<span style='color:green'>Lift","<span style='color:red'>Fail,<span style='color:red'>Fail,<span style='color:green'>Lift,<span style='color:green'>Lift,<span style='color:green'>Lift,<span style='color:green'>Lift,<span style='color:red'>Fail,<span style='color:green'>Lift,<span style='color:green'>Lift,<span style='color:green'>Lift,<span style='color:red'>Fail,<span style='color:green'>Lift","<span style='color:red'>Fail,<span style='color:green'>Lift,<span style='color:green'>Lift,<span style='color:red'>Fail,<span style='color:green'>Lift,<span style='color:green'>Lift","0,0,1,1,0,0,0,0,1,0,0,1","0,0,1,1,1,1,0,1,1,1,0,1","0,1,1,0,1,1",10,20,20,"","","","","{""box1"":""7"",""box2"":""7"",""box4"":""60""}","",4,"round1_outcome",1,4,1,7,7,NA,60,0,1,10,7,7,NA,60,0,1,10,NA,NA,NA,NA,NA,NA,NA,NA,NA,NA,NA,NA,NA,NA,NA,NA,NA,NA,NA,NA,NA,NA,NA,"",NA,NA,NA,NA,NA,NA,NA,NA,NA,2025-11-21 01:13:36
"16575","https://psyc-201.github.io/xiang2023/exp/index1.html?PROLIFIC_PID=REDACTED&STUDY_ID=691f8ca61c6b4dcbb0aeb5f4&SESSION_ID=691fb95b478bba25ad3d3813","survey-html-form",28,583176,"0.0-336.0","Qycb9gtL+nQVUfeNstk1zrYv4SOGZFhAy2SHdLghTSBl2HgnR97AFgpaRgMN2kUCZ332PpOlmGiuT2dWEnann41gL1HmspFSNiYpNZkaSsxG/CW6cPGgKzVpBiQmnpsvniwqZAailQknevZwmqQ5yOLR0nrUsbNOwb6Qe1RdFBWrK+OTag0AUM0qfGcUeNrDs9upCxC2hv3H3gHeR6Mi1VgqtTvyzPzI3oesJ514zo3n9RotGrsCz0SCgCD4hAnFUzQoyU208hRNrkPv98AI0U+rWwlelbtOZAq395ACOn1UfRZKOCuuOkS1RKJLm2qDuQOyANAsJwqNbf7MCEtWIQ==","691f8ca61c6b4dcbb0aeb5f4","691fb95b478bba25ad3d3813","index1","<span style='color:red'>Fail,<span style='color:red'>Fail,<span style='color:green'>Lift,<span style='color:green'>Lift,<span style='color:red'>Fail,<span style='color:red'>Fail,<span style='color:red'>Fail,<span style='color:red'>Fail,<span style='color:green'>Lift,<span style='color:red'>Fail,<span style='color:red'>Fail,<span style='color:green'>Lift","<span style='color:red'>Fail,<span style='color:red'>Fail,<span style='color:green'>Lift,<span style='color:green'>Lift,<span style='color:green'>Lift,<span style='color:green'>Lift,<span style='color:red'>Fail,<span style='color:green'>Lift,<span style='color:green'>Lift,<span style='color:green'>Lift,<span style='color:red'>Fail,<span style='color:green'>Lift","<span style='color:red'>Fail,<span style='color:green'>Lift,<span style='color:green'>Lift,<span style='color:red'>Fail,<span style='color:green'>Lift,<span style='color:green'>Lift","0,0,1,1,0,0,0,0,1,0,0,1","0,0,1,1,1,1,0,1,1,1,0,1","0,1,1,0,1,1",10,20,20,"","","","","{""box1"":""80"",""box2"":""100""}","",4,"round2_ready",2,4,2,NA,NA,NA,NA,NA,NA,NA,NA,NA,NA,NA,NA,NA,NA,80,100,80,100,NA,NA,NA,NA,NA,NA,NA,NA,NA,NA,NA,NA,NA,NA,NA,NA,NA,NA,NA,"",NA,NA,NA,NA,NA,NA,NA,NA,NA,2025-11-21 01:13:36
"22118.700000047684","https://psyc-201.github.io/xiang2023/exp/index1.html?PROLIFIC_PID=REDACTED&STUDY_ID=691f8ca61c6b4dcbb0aeb5f4&SESSION_ID=691fb95b478bba25ad3d3813","survey-html-form",29,605296,"0.0-337.0","Qycb9gtL+nQVUfeNstk1zrYv4SOGZFhAy2SHdLghTSBl2HgnR97AFgpaRgMN2kUCZ332PpOlmGiuT2dWEnann41gL1HmspFSNiYpNZkaSsxG/CW6cPGgKzVpBiQmnpsvniwqZAailQknevZwmqQ5yOLR0nrUsbNOwb6Qe1RdFBWrK+OTag0AUM0qfGcUeNrDs9upCxC2hv3H3gHeR6Mi1VgqtTvyzPzI3oesJ514zo3n9RotGrsCz0SCgCD4hAnFUzQoyU208hRNrkPv98AI0U+rWwlelbtOZAq395ACOn1UfRZKOCuuOkS1RKJLm2qDuQOyANAsJwqNbf7MCEtWIQ==","691f8ca61c6b4dcbb0aeb5f4","691fb95b478bba25ad3d3813","index1","<span style='color:red'>Fail,<span style='color:red'>Fail,<span style='color:green'>Lift,<span style='color:green'>Lift,<span style='color:red'>Fail,<span style='color:red'>Fail,<span style='color:red'>Fail,<span style='color:red'>Fail,<span style='color:green'>Lift,<span style='color:red'>Fail,<span style='color:red'>Fail,<span style='color:green'>Lift","<span style='color:red'>Fail,<span style='color:red'>Fail,<span style='color:green'>Lift,<span style='color:green'>Lift,<span style='color:green'>Lift,<span style='color:green'>Lift,<span style='color:red'>Fail,<span style='color:green'>Lift,<span style='color:green'>Lift,<span style='color:green'>Lift,<span style='color:red'>Fail,<span style='color:green'>Lift","<span style='color:red'>Fail,<span style='color:green'>Lift,<span style='color:green'>Lift,<span style='color:red'>Fail,<span style='color:green'>Lift,<span style='color:green'>Lift","0,0,1,1,0,0,0,0,1,0,0,1","0,0,1,1,1,1,0,1,1,1,0,1","0,1,1,0,1,1",10,20,20,"","","","","{""box1"":""4"",""box2"":""7"",""box4"":""60""}","",4,"round2_outcome",3,4,2,4,7,NA,60,0,1,20,NA,NA,NA,NA,NA,NA,NA,NA,NA,NA,NA,4,7,NA,60,0,1,20,NA,NA,NA,NA,NA,NA,NA,NA,NA,NA,NA,NA,"",NA,NA,NA,NA,NA,NA,NA,NA,NA,2025-11-21 01:13:36
"5671","https://psyc-201.github.io/xiang2023/exp/index1.html?PROLIFIC_PID=REDACTED&STUDY_ID=691f8ca61c6b4dcbb0aeb5f4&SESSION_ID=691fb95b478bba25ad3d3813","survey-html-form",30,610968,"0.0-338.0","Qycb9gtL+nQVUfeNstk1zrYv4SOGZFhAy2SHdLghTSBl2HgnR97AFgpaRgMN2kUCZ332PpOlmGiuT2dWEnann41gL1HmspFSNiYpNZkaSsxG/CW6cPGgKzVpBiQmnpsvniwqZAailQknevZwmqQ5yOLR0nrUsbNOwb6Qe1RdFBWrK+OTag0AUM0qfGcUeNrDs9upCxC2hv3H3gHeR6Mi1VgqtTvyzPzI3oesJ514zo3n9RotGrsCz0SCgCD4hAnFUzQoyU208hRNrkPv98AI0U+rWwlelbtOZAq395ACOn1UfRZKOCuuOkS1RKJLm2qDuQOyANAsJwqNbf7MCEtWIQ==","691f8ca61c6b4dcbb0aeb5f4","691fb95b478bba25ad3d3813","index1","<span style='color:red'>Fail,<span style='color:red'>Fail,<span style='color:green'>Lift,<span style='color:green'>Lift,<span style='color:red'>Fail,<span style='color:red'>Fail,<span style='color:red'>Fail,<span style='color:red'>Fail,<span style='color:green'>Lift,<span style='color:red'>Fail,<span style='color:red'>Fail,<span style='color:green'>Lift","<span style='color:red'>Fail,<span style='color:red'>Fail,<span style='color:green'>Lift,<span style='color:green'>Lift,<span style='color:green'>Lift,<span style='color:green'>Lift,<span style='color:red'>Fail,<span style='color:green'>Lift,<span style='color:green'>Lift,<span style='color:green'>Lift,<span style='color:red'>Fail,<span style='color:green'>Lift","<span style='color:red'>Fail,<span style='color:green'>Lift,<span style='color:green'>Lift,<span style='color:red'>Fail,<span style='color:green'>Lift,<span style='color:green'>Lift","0,0,1,1,0,0,0,0,1,0,0,1","0,0,1,1,1,1,0,1,1,1,0,1","0,1,1,0,1,1",10,20,20,"","","","","{""box1"":""100""}","",4,"round3_ready",4,4,3,NA,NA,NA,NA,NA,NA,NA,NA,NA,NA,NA,NA,NA,NA,100,100,NA,NA,NA,NA,NA,NA,NA,NA,NA,100,100,NA,NA,NA,NA,NA,NA,NA,NA,NA,NA,"",NA,NA,NA,NA,NA,NA,NA,NA,NA,2025-11-21 01:13:36
"20614.5","https://psyc-201.github.io/xiang2023/exp/index1.html?PROLIFIC_PID=REDACTED&STUDY_ID=691f8ca61c6b4dcbb0aeb5f4&SESSION_ID=691fb95b478bba25ad3d3813","survey-html-form",31,631584,"0.0-339.0-0.0","Qycb9gtL+nQVUfeNstk1zrYv4SOGZFhAy2SHdLghTSBl2HgnR97AFgpaRgMN2kUCZ332PpOlmGiuT2dWEnann41gL1HmspFSNiYpNZkaSsxG/CW6cPGgKzVpBiQmnpsvniwqZAailQknevZwmqQ5yOLR0nrUsbNOwb6Qe1RdFBWrK+OTag0AUM0qfGcUeNrDs9upCxC2hv3H3gHeR6Mi1VgqtTvyzPzI3oesJ514zo3n9RotGrsCz0SCgCD4hAnFUzQoyU208hRNrkPv98AI0U+rWwlelbtOZAq395ACOn1UfRZKOCuuOkS1RKJLm2qDuQOyANAsJwqNbf7MCEtWIQ==","691f8ca61c6b4dcbb0aeb5f4","691fb95b478bba25ad3d3813","index1","<span style='color:red'>Fail,<span style='color:red'>Fail,<span style='color:green'>Lift,<span style='color:green'>Lift,<span style='color:red'>Fail,<span style='color:red'>Fail,<span style='color:red'>Fail,<span style='color:red'>Fail,<span style='color:green'>Lift,<span style='color:red'>Fail,<span style='color:red'>Fail,<span style='color:green'>Lift","<span style='color:red'>Fail,<span style='color:red'>Fail,<span style='color:green'>Lift,<span style='color:green'>Lift,<span style='color:green'>Lift,<span style='color:green'>Lift,<span style='color:red'>Fail,<span style='color:green'>Lift,<span style='color:green'>Lift,<span style='color:green'>Lift,<span style='color:red'>Fail,<span style='color:green'>Lift","<span style='color:red'>Fail,<span style='color:green'>Lift,<span style='color:green'>Lift,<span style='color:red'>Fail,<span style='color:green'>Lift,<span style='color:green'>Lift","0,0,1,1,0,0,0,0,1,0,0,1","0,0,1,1,1,1,0,1,1,1,0,1","0,1,1,0,1,1",10,20,20,"","","","","{""box1"":""4"",""box2"":""7"",""box3"":""40"",""box4"":""60""}","",5,"round3_lift",5,4,3,4,7,40,60,1,1,20,NA,NA,NA,NA,NA,NA,NA,NA,NA,NA,NA,NA,NA,NA,NA,NA,NA,NA,NA,NA,NA,NA,4,7,1,1,20,NA,40,60,"",NA,NA,NA,NA,NA,NA,NA,NA,NA,2025-11-21 01:13:36
"null","https://psyc-201.github.io/xiang2023/exp/index1.html?PROLIFIC_PID=REDACTED&STUDY_ID=691f8ca61c6b4dcbb0aeb5f4&SESSION_ID=691fb95b478bba25ad3d3813","html-keyboard-response",32,634585,"0.0-343.0","Qycb9gtL+nQVUfeNstk1zrYv4SOGZFhAy2SHdLghTSBl2HgnR97AFgpaRgMN2kUCZ332PpOlmGiuT2dWEnann41gL1HmspFSNiYpNZkaSsxG/CW6cPGgKzVpBiQmnpsvniwqZAailQknevZwmqQ5yOLR0nrUsbNOwb6Qe1RdFBWrK+OTag0AUM0qfGcUeNrDs9upCxC2hv3H3gHeR6Mi1VgqtTvyzPzI3oesJ514zo3n9RotGrsCz0SCgCD4hAnFUzQoyU208hRNrkPv98AI0U+rWwlelbtOZAq395ACOn1UfRZKOCuuOkS1RKJLm2qDuQOyANAsJwqNbf7MCEtWIQ==","691f8ca61c6b4dcbb0aeb5f4","691fb95b478bba25ad3d3813","index1","<span style='color:red'>Fail,<span style='color:red'>Fail,<span style='color:green'>Lift,<span style='color:green'>Lift,<span style='color:red'>Fail,<span style='color:red'>Fail,<span style='color:red'>Fail,<span style='color:red'>Fail,<span style='color:green'>Lift,<span style='color:red'>Fail,<span style='color:red'>Fail,<span style='color:green'>Lift","<span style='color:red'>Fail,<span style='color:red'>Fail,<span style='color:green'>Lift,<span style='color:green'>Lift,<span style='color:green'>Lift,<span style='color:green'>Lift,<span style='color:red'>Fail,<span style='color:green'>Lift,<span style='color:green'>Lift,<span style='color:green'>Lift,<span style='color:red'>Fail,<span style='color:green'>Lift","<span style='color:red'>Fail,<span style='color:green'>Lift,<span style='color:green'>Lift,<span style='color:red'>Fail,<span style='color:green'>Lift,<span style='color:green'>Lift","0,0,1,1,0,0,0,0,1,0,0,1","0,0,1,1,1,1,0,1,1,1,0,1","0,1,1,0,1,1",10,20,20,"","","<p style='font-size:30px'><b> New Contest! </b></p>","null","","",5,"",NA,NA,NA,NA,NA,NA,NA,NA,NA,NA,NA,NA,NA,NA,NA,NA,NA,NA,NA,NA,NA,NA,NA,NA,NA,NA,NA,NA,NA,NA,NA,NA,NA,NA,NA,NA,NA,NA,NA,NA,"",NA,NA,NA,NA,NA,NA,NA,NA,NA,2025-11-21 01:13:36
"13071.900000095367","https://psyc-201.github.io/xiang2023/exp/index1.html?PROLIFIC_PID=REDACTED&STUDY_ID=691f8ca61c6b4dcbb0aeb5f4&SESSION_ID=691fb95b478bba25ad3d3813","survey-html-form",33,647658,"0.0-344.0","Qycb9gtL+nQVUfeNstk1zrYv4SOGZFhAy2SHdLghTSBl2HgnR97AFgpaRgMN2kUCZ332PpOlmGiuT2dWEnann41gL1HmspFSNiYpNZkaSsxG/CW6cPGgKzVpBiQmnpsvniwqZAailQknevZwmqQ5yOLR0nrUsbNOwb6Qe1RdFBWrK+OTag0AUM0qfGcUeNrDs9upCxC2hv3H3gHeR6Mi1VgqtTvyzPzI3oesJ514zo3n9RotGrsCz0SCgCD4hAnFUzQoyU208hRNrkPv98AI0U+rWwlelbtOZAq395ACOn1UfRZKOCuuOkS1RKJLm2qDuQOyANAsJwqNbf7MCEtWIQ==","691f8ca61c6b4dcbb0aeb5f4","691fb95b478bba25ad3d3813","index1","<span style='color:red'>Fail,<span style='color:red'>Fail,<span style='color:green'>Lift,<span style='color:green'>Lift,<span style='color:red'>Fail,<span style='color:red'>Fail,<span style='color:red'>Fail,<span style='color:red'>Fail,<span style='color:green'>Lift,<span style='color:red'>Fail,<span style='color:red'>Fail,<span style='color:green'>Lift","<span style='color:red'>Fail,<span style='color:red'>Fail,<span style='color:green'>Lift,<span style='color:green'>Lift,<span style='color:green'>Lift,<span style='color:green'>Lift,<span style='color:red'>Fail,<span style='color:green'>Lift,<span style='color:green'>Lift,<span style='color:green'>Lift,<span style='color:red'>Fail,<span style='color:green'>Lift","<span style='color:red'>Fail,<span style='color:green'>Lift,<span style='color:green'>Lift,<span style='color:red'>Fail,<span style='color:green'>Lift,<span style='color:green'>Lift","0,0,1,1,0,0,0,0,1,0,0,1","0,0,1,1,1,1,0,1,1,1,0,1","0,1,1,0,1,1",10,20,20,"","","","","{""box1"":""5"",""box2"":""5""}","",5,"round1_outcome",1,5,1,5,5,NA,NA,0,0,10,5,5,NA,NA,0,0,10,NA,NA,NA,NA,NA,NA,NA,NA,NA,NA,NA,NA,NA,NA,NA,NA,NA,NA,NA,NA,NA,NA,NA,"",NA,NA,NA,NA,NA,NA,NA,NA,NA,2025-11-21 01:13:36
"15672.300000071526","https://psyc-201.github.io/xiang2023/exp/index1.html?PROLIFIC_PID=REDACTED&STUDY_ID=691f8ca61c6b4dcbb0aeb5f4&SESSION_ID=691fb95b478bba25ad3d3813","survey-html-form",34,663332,"0.0-345.0","Qycb9gtL+nQVUfeNstk1zrYv4SOGZFhAy2SHdLghTSBl2HgnR97AFgpaRgMN2kUCZ332PpOlmGiuT2dWEnann41gL1HmspFSNiYpNZkaSsxG/CW6cPGgKzVpBiQmnpsvniwqZAailQknevZwmqQ5yOLR0nrUsbNOwb6Qe1RdFBWrK+OTag0AUM0qfGcUeNrDs9upCxC2hv3H3gHeR6Mi1VgqtTvyzPzI3oesJ514zo3n9RotGrsCz0SCgCD4hAnFUzQoyU208hRNrkPv98AI0U+rWwlelbtOZAq395ACOn1UfRZKOCuuOkS1RKJLm2qDuQOyANAsJwqNbf7MCEtWIQ==","691f8ca61c6b4dcbb0aeb5f4","691fb95b478bba25ad3d3813","index1","<span style='color:red'>Fail,<span style='color:red'>Fail,<span style='color:green'>Lift,<span style='color:green'>Lift,<span style='color:red'>Fail,<span style='color:red'>Fail,<span style='color:red'>Fail,<span style='color:red'>Fail,<span style='color:green'>Lift,<span style='color:red'>Fail,<span style='color:red'>Fail,<span style='color:green'>Lift","<span style='color:red'>Fail,<span style='color:red'>Fail,<span style='color:green'>Lift,<span style='color:green'>Lift,<span style='color:green'>Lift,<span style='color:green'>Lift,<span style='color:red'>Fail,<span style='color:green'>Lift,<span style='color:green'>Lift,<span style='color:green'>Lift,<span style='color:red'>Fail,<span style='color:green'>Lift","<span style='color:red'>Fail,<span style='color:green'>Lift,<span style='color:green'>Lift,<span style='color:red'>Fail,<span style='color:green'>Lift,<span style='color:green'>Lift","0,0,1,1,0,0,0,0,1,0,0,1","0,0,1,1,1,1,0,1,1,1,0,1","0,1,1,0,1,1",10,20,20,"","","","","{""box1"":""70"",""box2"":""70""}","",5,"round2_ready",2,5,2,NA,NA,NA,NA,NA,NA,NA,NA,NA,NA,NA,NA,NA,NA,70,70,70,70,NA,NA,NA,NA,NA,NA,NA,NA,NA,NA,NA,NA,NA,NA,NA,NA,NA,NA,NA,"",NA,NA,NA,NA,NA,NA,NA,NA,NA,2025-11-21 01:13:36
"11491","https://psyc-201.github.io/xiang2023/exp/index1.html?PROLIFIC_PID=REDACTED&STUDY_ID=691f8ca61c6b4dcbb0aeb5f4&SESSION_ID=691fb95b478bba25ad3d3813","survey-html-form",35,674824,"0.0-346.0","Qycb9gtL+nQVUfeNstk1zrYv4SOGZFhAy2SHdLghTSBl2HgnR97AFgpaRgMN2kUCZ332PpOlmGiuT2dWEnann41gL1HmspFSNiYpNZkaSsxG/CW6cPGgKzVpBiQmnpsvniwqZAailQknevZwmqQ5yOLR0nrUsbNOwb6Qe1RdFBWrK+OTag0AUM0qfGcUeNrDs9upCxC2hv3H3gHeR6Mi1VgqtTvyzPzI3oesJ514zo3n9RotGrsCz0SCgCD4hAnFUzQoyU208hRNrkPv98AI0U+rWwlelbtOZAq395ACOn1UfRZKOCuuOkS1RKJLm2qDuQOyANAsJwqNbf7MCEtWIQ==","691f8ca61c6b4dcbb0aeb5f4","691fb95b478bba25ad3d3813","index1","<span style='color:red'>Fail,<span style='color:red'>Fail,<span style='color:green'>Lift,<span style='color:green'>Lift,<span style='color:red'>Fail,<span style='color:red'>Fail,<span style='color:red'>Fail,<span style='color:red'>Fail,<span style='color:green'>Lift,<span style='color:red'>Fail,<span style='color:red'>Fail,<span style='color:green'>Lift","<span style='color:red'>Fail,<span style='color:red'>Fail,<span style='color:green'>Lift,<span style='color:green'>Lift,<span style='color:green'>Lift,<span style='color:green'>Lift,<span style='color:red'>Fail,<span style='color:green'>Lift,<span style='color:green'>Lift,<span style='color:green'>Lift,<span style='color:red'>Fail,<span style='color:green'>Lift","<span style='color:red'>Fail,<span style='color:green'>Lift,<span style='color:green'>Lift,<span style='color:red'>Fail,<span style='color:green'>Lift,<span style='color:green'>Lift","0,0,1,1,0,0,0,0,1,0,0,1","0,0,1,1,1,1,0,1,1,1,0,1","0,1,1,0,1,1",10,20,20,"","","","","{""box1"":""3"",""box2"":""3""}","",5,"round2_outcome",3,5,2,3,3,NA,NA,0,0,20,NA,NA,NA,NA,NA,NA,NA,NA,NA,NA,NA,3,3,NA,NA,0,0,20,NA,NA,NA,NA,NA,NA,NA,NA,NA,NA,NA,NA,"",NA,NA,NA,NA,NA,NA,NA,NA,NA,2025-11-21 01:13:36
"6746.799999952316","https://psyc-201.github.io/xiang2023/exp/index1.html?PROLIFIC_PID=REDACTED&STUDY_ID=691f8ca61c6b4dcbb0aeb5f4&SESSION_ID=691fb95b478bba25ad3d3813","survey-html-form",36,681572,"0.0-347.0","Qycb9gtL+nQVUfeNstk1zrYv4SOGZFhAy2SHdLghTSBl2HgnR97AFgpaRgMN2kUCZ332PpOlmGiuT2dWEnann41gL1HmspFSNiYpNZkaSsxG/CW6cPGgKzVpBiQmnpsvniwqZAailQknevZwmqQ5yOLR0nrUsbNOwb6Qe1RdFBWrK+OTag0AUM0qfGcUeNrDs9upCxC2hv3H3gHeR6Mi1VgqtTvyzPzI3oesJ514zo3n9RotGrsCz0SCgCD4hAnFUzQoyU208hRNrkPv98AI0U+rWwlelbtOZAq395ACOn1UfRZKOCuuOkS1RKJLm2qDuQOyANAsJwqNbf7MCEtWIQ==","691f8ca61c6b4dcbb0aeb5f4","691fb95b478bba25ad3d3813","index1","<span style='color:red'>Fail,<span style='color:red'>Fail,<span style='color:green'>Lift,<span style='color:green'>Lift,<span style='color:red'>Fail,<span style='color:red'>Fail,<span style='color:red'>Fail,<span style='color:red'>Fail,<span style='color:green'>Lift,<span style='color:red'>Fail,<span style='color:red'>Fail,<span style='color:green'>Lift","<span style='color:red'>Fail,<span style='color:red'>Fail,<span style='color:green'>Lift,<span style='color:green'>Lift,<span style='color:green'>Lift,<span style='color:green'>Lift,<span style='color:red'>Fail,<span style='color:green'>Lift,<span style='color:green'>Lift,<span style='color:green'>Lift,<span style='color:red'>Fail,<span style='color:green'>Lift","<span style='color:red'>Fail,<span style='color:green'>Lift,<span style='color:green'>Lift,<span style='color:red'>Fail,<span style='color:green'>Lift,<span style='color:green'>Lift","0,0,1,1,0,0,0,0,1,0,0,1","0,0,1,1,1,1,0,1,1,1,0,1","0,1,1,0,1,1",10,20,20,"","","","","{""box1"":""80""}","",5,"round3_ready",4,5,3,NA,NA,NA,NA,NA,NA,NA,NA,NA,NA,NA,NA,NA,NA,80,80,NA,NA,NA,NA,NA,NA,NA,NA,NA,80,80,NA,NA,NA,NA,NA,NA,NA,NA,NA,NA,"",NA,NA,NA,NA,NA,NA,NA,NA,NA,2025-11-21 01:13:36
"19490.799999952316","https://psyc-201.github.io/xiang2023/exp/index1.html?PROLIFIC_PID=REDACTED&STUDY_ID=691f8ca61c6b4dcbb0aeb5f4&SESSION_ID=691fb95b478bba25ad3d3813","survey-html-form",37,701064,"0.0-349.0-0.0","Qycb9gtL+nQVUfeNstk1zrYv4SOGZFhAy2SHdLghTSBl2HgnR97AFgpaRgMN2kUCZ332PpOlmGiuT2dWEnann41gL1HmspFSNiYpNZkaSsxG/CW6cPGgKzVpBiQmnpsvniwqZAailQknevZwmqQ5yOLR0nrUsbNOwb6Qe1RdFBWrK+OTag0AUM0qfGcUeNrDs9upCxC2hv3H3gHeR6Mi1VgqtTvyzPzI3oesJ514zo3n9RotGrsCz0SCgCD4hAnFUzQoyU208hRNrkPv98AI0U+rWwlelbtOZAq395ACOn1UfRZKOCuuOkS1RKJLm2qDuQOyANAsJwqNbf7MCEtWIQ==","691f8ca61c6b4dcbb0aeb5f4","691fb95b478bba25ad3d3813","index1","<span style='color:red'>Fail,<span style='color:red'>Fail,<span style='color:green'>Lift,<span style='color:green'>Lift,<span style='color:red'>Fail,<span style='color:red'>Fail,<span style='color:red'>Fail,<span style='color:red'>Fail,<span style='color:green'>Lift,<span style='color:red'>Fail,<span style='color:red'>Fail,<span style='color:green'>Lift","<span style='color:red'>Fail,<span style='color:red'>Fail,<span style='color:green'>Lift,<span style='color:green'>Lift,<span style='color:green'>Lift,<span style='color:green'>Lift,<span style='color:red'>Fail,<span style='color:green'>Lift,<span style='color:green'>Lift,<span style='color:green'>Lift,<span style='color:red'>Fail,<span style='color:green'>Lift","<span style='color:red'>Fail,<span style='color:green'>Lift,<span style='color:green'>Lift,<span style='color:red'>Fail,<span style='color:green'>Lift,<span style='color:green'>Lift","0,0,1,1,0,0,0,0,1,0,0,1","0,0,1,1,1,1,0,1,1,1,0,1","0,1,1,0,1,1",10,20,20,"","","","","{""box1"":""3"",""box2"":""3"",""box3"":""999"",""box4"":""999""}","",6,"round3_fail",5,5,3,3,3,NA,NA,0,0,20,NA,NA,NA,NA,NA,NA,NA,NA,NA,NA,NA,NA,NA,NA,NA,NA,NA,NA,NA,NA,1,1,3,3,0,0,20,NA,NA,NA,"",NA,NA,NA,NA,NA,NA,NA,NA,NA,2025-11-21 01:13:36
"null","https://psyc-201.github.io/xiang2023/exp/index1.html?PROLIFIC_PID=REDACTED&STUDY_ID=691f8ca61c6b4dcbb0aeb5f4&SESSION_ID=691fb95b478bba25ad3d3813","html-keyboard-response",38,704067,"0.0-352.0","Qycb9gtL+nQVUfeNstk1zrYv4SOGZFhAy2SHdLghTSBl2HgnR97AFgpaRgMN2kUCZ332PpOlmGiuT2dWEnann41gL1HmspFSNiYpNZkaSsxG/CW6cPGgKzVpBiQmnpsvniwqZAailQknevZwmqQ5yOLR0nrUsbNOwb6Qe1RdFBWrK+OTag0AUM0qfGcUeNrDs9upCxC2hv3H3gHeR6Mi1VgqtTvyzPzI3oesJ514zo3n9RotGrsCz0SCgCD4hAnFUzQoyU208hRNrkPv98AI0U+rWwlelbtOZAq395ACOn1UfRZKOCuuOkS1RKJLm2qDuQOyANAsJwqNbf7MCEtWIQ==","691f8ca61c6b4dcbb0aeb5f4","691fb95b478bba25ad3d3813","index1","<span style='color:red'>Fail,<span style='color:red'>Fail,<span style='color:green'>Lift,<span style='color:green'>Lift,<span style='color:red'>Fail,<span style='color:red'>Fail,<span style='color:red'>Fail,<span style='color:red'>Fail,<span style='color:green'>Lift,<span style='color:red'>Fail,<span style='color:red'>Fail,<span style='color:green'>Lift","<span style='color:red'>Fail,<span style='color:red'>Fail,<span style='color:green'>Lift,<span style='color:green'>Lift,<span style='color:green'>Lift,<span style='color:green'>Lift,<span style='color:red'>Fail,<span style='color:green'>Lift,<span style='color:green'>Lift,<span style='color:green'>Lift,<span style='color:red'>Fail,<span style='color:green'>Lift","<span style='color:red'>Fail,<span style='color:green'>Lift,<span style='color:green'>Lift,<span style='color:red'>Fail,<span style='color:green'>Lift,<span style='color:green'>Lift","0,0,1,1,0,0,0,0,1,0,0,1","0,0,1,1,1,1,0,1,1,1,0,1","0,1,1,0,1,1",10,20,20,"","","<p style='font-size:30px'><b> New Contest! </b></p>","null","","",6,"",NA,NA,NA,NA,NA,NA,NA,NA,NA,NA,NA,NA,NA,NA,NA,NA,NA,NA,NA,NA,NA,NA,NA,NA,NA,NA,NA,NA,NA,NA,NA,NA,NA,NA,NA,NA,NA,NA,NA,NA,"",NA,NA,NA,NA,NA,NA,NA,NA,NA,2025-11-21 01:13:36
"24481.400000095367","https://psyc-201.github.io/xiang2023/exp/index1.html?PROLIFIC_PID=REDACTED&STUDY_ID=691f8ca61c6b4dcbb0aeb5f4&SESSION_ID=691fb95b478bba25ad3d3813","survey-html-form",39,728551,"0.0-353.0","Qycb9gtL+nQVUfeNstk1zrYv4SOGZFhAy2SHdLghTSBl2HgnR97AFgpaRgMN2kUCZ332PpOlmGiuT2dWEnann41gL1HmspFSNiYpNZkaSsxG/CW6cPGgKzVpBiQmnpsvniwqZAailQknevZwmqQ5yOLR0nrUsbNOwb6Qe1RdFBWrK+OTag0AUM0qfGcUeNrDs9upCxC2hv3H3gHeR6Mi1VgqtTvyzPzI3oesJ514zo3n9RotGrsCz0SCgCD4hAnFUzQoyU208hRNrkPv98AI0U+rWwlelbtOZAq395ACOn1UfRZKOCuuOkS1RKJLm2qDuQOyANAsJwqNbf7MCEtWIQ==","691f8ca61c6b4dcbb0aeb5f4","691fb95b478bba25ad3d3813","index1","<span style='color:red'>Fail,<span style='color:red'>Fail,<span style='color:green'>Lift,<span style='color:green'>Lift,<span style='color:red'>Fail,<span style='color:red'>Fail,<span style='color:red'>Fail,<span style='color:red'>Fail,<span style='color:green'>Lift,<span style='color:red'>Fail,<span style='color:red'>Fail,<span style='color:green'>Lift","<span style='color:red'>Fail,<span style='color:red'>Fail,<span style='color:green'>Lift,<span style='color:green'>Lift,<span style='color:green'>Lift,<span style='color:green'>Lift,<span style='color:red'>Fail,<span style='color:green'>Lift,<span style='color:green'>Lift,<span style='color:green'>Lift,<span style='color:red'>Fail,<span style='color:green'>Lift","<span style='color:red'>Fail,<span style='color:green'>Lift,<span style='color:green'>Lift,<span style='color:red'>Fail,<span style='color:green'>Lift,<span style='color:green'>Lift","0,0,1,1,0,0,0,0,1,0,0,1","0,0,1,1,1,1,0,1,1,1,0,1","0,1,1,0,1,1",10,20,20,"","","","","{""box1"":""7"",""box2"":""7"",""box3"":""40"",""box4"":""40""}","",6,"round1_outcome",1,6,1,7,7,40,40,1,1,10,7,7,40,40,1,1,10,NA,NA,NA,NA,NA,NA,NA,NA,NA,NA,NA,NA,NA,NA,NA,NA,NA,NA,NA,NA,NA,NA,NA,"",NA,NA,NA,NA,NA,NA,NA,NA,NA,2025-11-21 01:13:36
"9839.399999976158","https://psyc-201.github.io/xiang2023/exp/index1.html?PROLIFIC_PID=REDACTED&STUDY_ID=691f8ca61c6b4dcbb0aeb5f4&SESSION_ID=691fb95b478bba25ad3d3813","survey-html-form",40,738391,"0.0-354.0","Qycb9gtL+nQVUfeNstk1zrYv4SOGZFhAy2SHdLghTSBl2HgnR97AFgpaRgMN2kUCZ332PpOlmGiuT2dWEnann41gL1HmspFSNiYpNZkaSsxG/CW6cPGgKzVpBiQmnpsvniwqZAailQknevZwmqQ5yOLR0nrUsbNOwb6Qe1RdFBWrK+OTag0AUM0qfGcUeNrDs9upCxC2hv3H3gHeR6Mi1VgqtTvyzPzI3oesJ514zo3n9RotGrsCz0SCgCD4hAnFUzQoyU208hRNrkPv98AI0U+rWwlelbtOZAq395ACOn1UfRZKOCuuOkS1RKJLm2qDuQOyANAsJwqNbf7MCEtWIQ==","691f8ca61c6b4dcbb0aeb5f4","691fb95b478bba25ad3d3813","index1","<span style='color:red'>Fail,<span style='color:red'>Fail,<span style='color:green'>Lift,<span style='color:green'>Lift,<span style='color:red'>Fail,<span style='color:red'>Fail,<span style='color:red'>Fail,<span style='color:red'>Fail,<span style='color:green'>Lift,<span style='color:red'>Fail,<span style='color:red'>Fail,<span style='color:green'>Lift","<span style='color:red'>Fail,<span style='color:red'>Fail,<span style='color:green'>Lift,<span style='color:green'>Lift,<span style='color:green'>Lift,<span style='color:green'>Lift,<span style='color:red'>Fail,<span style='color:green'>Lift,<span style='color:green'>Lift,<span style='color:green'>Lift,<span style='color:red'>Fail,<span style='color:green'>Lift","<span style='color:red'>Fail,<span style='color:green'>Lift,<span style='color:green'>Lift,<span style='color:red'>Fail,<span style='color:green'>Lift,<span style='color:green'>Lift","0,0,1,1,0,0,0,0,1,0,0,1","0,0,1,1,1,1,0,1,1,1,0,1","0,1,1,0,1,1",10,20,20,"","","","","{""box1"":""100"",""box2"":""100""}","",6,"round2_ready",2,6,2,NA,NA,NA,NA,NA,NA,NA,NA,NA,NA,NA,NA,NA,NA,100,100,100,100,NA,NA,NA,NA,NA,NA,NA,NA,NA,NA,NA,NA,NA,NA,NA,NA,NA,NA,NA,"",NA,NA,NA,NA,NA,NA,NA,NA,NA,2025-11-21 01:13:36
"17195.900000095367","https://psyc-201.github.io/xiang2023/exp/index1.html?PROLIFIC_PID=REDACTED&STUDY_ID=691f8ca61c6b4dcbb0aeb5f4&SESSION_ID=691fb95b478bba25ad3d3813","survey-html-form",41,755588,"0.0-355.0","Qycb9gtL+nQVUfeNstk1zrYv4SOGZFhAy2SHdLghTSBl2HgnR97AFgpaRgMN2kUCZ332PpOlmGiuT2dWEnann41gL1HmspFSNiYpNZkaSsxG/CW6cPGgKzVpBiQmnpsvniwqZAailQknevZwmqQ5yOLR0nrUsbNOwb6Qe1RdFBWrK+OTag0AUM0qfGcUeNrDs9upCxC2hv3H3gHeR6Mi1VgqtTvyzPzI3oesJ514zo3n9RotGrsCz0SCgCD4hAnFUzQoyU208hRNrkPv98AI0U+rWwlelbtOZAq395ACOn1UfRZKOCuuOkS1RKJLm2qDuQOyANAsJwqNbf7MCEtWIQ==","691f8ca61c6b4dcbb0aeb5f4","691fb95b478bba25ad3d3813","index1","<span style='color:red'>Fail,<span style='color:red'>Fail,<span style='color:green'>Lift,<span style='color:green'>Lift,<span style='color:red'>Fail,<span style='color:red'>Fail,<span style='color:red'>Fail,<span style='color:red'>Fail,<span style='color:green'>Lift,<span style='color:red'>Fail,<span style='color:red'>Fail,<span style='color:green'>Lift","<span style='color:red'>Fail,<span style='color:red'>Fail,<span style='color:green'>Lift,<span style='color:green'>Lift,<span style='color:green'>Lift,<span style='color:green'>Lift,<span style='color:red'>Fail,<span style='color:green'>Lift,<span style='color:green'>Lift,<span style='color:green'>Lift,<span style='color:red'>Fail,<span style='color:green'>Lift","<span style='color:red'>Fail,<span style='color:green'>Lift,<span style='color:green'>Lift,<span style='color:red'>Fail,<span style='color:green'>Lift,<span style='color:green'>Lift","0,0,1,1,0,0,0,0,1,0,0,1","0,0,1,1,1,1,0,1,1,1,0,1","0,1,1,0,1,1",10,20,20,"","","","","{""box1"":""7"",""box2"":""7"",""box3"":""60"",""box4"":""60""}","",6,"round2_outcome",3,6,2,7,7,60,60,1,1,20,NA,NA,NA,NA,NA,NA,NA,NA,NA,NA,NA,7,7,60,60,1,1,20,NA,NA,NA,NA,NA,NA,NA,NA,NA,NA,NA,NA,"",NA,NA,NA,NA,NA,NA,NA,NA,NA,2025-11-21 01:13:36
"5415.299999952316","https://psyc-201.github.io/xiang2023/exp/index1.html?PROLIFIC_PID=REDACTED&STUDY_ID=691f8ca61c6b4dcbb0aeb5f4&SESSION_ID=691fb95b478bba25ad3d3813","survey-html-form",42,761004,"0.0-356.0","Qycb9gtL+nQVUfeNstk1zrYv4SOGZFhAy2SHdLghTSBl2HgnR97AFgpaRgMN2kUCZ332PpOlmGiuT2dWEnann41gL1HmspFSNiYpNZkaSsxG/CW6cPGgKzVpBiQmnpsvniwqZAailQknevZwmqQ5yOLR0nrUsbNOwb6Qe1RdFBWrK+OTag0AUM0qfGcUeNrDs9upCxC2hv3H3gHeR6Mi1VgqtTvyzPzI3oesJ514zo3n9RotGrsCz0SCgCD4hAnFUzQoyU208hRNrkPv98AI0U+rWwlelbtOZAq395ACOn1UfRZKOCuuOkS1RKJLm2qDuQOyANAsJwqNbf7MCEtWIQ==","691f8ca61c6b4dcbb0aeb5f4","691fb95b478bba25ad3d3813","index1","<span style='color:red'>Fail,<span style='color:red'>Fail,<span style='color:green'>Lift,<span style='color:green'>Lift,<span style='color:red'>Fail,<span style='color:red'>Fail,<span style='color:red'>Fail,<span style='color:red'>Fail,<span style='color:green'>Lift,<span style='color:red'>Fail,<span style='color:red'>Fail,<span style='color:green'>Lift","<span style='color:red'>Fail,<span style='color:red'>Fail,<span style='color:green'>Lift,<span style='color:green'>Lift,<span style='color:green'>Lift,<span style='color:green'>Lift,<span style='color:red'>Fail,<span style='color:green'>Lift,<span style='color:green'>Lift,<span style='color:green'>Lift,<span style='color:red'>Fail,<span style='color:green'>Lift","<span style='color:red'>Fail,<span style='color:green'>Lift,<span style='color:green'>Lift,<span style='color:red'>Fail,<span style='color:green'>Lift,<span style='color:green'>Lift","0,0,1,1,0,0,0,0,1,0,0,1","0,0,1,1,1,1,0,1,1,1,0,1","0,1,1,0,1,1",10,20,20,"","","","","{""box1"":""100""}","",6,"round3_ready",4,6,3,NA,NA,NA,NA,NA,NA,NA,NA,NA,NA,NA,NA,NA,NA,100,100,NA,NA,NA,NA,NA,NA,NA,NA,NA,100,100,NA,NA,NA,NA,NA,NA,NA,NA,NA,NA,"",NA,NA,NA,NA,NA,NA,NA,NA,NA,2025-11-21 01:13:36
"15187.299999952316","https://psyc-201.github.io/xiang2023/exp/index1.html?PROLIFIC_PID=REDACTED&STUDY_ID=691f8ca61c6b4dcbb0aeb5f4&SESSION_ID=691fb95b478bba25ad3d3813","survey-html-form",43,776192,"0.0-357.0-0.0","Qycb9gtL+nQVUfeNstk1zrYv4SOGZFhAy2SHdLghTSBl2HgnR97AFgpaRgMN2kUCZ332PpOlmGiuT2dWEnann41gL1HmspFSNiYpNZkaSsxG/CW6cPGgKzVpBiQmnpsvniwqZAailQknevZwmqQ5yOLR0nrUsbNOwb6Qe1RdFBWrK+OTag0AUM0qfGcUeNrDs9upCxC2hv3H3gHeR6Mi1VgqtTvyzPzI3oesJ514zo3n9RotGrsCz0SCgCD4hAnFUzQoyU208hRNrkPv98AI0U+rWwlelbtOZAq395ACOn1UfRZKOCuuOkS1RKJLm2qDuQOyANAsJwqNbf7MCEtWIQ==","691f8ca61c6b4dcbb0aeb5f4","691fb95b478bba25ad3d3813","index1","<span style='color:red'>Fail,<span style='color:red'>Fail,<span style='color:green'>Lift,<span style='color:green'>Lift,<span style='color:red'>Fail,<span style='color:red'>Fail,<span style='color:red'>Fail,<span style='color:red'>Fail,<span style='color:green'>Lift,<span style='color:red'>Fail,<span style='color:red'>Fail,<span style='color:green'>Lift","<span style='color:red'>Fail,<span style='color:red'>Fail,<span style='color:green'>Lift,<span style='color:green'>Lift,<span style='color:green'>Lift,<span style='color:green'>Lift,<span style='color:red'>Fail,<span style='color:green'>Lift,<span style='color:green'>Lift,<span style='color:green'>Lift,<span style='color:red'>Fail,<span style='color:green'>Lift","<span style='color:red'>Fail,<span style='color:green'>Lift,<span style='color:green'>Lift,<span style='color:red'>Fail,<span style='color:green'>Lift,<span style='color:green'>Lift","0,0,1,1,0,0,0,0,1,0,0,1","0,0,1,1,1,1,0,1,1,1,0,1","0,1,1,0,1,1",10,20,20,"","","","","{""box1"":""7"",""box2"":""7"",""box3"":""50"",""box4"":""50""}","",6,"round3_lift",5,6,3,7,7,50,50,1,1,20,NA,NA,NA,NA,NA,NA,NA,NA,NA,NA,NA,NA,NA,NA,NA,NA,NA,NA,NA,NA,NA,NA,7,7,1,1,20,NA,50,50,"",NA,NA,NA,NA,NA,NA,NA,NA,NA,2025-11-21 01:13:36
"30645.100000023842","https://psyc-201.github.io/xiang2023/exp/index1.html?PROLIFIC_PID=REDACTED&STUDY_ID=691f8ca61c6b4dcbb0aeb5f4&SESSION_ID=691fb95b478bba25ad3d3813","survey-text",44,806840,"0.0-361.0","Qycb9gtL+nQVUfeNstk1zrYv4SOGZFhAy2SHdLghTSBl2HgnR97AFgpaRgMN2kUCZ332PpOlmGiuT2dWEnann41gL1HmspFSNiYpNZkaSsxG/CW6cPGgKzVpBiQmnpsvniwqZAailQknevZwmqQ5yOLR0nrUsbNOwb6Qe1RdFBWrK+OTag0AUM0qfGcUeNrDs9upCxC2hv3H3gHeR6Mi1VgqtTvyzPzI3oesJ514zo3n9RotGrsCz0SCgCD4hAnFUzQoyU208hRNrkPv98AI0U+rWwlelbtOZAq395ACOn1UfRZKOCuuOkS1RKJLm2qDuQOyANAsJwqNbf7MCEtWIQ==","691f8ca61c6b4dcbb0aeb5f4","691fb95b478bba25ad3d3813","index1","<span style='color:red'>Fail,<span style='color:red'>Fail,<span style='color:green'>Lift,<span style='color:green'>Lift,<span style='color:red'>Fail,<span style='color:red'>Fail,<span style='color:red'>Fail,<span style='color:red'>Fail,<span style='color:green'>Lift,<span style='color:red'>Fail,<span style='color:red'>Fail,<span style='color:green'>Lift","<span style='color:red'>Fail,<span style='color:red'>Fail,<span style='color:green'>Lift,<span style='color:green'>Lift,<span style='color:green'>Lift,<span style='color:green'>Lift,<span style='color:red'>Fail,<span style='color:green'>Lift,<span style='color:green'>Lift,<span style='color:green'>Lift,<span style='color:red'>Fail,<span style='color:green'>Lift","<span style='color:red'>Fail,<span style='color:green'>Lift,<span style='color:green'>Lift,<span style='color:red'>Fail,<span style='color:green'>Lift,<span style='color:green'>Lift","0,0,1,1,0,0,0,0,1,0,0,1","0,0,1,1,1,1,0,1,1,1,0,1","0,1,1,0,1,1",10,20,20,"","","","","{""Q0"":""Guess how strong the contestants are and how likely they are to lift a box""}","",NA,"",NA,NA,NA,NA,NA,NA,NA,NA,NA,NA,NA,NA,NA,NA,NA,NA,NA,NA,NA,NA,NA,NA,NA,NA,NA,NA,NA,NA,NA,NA,NA,NA,NA,NA,NA,NA,NA,NA,NA,NA,"",NA,NA,NA,NA,NA,NA,NA,NA,NA,2025-11-21 01:13:36
"41366.10000002384","https://psyc-201.github.io/xiang2023/exp/index1.html?PROLIFIC_PID=REDACTED&STUDY_ID=691f8ca61c6b4dcbb0aeb5f4&SESSION_ID=691fb95b478bba25ad3d3813","survey-text",45,848208,"0.0-362.0","Qycb9gtL+nQVUfeNstk1zrYv4SOGZFhAy2SHdLghTSBl2HgnR97AFgpaRgMN2kUCZ332PpOlmGiuT2dWEnann41gL1HmspFSNiYpNZkaSsxG/CW6cPGgKzVpBiQmnpsvniwqZAailQknevZwmqQ5yOLR0nrUsbNOwb6Qe1RdFBWrK+OTag0AUM0qfGcUeNrDs9upCxC2hv3H3gHeR6Mi1VgqtTvyzPzI3oesJ514zo3n9RotGrsCz0SCgCD4hAnFUzQoyU208hRNrkPv98AI0U+rWwlelbtOZAq395ACOn1UfRZKOCuuOkS1RKJLm2qDuQOyANAsJwqNbf7MCEtWIQ==","691f8ca61c6b4dcbb0aeb5f4","691fb95b478bba25ad3d3813","index1","<span style='color:red'>Fail,<span style='color:red'>Fail,<span style='color:green'>Lift,<span style='color:green'>Lift,<span style='color:red'>Fail,<span style='color:red'>Fail,<span style='color:red'>Fail,<span style='color:red'>Fail,<span style='color:green'>Lift,<span style='color:red'>Fail,<span style='color:red'>Fail,<span style='color:green'>Lift","<span style='color:red'>Fail,<span style='color:red'>Fail,<span style='color:green'>Lift,<span style='color:green'>Lift,<span style='color:green'>Lift,<span style='color:green'>Lift,<span style='color:red'>Fail,<span style='color:green'>Lift,<span style='color:green'>Lift,<span style='color:green'>Lift,<span style='color:red'>Fail,<span style='color:green'>Lift","<span style='color:red'>Fail,<span style='color:green'>Lift,<span style='color:green'>Lift,<span style='color:red'>Fail,<span style='color:green'>Lift,<span style='color:green'>Lift","0,0,1,1,0,0,0,0,1,0,0,1","0,0,1,1,1,1,0,1,1,1,0,1","0,1,1,0,1,1",10,20,20,"","","","","{""Q0"":""I feel like a piece of information was missing that made it hard to determine the contestants strength""}","",NA,"",NA,NA,NA,NA,NA,NA,NA,NA,NA,NA,NA,NA,NA,NA,NA,NA,NA,NA,NA,NA,NA,NA,NA,NA,NA,NA,NA,NA,NA,NA,NA,NA,NA,NA,NA,NA,NA,NA,NA,NA,"[{""event"":""fullscreenenter"",""trial"":1,""time"":12369}]",4,2,0,80,0,0.2,NA,NA,NA,2025-11-21 01:13:36
"7574.100000023842","https://psyc-201.github.io/xiang2023/exp/index1.html?PROLIFIC_PID=REDACTED&STUDY_ID=691f8ca61c6b4dcbb0aeb5f4&SESSION_ID=691fb95b478bba25ad3d3813","html-button-response",46,855784,"0.0-363.0","Qycb9gtL+nQVUfeNstk1zrYv4SOGZFhAy2SHdLghTSBl2HgnR97AFgpaRgMN2kUCZ332PpOlmGiuT2dWEnann41gL1HmspFSNiYpNZkaSsxG/CW6cPGgKzVpBiQmnpsvniwqZAailQknevZwmqQ5yOLR0nrUsbNOwb6Qe1RdFBWrK+OTag0AUM0qfGcUeNrDs9upCxC2hv3H3gHeR6Mi1VgqtTvyzPzI3oesJ514zo3n9RotGrsCz0SCgCD4hAnFUzQoyU208hRNrkPv98AI0U+rWwlelbtOZAq395ACOn1UfRZKOCuuOkS1RKJLm2qDuQOyANAsJwqNbf7MCEtWIQ==","691f8ca61c6b4dcbb0aeb5f4","691fb95b478bba25ad3d3813","index1","<span style='color:red'>Fail,<span style='color:red'>Fail,<span style='color:green'>Lift,<span style='color:green'>Lift,<span style='color:red'>Fail,<span style='color:red'>Fail,<span style='color:red'>Fail,<span style='color:red'>Fail,<span style='color:green'>Lift,<span style='color:red'>Fail,<span style='color:red'>Fail,<span style='color:green'>Lift","<span style='color:red'>Fail,<span style='color:red'>Fail,<span style='color:green'>Lift,<span style='color:green'>Lift,<span style='color:green'>Lift,<span style='color:green'>Lift,<span style='color:red'>Fail,<span style='color:green'>Lift,<span style='color:green'>Lift,<span style='color:green'>Lift,<span style='color:red'>Fail,<span style='color:green'>Lift","<span style='color:red'>Fail,<span style='color:green'>Lift,<span style='color:green'>Lift,<span style='color:red'>Fail,<span style='color:green'>Lift,<span style='color:green'>Lift","0,0,1,1,0,0,0,0,1,0,0,1","0,0,1,1,1,1,0,1,1,1,0,1","0,1,1,0,1,1",10,20,20,"","","<p> We randomly picked <b>Contest 4, Round 2</b> to calculate your bonus. </p><p> The outcome of Contestant G on that round is <span style='color:red'>Fail</span>. </p><p> The probability you entered was 80. </p><p><b> You won a bonus of $0.20!</b></p><p> IMPORTANT: Please click 'Next' to complete the game.</p>","","","",NA,"",NA,NA,NA,NA,NA,NA,NA,NA,NA,NA,NA,NA,NA,NA,NA,NA,NA,NA,NA,NA,NA,NA,NA,NA,NA,NA,NA,NA,NA,NA,NA,NA,NA,NA,NA,NA,NA,NA,NA,NA,"",NA,NA,NA,NA,NA,NA,0,1,0,2025-11-21 01:13:36
