"rt","url","trial_type","trial_index","time_elapsed","internal_node_id","encryptedProlificId","studyId","sessionId","expIndex","round1_outcomes","round2_outcomes","round3_outcomes","round1_o","round2_o","round3_o","round1_reward","round2_reward","round3_reward","success","view_history","stimulus","key_press","responses","question_order","button_pressed","j","Stage","stage","contest","round","strength_a","strength_b","effort_a","effort_b","outcome_a","outcome_b","reward","r1_strength_a","r1_strength_b","r1_effort_a","r1_effort_b","r1_outcome_a","r1_outcome_b","r1_reward","probability_a","probability_b","r2_prob_a","r2_prob_b","r2_strength_a","r2_strength_b","r2_effort_a","r2_effort_b","r2_outcome_a","r2_outcome_b","r2_reward","r3_prob_a","r3_prob_b","r3_strength_a","r3_strength_b","r3_effort_a","r3_effort_b","r3_outcome_a","r3_outcome_b","r3_reward","attention_check","count","screen","pick_contest","pick_round","pick_side","trial_probability","trial_outcome","bonus","attention_sum","attention","datapipe_meta.attributes.date_modified"
"18039.30000000028","https://psyc-201.github.io/xiang2023/exp/index1.html?PROLIFIC_PID=REDACTED&STUDY_ID=691f8ca61c6b4dcbb0aeb5f4&SESSION_ID=691faaec855d05685b6c7f44","external-html",0,18243,"0.0-0.0","n/q672NhZTS656vxxj878tCyr5L548TnC6vP/N/sGFtI+IReltecASoEzMlFgYVIv8EhjAgynsh3CjPvddTsT3aPB4nsKHKqNykX/FjuUE6thV9Xl4JT0e6ZFf+avmqeyguk1Tu6f62BKur6hm82Lc6W/yIf0hKTxlMclBAlHxNObz32oQEcB6/lf0gt6gc2lSjR4Vh3joJPRPkqFl9WJ3v8sVK5WT+p2R3d4RzNn9g2CSTZXyJOOs+i4Yv+/hk9awvmOi1gAsHrXp6IcocACbQ4vPXuoOC7i3odTPFRo/paADXRZ171vKTjRQ2lt+E5gnd3FSSYRbIOIWGqyQshMg==","691f8ca61c6b4dcbb0aeb5f4","691faaec855d05685b6c7f44","index1","<span style='color:red'>Fail,<span style='color:red'>Fail,<span style='color:green'>Lift,<span style='color:green'>Lift,<span style='color:red'>Fail,<span style='color:red'>Fail,<span style='color:red'>Fail,<span style='color:red'>Fail,<span style='color:red'>Fail,<span style='color:green'>Lift,<span style='color:red'>Fail,<span style='color:green'>Lift","<span style='color:red'>Fail,<span style='color:red'>Fail,<span style='color:green'>Lift,<span style='color:green'>Lift,<span style='color:green'>Lift,<span style='color:green'>Lift,<span style='color:red'>Fail,<span style='color:green'>Lift,<span style='color:green'>Lift,<span style='color:green'>Lift,<span style='color:red'>Fail,<span style='color:green'>Lift","<span style='color:red'>Fail,<span style='color:green'>Lift,<span style='color:green'>Lift,<span style='color:red'>Fail,<span style='color:green'>Lift,<span style='color:green'>Lift","0,0,1,1,0,0,0,0,0,1,0,1","0,0,1,1,1,1,0,1,1,1,0,1","0,1,1,0,1,1",10,20,20,"","","","","","",NA,NA,"",NA,NA,NA,NA,NA,NA,NA,NA,NA,NA,NA,NA,NA,NA,NA,NA,NA,NA,NA,NA,NA,NA,NA,NA,NA,NA,NA,NA,NA,NA,NA,NA,NA,NA,NA,NA,NA,NA,NA,"",NA,NA,NA,NA,NA,NA,NA,NA,2025-11-21 00:14:18
"","https://psyc-201.github.io/xiang2023/exp/index1.html?PROLIFIC_PID=REDACTED&STUDY_ID=691f8ca61c6b4dcbb0aeb5f4&SESSION_ID=691faaec855d05685b6c7f44","fullscreen",1,23515,"0.0-1.0","n/q672NhZTS656vxxj878tCyr5L548TnC6vP/N/sGFtI+IReltecASoEzMlFgYVIv8EhjAgynsh3CjPvddTsT3aPB4nsKHKqNykX/FjuUE6thV9Xl4JT0e6ZFf+avmqeyguk1Tu6f62BKur6hm82Lc6W/yIf0hKTxlMclBAlHxNObz32oQEcB6/lf0gt6gc2lSjR4Vh3joJPRPkqFl9WJ3v8sVK5WT+p2R3d4RzNn9g2CSTZXyJOOs+i4Yv+/hk9awvmOi1gAsHrXp6IcocACbQ4vPXuoOC7i3odTPFRo/paADXRZ171vKTjRQ2lt+E5gnd3FSSYRbIOIWGqyQshMg==","691f8ca61c6b4dcbb0aeb5f4","691faaec855d05685b6c7f44","index1","<span style='color:red'>Fail,<span style='color:red'>Fail,<span style='color:green'>Lift,<span style='color:green'>Lift,<span style='color:red'>Fail,<span style='color:red'>Fail,<span style='color:red'>Fail,<span style='color:red'>Fail,<span style='color:red'>Fail,<span style='color:green'>Lift,<span style='color:red'>Fail,<span style='color:green'>Lift","<span style='color:red'>Fail,<span style='color:red'>Fail,<span style='color:green'>Lift,<span style='color:green'>Lift,<span style='color:green'>Lift,<span style='color:green'>Lift,<span style='color:red'>Fail,<span style='color:green'>Lift,<span style='color:green'>Lift,<span style='color:green'>Lift,<span style='color:red'>Fail,<span style='color:green'>Lift","<span style='color:red'>Fail,<span style='color:green'>Lift,<span style='color:green'>Lift,<span style='color:red'>Fail,<span style='color:green'>Lift,<span style='color:green'>Lift","0,0,1,1,0,0,0,0,0,1,0,1","0,0,1,1,1,1,0,1,1,1,0,1","0,1,1,0,1,1",10,20,20,"true","","","","","",NA,NA,"",NA,NA,NA,NA,NA,NA,NA,NA,NA,NA,NA,NA,NA,NA,NA,NA,NA,NA,NA,NA,NA,NA,NA,NA,NA,NA,NA,NA,NA,NA,NA,NA,NA,NA,NA,NA,NA,NA,NA,"",NA,NA,NA,NA,NA,NA,NA,NA,2025-11-21 00:14:18
"155831.5","https://psyc-201.github.io/xiang2023/exp/index1.html?PROLIFIC_PID=REDACTED&STUDY_ID=691f8ca61c6b4dcbb0aeb5f4&SESSION_ID=691faaec855d05685b6c7f44","instructions",2,179349,"0.0-2.0","n/q672NhZTS656vxxj878tCyr5L548TnC6vP/N/sGFtI+IReltecASoEzMlFgYVIv8EhjAgynsh3CjPvddTsT3aPB4nsKHKqNykX/FjuUE6thV9Xl4JT0e6ZFf+avmqeyguk1Tu6f62BKur6hm82Lc6W/yIf0hKTxlMclBAlHxNObz32oQEcB6/lf0gt6gc2lSjR4Vh3joJPRPkqFl9WJ3v8sVK5WT+p2R3d4RzNn9g2CSTZXyJOOs+i4Yv+/hk9awvmOi1gAsHrXp6IcocACbQ4vPXuoOC7i3odTPFRo/paADXRZ171vKTjRQ2lt+E5gnd3FSSYRbIOIWGqyQshMg==","691f8ca61c6b4dcbb0aeb5f4","691faaec855d05685b6c7f44","index1","<span style='color:red'>Fail,<span style='color:red'>Fail,<span style='color:green'>Lift,<span style='color:green'>Lift,<span style='color:red'>Fail,<span style='color:red'>Fail,<span style='color:red'>Fail,<span style='color:red'>Fail,<span style='color:red'>Fail,<span style='color:green'>Lift,<span style='color:red'>Fail,<span style='color:green'>Lift","<span style='color:red'>Fail,<span style='color:red'>Fail,<span style='color:green'>Lift,<span style='color:green'>Lift,<span style='color:green'>Lift,<span style='color:green'>Lift,<span style='color:red'>Fail,<span style='color:green'>Lift,<span style='color:green'>Lift,<span style='color:green'>Lift,<span style='color:red'>Fail,<span style='color:green'>Lift","<span style='color:red'>Fail,<span style='color:green'>Lift,<span style='color:green'>Lift,<span style='color:red'>Fail,<span style='color:green'>Lift,<span style='color:green'>Lift","0,0,1,1,0,0,0,0,0,1,0,1","0,0,1,1,1,1,0,1,1,1,0,1","0,1,1,0,1,1",10,20,20,"","[{""page_index"":0,""viewing_time"":29916.899999999907},{""page_index"":1,""viewing_time"":61080.299999999814},{""page_index"":2,""viewing_time"":31497.399999999907},{""page_index"":3,""viewing_time"":12566.80000000028},{""page_index"":4,""viewing_time"":7466.600000000093},{""page_index"":5,""viewing_time"":8840.799999999814},{""page_index"":6,""viewing_time"":4462.100000000093}]","","","","",NA,NA,"",NA,NA,NA,NA,NA,NA,NA,NA,NA,NA,NA,NA,NA,NA,NA,NA,NA,NA,NA,NA,NA,NA,NA,NA,NA,NA,NA,NA,NA,NA,NA,NA,NA,NA,NA,NA,NA,NA,NA,"",NA,NA,NA,NA,NA,NA,NA,NA,2025-11-21 00:14:18
"null","https://psyc-201.github.io/xiang2023/exp/index1.html?PROLIFIC_PID=REDACTED&STUDY_ID=691f8ca61c6b4dcbb0aeb5f4&SESSION_ID=691faaec855d05685b6c7f44","html-keyboard-response",3,180354,"0.0-3.0","n/q672NhZTS656vxxj878tCyr5L548TnC6vP/N/sGFtI+IReltecASoEzMlFgYVIv8EhjAgynsh3CjPvddTsT3aPB4nsKHKqNykX/FjuUE6thV9Xl4JT0e6ZFf+avmqeyguk1Tu6f62BKur6hm82Lc6W/yIf0hKTxlMclBAlHxNObz32oQEcB6/lf0gt6gc2lSjR4Vh3joJPRPkqFl9WJ3v8sVK5WT+p2R3d4RzNn9g2CSTZXyJOOs+i4Yv+/hk9awvmOi1gAsHrXp6IcocACbQ4vPXuoOC7i3odTPFRo/paADXRZ171vKTjRQ2lt+E5gnd3FSSYRbIOIWGqyQshMg==","691f8ca61c6b4dcbb0aeb5f4","691faaec855d05685b6c7f44","index1","<span style='color:red'>Fail,<span style='color:red'>Fail,<span style='color:green'>Lift,<span style='color:green'>Lift,<span style='color:red'>Fail,<span style='color:red'>Fail,<span style='color:red'>Fail,<span style='color:red'>Fail,<span style='color:red'>Fail,<span style='color:green'>Lift,<span style='color:red'>Fail,<span style='color:green'>Lift","<span style='color:red'>Fail,<span style='color:red'>Fail,<span style='color:green'>Lift,<span style='color:green'>Lift,<span style='color:green'>Lift,<span style='color:green'>Lift,<span style='color:red'>Fail,<span style='color:green'>Lift,<span style='color:green'>Lift,<span style='color:green'>Lift,<span style='color:red'>Fail,<span style='color:green'>Lift","<span style='color:red'>Fail,<span style='color:green'>Lift,<span style='color:green'>Lift,<span style='color:red'>Fail,<span style='color:green'>Lift,<span style='color:green'>Lift","0,0,1,1,0,0,0,0,0,1,0,1","0,0,1,1,1,1,0,1,1,1,0,1","0,1,1,0,1,1",10,20,20,"",""," ","null","","",NA,NA,"",NA,NA,NA,NA,NA,NA,NA,NA,NA,NA,NA,NA,NA,NA,NA,NA,NA,NA,NA,NA,NA,NA,NA,NA,NA,NA,NA,NA,NA,NA,NA,NA,NA,NA,NA,NA,NA,NA,NA,"",NA,NA,NA,NA,NA,NA,NA,NA,2025-11-21 00:14:18
"36055.700000000186","https://psyc-201.github.io/xiang2023/exp/index1.html?PROLIFIC_PID=REDACTED&STUDY_ID=691f8ca61c6b4dcbb0aeb5f4&SESSION_ID=691faaec855d05685b6c7f44","survey-multi-choice",4,216413,"0.0-4.0","n/q672NhZTS656vxxj878tCyr5L548TnC6vP/N/sGFtI+IReltecASoEzMlFgYVIv8EhjAgynsh3CjPvddTsT3aPB4nsKHKqNykX/FjuUE6thV9Xl4JT0e6ZFf+avmqeyguk1Tu6f62BKur6hm82Lc6W/yIf0hKTxlMclBAlHxNObz32oQEcB6/lf0gt6gc2lSjR4Vh3joJPRPkqFl9WJ3v8sVK5WT+p2R3d4RzNn9g2CSTZXyJOOs+i4Yv+/hk9awvmOi1gAsHrXp6IcocACbQ4vPXuoOC7i3odTPFRo/paADXRZ171vKTjRQ2lt+E5gnd3FSSYRbIOIWGqyQshMg==","691f8ca61c6b4dcbb0aeb5f4","691faaec855d05685b6c7f44","index1","<span style='color:red'>Fail,<span style='color:red'>Fail,<span style='color:green'>Lift,<span style='color:green'>Lift,<span style='color:red'>Fail,<span style='color:red'>Fail,<span style='color:red'>Fail,<span style='color:red'>Fail,<span style='color:red'>Fail,<span style='color:green'>Lift,<span style='color:red'>Fail,<span style='color:green'>Lift","<span style='color:red'>Fail,<span style='color:red'>Fail,<span style='color:green'>Lift,<span style='color:green'>Lift,<span style='color:green'>Lift,<span style='color:green'>Lift,<span style='color:red'>Fail,<span style='color:green'>Lift,<span style='color:green'>Lift,<span style='color:green'>Lift,<span style='color:red'>Fail,<span style='color:green'>Lift","<span style='color:red'>Fail,<span style='color:green'>Lift,<span style='color:green'>Lift,<span style='color:red'>Fail,<span style='color:green'>Lift,<span style='color:green'>Lift","0,0,1,1,0,0,0,0,0,1,0,1","0,0,1,1,1,1,0,1,1,1,0,1","0,1,1,0,1,1",10,20,20,"","","","","{""Q0"":""It consists of multiple contests, each contest with one round."",""Q1"":""When a new round starts."",""Q2"":""The box weight always stays the same (equivalent to strength of 5)."",""Q3"":""Each will get $20."",""Q4"":""How close my guesses are to the actual outcome.""}","[0,1,2,3,4]",NA,NA,"",NA,NA,NA,NA,NA,NA,NA,NA,NA,NA,NA,NA,NA,NA,NA,NA,NA,NA,NA,NA,NA,NA,NA,NA,NA,NA,NA,NA,NA,NA,NA,NA,NA,NA,NA,NA,NA,NA,NA,"",NA,NA,NA,NA,NA,NA,NA,NA,2025-11-21 00:14:18
"2426.899999999907","https://psyc-201.github.io/xiang2023/exp/index1.html?PROLIFIC_PID=REDACTED&STUDY_ID=691f8ca61c6b4dcbb0aeb5f4&SESSION_ID=691faaec855d05685b6c7f44","html-button-response",5,218844,"0.0-5.0-1.0","n/q672NhZTS656vxxj878tCyr5L548TnC6vP/N/sGFtI+IReltecASoEzMlFgYVIv8EhjAgynsh3CjPvddTsT3aPB4nsKHKqNykX/FjuUE6thV9Xl4JT0e6ZFf+avmqeyguk1Tu6f62BKur6hm82Lc6W/yIf0hKTxlMclBAlHxNObz32oQEcB6/lf0gt6gc2lSjR4Vh3joJPRPkqFl9WJ3v8sVK5WT+p2R3d4RzNn9g2CSTZXyJOOs+i4Yv+/hk9awvmOi1gAsHrXp6IcocACbQ4vPXuoOC7i3odTPFRo/paADXRZ171vKTjRQ2lt+E5gnd3FSSYRbIOIWGqyQshMg==","691f8ca61c6b4dcbb0aeb5f4","691faaec855d05685b6c7f44","index1","<span style='color:red'>Fail,<span style='color:red'>Fail,<span style='color:green'>Lift,<span style='color:green'>Lift,<span style='color:red'>Fail,<span style='color:red'>Fail,<span style='color:red'>Fail,<span style='color:red'>Fail,<span style='color:red'>Fail,<span style='color:green'>Lift,<span style='color:red'>Fail,<span style='color:green'>Lift","<span style='color:red'>Fail,<span style='color:red'>Fail,<span style='color:green'>Lift,<span style='color:green'>Lift,<span style='color:green'>Lift,<span style='color:green'>Lift,<span style='color:red'>Fail,<span style='color:green'>Lift,<span style='color:green'>Lift,<span style='color:green'>Lift,<span style='color:red'>Fail,<span style='color:green'>Lift","<span style='color:red'>Fail,<span style='color:green'>Lift,<span style='color:green'>Lift,<span style='color:red'>Fail,<span style='color:green'>Lift,<span style='color:green'>Lift","0,0,1,1,0,0,0,0,0,1,0,1","0,0,1,1,1,1,0,1,1,1,0,1","0,1,1,0,1,1",10,20,20,"","","<p> Oops! You did not pass the comprehension check. <b>Please note that you have only 1 attempt(s) left.</b> </p>","","","",1,NA,"",NA,NA,NA,NA,NA,NA,NA,NA,NA,NA,NA,NA,NA,NA,NA,NA,NA,NA,NA,NA,NA,NA,NA,NA,NA,NA,NA,NA,NA,NA,NA,NA,NA,NA,NA,NA,NA,NA,NA,"",NA,NA,NA,NA,NA,NA,NA,NA,2025-11-21 00:14:18
"68582.19999999972","https://psyc-201.github.io/xiang2023/exp/index1.html?PROLIFIC_PID=REDACTED&STUDY_ID=691f8ca61c6b4dcbb0aeb5f4&SESSION_ID=691faaec855d05685b6c7f44","instructions",6,287427,"0.0-6.0-0.0","n/q672NhZTS656vxxj878tCyr5L548TnC6vP/N/sGFtI+IReltecASoEzMlFgYVIv8EhjAgynsh3CjPvddTsT3aPB4nsKHKqNykX/FjuUE6thV9Xl4JT0e6ZFf+avmqeyguk1Tu6f62BKur6hm82Lc6W/yIf0hKTxlMclBAlHxNObz32oQEcB6/lf0gt6gc2lSjR4Vh3joJPRPkqFl9WJ3v8sVK5WT+p2R3d4RzNn9g2CSTZXyJOOs+i4Yv+/hk9awvmOi1gAsHrXp6IcocACbQ4vPXuoOC7i3odTPFRo/paADXRZ171vKTjRQ2lt+E5gnd3FSSYRbIOIWGqyQshMg==","691f8ca61c6b4dcbb0aeb5f4","691faaec855d05685b6c7f44","index1","<span style='color:red'>Fail,<span style='color:red'>Fail,<span style='color:green'>Lift,<span style='color:green'>Lift,<span style='color:red'>Fail,<span style='color:red'>Fail,<span style='color:red'>Fail,<span style='color:red'>Fail,<span style='color:red'>Fail,<span style='color:green'>Lift,<span style='color:red'>Fail,<span style='color:green'>Lift","<span style='color:red'>Fail,<span style='color:red'>Fail,<span style='color:green'>Lift,<span style='color:green'>Lift,<span style='color:green'>Lift,<span style='color:green'>Lift,<span style='color:red'>Fail,<span style='color:green'>Lift,<span style='color:green'>Lift,<span style='color:green'>Lift,<span style='color:red'>Fail,<span style='color:green'>Lift","<span style='color:red'>Fail,<span style='color:green'>Lift,<span style='color:green'>Lift,<span style='color:red'>Fail,<span style='color:green'>Lift,<span style='color:green'>Lift","0,0,1,1,0,0,0,0,0,1,0,1","0,0,1,1,1,1,0,1,1,1,0,1","0,1,1,0,1,1",10,20,20,"","[{""page_index"":0,""viewing_time"":28791.100000000093},{""page_index"":1,""viewing_time"":12008},{""page_index"":2,""viewing_time"":6445},{""page_index"":3,""viewing_time"":4855.0999999996275},{""page_index"":4,""viewing_time"":6048.9000000003725},{""page_index"":5,""viewing_time"":4521.399999999907},{""page_index"":6,""viewing_time"":5912.5}]","","","","",NA,NA,"",NA,NA,NA,NA,NA,NA,NA,NA,NA,NA,NA,NA,NA,NA,NA,NA,NA,NA,NA,NA,NA,NA,NA,NA,NA,NA,NA,NA,NA,NA,NA,NA,NA,NA,NA,NA,NA,NA,NA,"",NA,NA,NA,NA,NA,NA,NA,NA,2025-11-21 00:14:18
"null","https://psyc-201.github.io/xiang2023/exp/index1.html?PROLIFIC_PID=REDACTED&STUDY_ID=691f8ca61c6b4dcbb0aeb5f4&SESSION_ID=691faaec855d05685b6c7f44","html-keyboard-response",7,288438,"0.0-6.0-1.0","n/q672NhZTS656vxxj878tCyr5L548TnC6vP/N/sGFtI+IReltecASoEzMlFgYVIv8EhjAgynsh3CjPvddTsT3aPB4nsKHKqNykX/FjuUE6thV9Xl4JT0e6ZFf+avmqeyguk1Tu6f62BKur6hm82Lc6W/yIf0hKTxlMclBAlHxNObz32oQEcB6/lf0gt6gc2lSjR4Vh3joJPRPkqFl9WJ3v8sVK5WT+p2R3d4RzNn9g2CSTZXyJOOs+i4Yv+/hk9awvmOi1gAsHrXp6IcocACbQ4vPXuoOC7i3odTPFRo/paADXRZ171vKTjRQ2lt+E5gnd3FSSYRbIOIWGqyQshMg==","691f8ca61c6b4dcbb0aeb5f4","691faaec855d05685b6c7f44","index1","<span style='color:red'>Fail,<span style='color:red'>Fail,<span style='color:green'>Lift,<span style='color:green'>Lift,<span style='color:red'>Fail,<span style='color:red'>Fail,<span style='color:red'>Fail,<span style='color:red'>Fail,<span style='color:red'>Fail,<span style='color:green'>Lift,<span style='color:red'>Fail,<span style='color:green'>Lift","<span style='color:red'>Fail,<span style='color:red'>Fail,<span style='color:green'>Lift,<span style='color:green'>Lift,<span style='color:green'>Lift,<span style='color:green'>Lift,<span style='color:red'>Fail,<span style='color:green'>Lift,<span style='color:green'>Lift,<span style='color:green'>Lift,<span style='color:red'>Fail,<span style='color:green'>Lift","<span style='color:red'>Fail,<span style='color:green'>Lift,<span style='color:green'>Lift,<span style='color:red'>Fail,<span style='color:green'>Lift,<span style='color:green'>Lift","0,0,1,1,0,0,0,0,0,1,0,1","0,0,1,1,1,1,0,1,1,1,0,1","0,1,1,0,1,1",10,20,20,"",""," ","null","","",NA,NA,"",NA,NA,NA,NA,NA,NA,NA,NA,NA,NA,NA,NA,NA,NA,NA,NA,NA,NA,NA,NA,NA,NA,NA,NA,NA,NA,NA,NA,NA,NA,NA,NA,NA,NA,NA,NA,NA,NA,NA,"",NA,NA,NA,NA,NA,NA,NA,NA,2025-11-21 00:14:18
"145486.2999999998","https://psyc-201.github.io/xiang2023/exp/index1.html?PROLIFIC_PID=REDACTED&STUDY_ID=691f8ca61c6b4dcbb0aeb5f4&SESSION_ID=691faaec855d05685b6c7f44","survey-multi-choice",8,433929,"0.0-7.0-0.0","n/q672NhZTS656vxxj878tCyr5L548TnC6vP/N/sGFtI+IReltecASoEzMlFgYVIv8EhjAgynsh3CjPvddTsT3aPB4nsKHKqNykX/FjuUE6thV9Xl4JT0e6ZFf+avmqeyguk1Tu6f62BKur6hm82Lc6W/yIf0hKTxlMclBAlHxNObz32oQEcB6/lf0gt6gc2lSjR4Vh3joJPRPkqFl9WJ3v8sVK5WT+p2R3d4RzNn9g2CSTZXyJOOs+i4Yv+/hk9awvmOi1gAsHrXp6IcocACbQ4vPXuoOC7i3odTPFRo/paADXRZ171vKTjRQ2lt+E5gnd3FSSYRbIOIWGqyQshMg==","691f8ca61c6b4dcbb0aeb5f4","691faaec855d05685b6c7f44","index1","<span style='color:red'>Fail,<span style='color:red'>Fail,<span style='color:green'>Lift,<span style='color:green'>Lift,<span style='color:red'>Fail,<span style='color:red'>Fail,<span style='color:red'>Fail,<span style='color:red'>Fail,<span style='color:red'>Fail,<span style='color:green'>Lift,<span style='color:red'>Fail,<span style='color:green'>Lift","<span style='color:red'>Fail,<span style='color:red'>Fail,<span style='color:green'>Lift,<span style='color:green'>Lift,<span style='color:green'>Lift,<span style='color:green'>Lift,<span style='color:red'>Fail,<span style='color:green'>Lift,<span style='color:green'>Lift,<span style='color:green'>Lift,<span style='color:red'>Fail,<span style='color:green'>Lift","<span style='color:red'>Fail,<span style='color:green'>Lift,<span style='color:green'>Lift,<span style='color:red'>Fail,<span style='color:green'>Lift,<span style='color:green'>Lift","0,0,1,1,0,0,0,0,0,1,0,1","0,0,1,1,1,1,0,1,1,1,0,1","0,1,1,0,1,1",10,20,20,"","","","","{""Q0"":""It consists of multiple contests, each contest with three rounds."",""Q1"":""When a new contest begins."",""Q2"":""The box weight always stays the same (equivalent to strength of 5)."",""Q3"":""Each will get $20."",""Q4"":""How close my guesses are to the actual outcome.""}","[0,1,2,3,4]",NA,NA,"",NA,NA,NA,NA,NA,NA,NA,NA,NA,NA,NA,NA,NA,NA,NA,NA,NA,NA,NA,NA,NA,NA,NA,NA,NA,NA,NA,NA,NA,NA,NA,NA,NA,NA,NA,NA,NA,NA,NA,"",NA,NA,NA,NA,NA,NA,NA,NA,2025-11-21 00:14:18
"8445.799999999814","https://psyc-201.github.io/xiang2023/exp/index1.html?PROLIFIC_PID=REDACTED&STUDY_ID=691f8ca61c6b4dcbb0aeb5f4&SESSION_ID=691faaec855d05685b6c7f44","instructions",9,442391,"0.0-305.0","n/q672NhZTS656vxxj878tCyr5L548TnC6vP/N/sGFtI+IReltecASoEzMlFgYVIv8EhjAgynsh3CjPvddTsT3aPB4nsKHKqNykX/FjuUE6thV9Xl4JT0e6ZFf+avmqeyguk1Tu6f62BKur6hm82Lc6W/yIf0hKTxlMclBAlHxNObz32oQEcB6/lf0gt6gc2lSjR4Vh3joJPRPkqFl9WJ3v8sVK5WT+p2R3d4RzNn9g2CSTZXyJOOs+i4Yv+/hk9awvmOi1gAsHrXp6IcocACbQ4vPXuoOC7i3odTPFRo/paADXRZ171vKTjRQ2lt+E5gnd3FSSYRbIOIWGqyQshMg==","691f8ca61c6b4dcbb0aeb5f4","691faaec855d05685b6c7f44","index1","<span style='color:red'>Fail,<span style='color:red'>Fail,<span style='color:green'>Lift,<span style='color:green'>Lift,<span style='color:red'>Fail,<span style='color:red'>Fail,<span style='color:red'>Fail,<span style='color:red'>Fail,<span style='color:red'>Fail,<span style='color:green'>Lift,<span style='color:red'>Fail,<span style='color:green'>Lift","<span style='color:red'>Fail,<span style='color:red'>Fail,<span style='color:green'>Lift,<span style='color:green'>Lift,<span style='color:green'>Lift,<span style='color:green'>Lift,<span style='color:red'>Fail,<span style='color:green'>Lift,<span style='color:green'>Lift,<span style='color:green'>Lift,<span style='color:red'>Fail,<span style='color:green'>Lift","<span style='color:red'>Fail,<span style='color:green'>Lift,<span style='color:green'>Lift,<span style='color:red'>Fail,<span style='color:green'>Lift,<span style='color:green'>Lift","0,0,1,1,0,0,0,0,0,1,0,1","0,0,1,1,1,1,0,1,1,1,0,1","0,1,1,0,1,1",10,20,20,"","[{""page_index"":0,""viewing_time"":5258.600000000093},{""page_index"":1,""viewing_time"":3186.6999999997206}]","","","","",NA,NA,"",NA,NA,NA,NA,NA,NA,NA,NA,NA,NA,NA,NA,NA,NA,NA,NA,NA,NA,NA,NA,NA,NA,NA,NA,NA,NA,NA,NA,NA,NA,NA,NA,NA,NA,NA,NA,NA,NA,NA,"",NA,NA,NA,NA,NA,NA,NA,NA,2025-11-21 00:14:18
"null","https://psyc-201.github.io/xiang2023/exp/index1.html?PROLIFIC_PID=REDACTED&STUDY_ID=691f8ca61c6b4dcbb0aeb5f4&SESSION_ID=691faaec855d05685b6c7f44","html-keyboard-response",10,443401,"0.0-306.0","n/q672NhZTS656vxxj878tCyr5L548TnC6vP/N/sGFtI+IReltecASoEzMlFgYVIv8EhjAgynsh3CjPvddTsT3aPB4nsKHKqNykX/FjuUE6thV9Xl4JT0e6ZFf+avmqeyguk1Tu6f62BKur6hm82Lc6W/yIf0hKTxlMclBAlHxNObz32oQEcB6/lf0gt6gc2lSjR4Vh3joJPRPkqFl9WJ3v8sVK5WT+p2R3d4RzNn9g2CSTZXyJOOs+i4Yv+/hk9awvmOi1gAsHrXp6IcocACbQ4vPXuoOC7i3odTPFRo/paADXRZ171vKTjRQ2lt+E5gnd3FSSYRbIOIWGqyQshMg==","691f8ca61c6b4dcbb0aeb5f4","691faaec855d05685b6c7f44","index1","<span style='color:red'>Fail,<span style='color:red'>Fail,<span style='color:green'>Lift,<span style='color:green'>Lift,<span style='color:red'>Fail,<span style='color:red'>Fail,<span style='color:red'>Fail,<span style='color:red'>Fail,<span style='color:red'>Fail,<span style='color:green'>Lift,<span style='color:red'>Fail,<span style='color:green'>Lift","<span style='color:red'>Fail,<span style='color:red'>Fail,<span style='color:green'>Lift,<span style='color:green'>Lift,<span style='color:green'>Lift,<span style='color:green'>Lift,<span style='color:red'>Fail,<span style='color:green'>Lift,<span style='color:green'>Lift,<span style='color:green'>Lift,<span style='color:red'>Fail,<span style='color:green'>Lift","<span style='color:red'>Fail,<span style='color:green'>Lift,<span style='color:green'>Lift,<span style='color:red'>Fail,<span style='color:green'>Lift,<span style='color:green'>Lift","0,0,1,1,0,0,0,0,0,1,0,1","0,0,1,1,1,1,0,1,1,1,0,1","0,1,1,0,1,1",10,20,20,"",""," ","null","","",NA,1,"",NA,NA,NA,NA,NA,NA,NA,NA,NA,NA,NA,NA,NA,NA,NA,NA,NA,NA,NA,NA,NA,NA,NA,NA,NA,NA,NA,NA,NA,NA,NA,NA,NA,NA,NA,NA,NA,NA,NA,"",NA,NA,NA,NA,NA,NA,NA,NA,2025-11-21 00:14:18
"null","https://psyc-201.github.io/xiang2023/exp/index1.html?PROLIFIC_PID=REDACTED&STUDY_ID=691f8ca61c6b4dcbb0aeb5f4&SESSION_ID=691faaec855d05685b6c7f44","html-keyboard-response",11,446405,"0.0-307.0","n/q672NhZTS656vxxj878tCyr5L548TnC6vP/N/sGFtI+IReltecASoEzMlFgYVIv8EhjAgynsh3CjPvddTsT3aPB4nsKHKqNykX/FjuUE6thV9Xl4JT0e6ZFf+avmqeyguk1Tu6f62BKur6hm82Lc6W/yIf0hKTxlMclBAlHxNObz32oQEcB6/lf0gt6gc2lSjR4Vh3joJPRPkqFl9WJ3v8sVK5WT+p2R3d4RzNn9g2CSTZXyJOOs+i4Yv+/hk9awvmOi1gAsHrXp6IcocACbQ4vPXuoOC7i3odTPFRo/paADXRZ171vKTjRQ2lt+E5gnd3FSSYRbIOIWGqyQshMg==","691f8ca61c6b4dcbb0aeb5f4","691faaec855d05685b6c7f44","index1","<span style='color:red'>Fail,<span style='color:red'>Fail,<span style='color:green'>Lift,<span style='color:green'>Lift,<span style='color:red'>Fail,<span style='color:red'>Fail,<span style='color:red'>Fail,<span style='color:red'>Fail,<span style='color:red'>Fail,<span style='color:green'>Lift,<span style='color:red'>Fail,<span style='color:green'>Lift","<span style='color:red'>Fail,<span style='color:red'>Fail,<span style='color:green'>Lift,<span style='color:green'>Lift,<span style='color:green'>Lift,<span style='color:green'>Lift,<span style='color:red'>Fail,<span style='color:green'>Lift,<span style='color:green'>Lift,<span style='color:green'>Lift,<span style='color:red'>Fail,<span style='color:green'>Lift","<span style='color:red'>Fail,<span style='color:green'>Lift,<span style='color:green'>Lift,<span style='color:red'>Fail,<span style='color:green'>Lift,<span style='color:green'>Lift","0,0,1,1,0,0,0,0,0,1,0,1","0,0,1,1,1,1,0,1,1,1,0,1","0,1,1,0,1,1",10,20,20,"","","<p style='font-size:30px'><b> New Contest! </b></p>","null","","",NA,1,"",NA,NA,NA,NA,NA,NA,NA,NA,NA,NA,NA,NA,NA,NA,NA,NA,NA,NA,NA,NA,NA,NA,NA,NA,NA,NA,NA,NA,NA,NA,NA,NA,NA,NA,NA,NA,NA,NA,NA,"",NA,NA,NA,NA,NA,NA,NA,NA,2025-11-21 00:14:18
"12307.5","https://psyc-201.github.io/xiang2023/exp/index1.html?PROLIFIC_PID=REDACTED&STUDY_ID=691f8ca61c6b4dcbb0aeb5f4&SESSION_ID=691faaec855d05685b6c7f44","survey-html-form",12,458717,"0.0-308.0","n/q672NhZTS656vxxj878tCyr5L548TnC6vP/N/sGFtI+IReltecASoEzMlFgYVIv8EhjAgynsh3CjPvddTsT3aPB4nsKHKqNykX/FjuUE6thV9Xl4JT0e6ZFf+avmqeyguk1Tu6f62BKur6hm82Lc6W/yIf0hKTxlMclBAlHxNObz32oQEcB6/lf0gt6gc2lSjR4Vh3joJPRPkqFl9WJ3v8sVK5WT+p2R3d4RzNn9g2CSTZXyJOOs+i4Yv+/hk9awvmOi1gAsHrXp6IcocACbQ4vPXuoOC7i3odTPFRo/paADXRZ171vKTjRQ2lt+E5gnd3FSSYRbIOIWGqyQshMg==","691f8ca61c6b4dcbb0aeb5f4","691faaec855d05685b6c7f44","index1","<span style='color:red'>Fail,<span style='color:red'>Fail,<span style='color:green'>Lift,<span style='color:green'>Lift,<span style='color:red'>Fail,<span style='color:red'>Fail,<span style='color:red'>Fail,<span style='color:red'>Fail,<span style='color:red'>Fail,<span style='color:green'>Lift,<span style='color:red'>Fail,<span style='color:green'>Lift","<span style='color:red'>Fail,<span style='color:red'>Fail,<span style='color:green'>Lift,<span style='color:green'>Lift,<span style='color:green'>Lift,<span style='color:green'>Lift,<span style='color:red'>Fail,<span style='color:green'>Lift,<span style='color:green'>Lift,<span style='color:green'>Lift,<span style='color:red'>Fail,<span style='color:green'>Lift","<span style='color:red'>Fail,<span style='color:green'>Lift,<span style='color:green'>Lift,<span style='color:red'>Fail,<span style='color:green'>Lift,<span style='color:green'>Lift","0,0,1,1,0,0,0,0,0,1,0,1","0,0,1,1,1,1,0,1,1,1,0,1","0,1,1,0,1,1",10,20,20,"","","","","{""box1"":""3"",""box2"":""3""}","",NA,1,"round1_outcome",1,1,1,3,3,NA,NA,0,0,10,3,3,NA,NA,0,0,10,NA,NA,NA,NA,NA,NA,NA,NA,NA,NA,NA,NA,NA,NA,NA,NA,NA,NA,NA,NA,NA,NA,"",NA,NA,NA,NA,NA,NA,NA,NA,2025-11-21 00:14:18
"13617.30000000028","https://psyc-201.github.io/xiang2023/exp/index1.html?PROLIFIC_PID=REDACTED&STUDY_ID=691f8ca61c6b4dcbb0aeb5f4&SESSION_ID=691faaec855d05685b6c7f44","survey-html-form",13,472339,"0.0-309.0","n/q672NhZTS656vxxj878tCyr5L548TnC6vP/N/sGFtI+IReltecASoEzMlFgYVIv8EhjAgynsh3CjPvddTsT3aPB4nsKHKqNykX/FjuUE6thV9Xl4JT0e6ZFf+avmqeyguk1Tu6f62BKur6hm82Lc6W/yIf0hKTxlMclBAlHxNObz32oQEcB6/lf0gt6gc2lSjR4Vh3joJPRPkqFl9WJ3v8sVK5WT+p2R3d4RzNn9g2CSTZXyJOOs+i4Yv+/hk9awvmOi1gAsHrXp6IcocACbQ4vPXuoOC7i3odTPFRo/paADXRZ171vKTjRQ2lt+E5gnd3FSSYRbIOIWGqyQshMg==","691f8ca61c6b4dcbb0aeb5f4","691faaec855d05685b6c7f44","index1","<span style='color:red'>Fail,<span style='color:red'>Fail,<span style='color:green'>Lift,<span style='color:green'>Lift,<span style='color:red'>Fail,<span style='color:red'>Fail,<span style='color:red'>Fail,<span style='color:red'>Fail,<span style='color:red'>Fail,<span style='color:green'>Lift,<span style='color:red'>Fail,<span style='color:green'>Lift","<span style='color:red'>Fail,<span style='color:red'>Fail,<span style='color:green'>Lift,<span style='color:green'>Lift,<span style='color:green'>Lift,<span style='color:green'>Lift,<span style='color:red'>Fail,<span style='color:green'>Lift,<span style='color:green'>Lift,<span style='color:green'>Lift,<span style='color:red'>Fail,<span style='color:green'>Lift","<span style='color:red'>Fail,<span style='color:green'>Lift,<span style='color:green'>Lift,<span style='color:red'>Fail,<span style='color:green'>Lift,<span style='color:green'>Lift","0,0,1,1,0,0,0,0,0,1,0,1","0,0,1,1,1,1,0,1,1,1,0,1","0,1,1,0,1,1",10,20,20,"","","","","{""box1"":""35"",""box2"":""25""}","",NA,1,"round2_ready",2,1,2,NA,NA,NA,NA,NA,NA,NA,NA,NA,NA,NA,NA,NA,NA,35,25,35,25,NA,NA,NA,NA,NA,NA,NA,NA,NA,NA,NA,NA,NA,NA,NA,NA,NA,NA,"",NA,NA,NA,NA,NA,NA,NA,NA,2025-11-21 00:14:18
"19709.600000000093","https://psyc-201.github.io/xiang2023/exp/index1.html?PROLIFIC_PID=REDACTED&STUDY_ID=691f8ca61c6b4dcbb0aeb5f4&SESSION_ID=691faaec855d05685b6c7f44","survey-html-form",14,492054,"0.0-310.0","n/q672NhZTS656vxxj878tCyr5L548TnC6vP/N/sGFtI+IReltecASoEzMlFgYVIv8EhjAgynsh3CjPvddTsT3aPB4nsKHKqNykX/FjuUE6thV9Xl4JT0e6ZFf+avmqeyguk1Tu6f62BKur6hm82Lc6W/yIf0hKTxlMclBAlHxNObz32oQEcB6/lf0gt6gc2lSjR4Vh3joJPRPkqFl9WJ3v8sVK5WT+p2R3d4RzNn9g2CSTZXyJOOs+i4Yv+/hk9awvmOi1gAsHrXp6IcocACbQ4vPXuoOC7i3odTPFRo/paADXRZ171vKTjRQ2lt+E5gnd3FSSYRbIOIWGqyQshMg==","691f8ca61c6b4dcbb0aeb5f4","691faaec855d05685b6c7f44","index1","<span style='color:red'>Fail,<span style='color:red'>Fail,<span style='color:green'>Lift,<span style='color:green'>Lift,<span style='color:red'>Fail,<span style='color:red'>Fail,<span style='color:red'>Fail,<span style='color:red'>Fail,<span style='color:red'>Fail,<span style='color:green'>Lift,<span style='color:red'>Fail,<span style='color:green'>Lift","<span style='color:red'>Fail,<span style='color:red'>Fail,<span style='color:green'>Lift,<span style='color:green'>Lift,<span style='color:green'>Lift,<span style='color:green'>Lift,<span style='color:red'>Fail,<span style='color:green'>Lift,<span style='color:green'>Lift,<span style='color:green'>Lift,<span style='color:red'>Fail,<span style='color:green'>Lift","<span style='color:red'>Fail,<span style='color:green'>Lift,<span style='color:green'>Lift,<span style='color:red'>Fail,<span style='color:green'>Lift,<span style='color:green'>Lift","0,0,1,1,0,0,0,0,0,1,0,1","0,0,1,1,1,1,0,1,1,1,0,1","0,1,1,0,1,1",10,20,20,"","","","","{""box1"":""6"",""box2"":""6"",""box3"":""75"",""box4"":""75""}","",NA,1,"round2_outcome",3,1,2,6,6,75,75,1,1,20,NA,NA,NA,NA,NA,NA,NA,NA,NA,NA,NA,6,6,75,75,1,1,20,NA,NA,NA,NA,NA,NA,NA,NA,NA,NA,NA,"",NA,NA,NA,NA,NA,NA,NA,NA,2025-11-21 00:14:18
"6590.0999999996275","https://psyc-201.github.io/xiang2023/exp/index1.html?PROLIFIC_PID=REDACTED&STUDY_ID=691f8ca61c6b4dcbb0aeb5f4&SESSION_ID=691faaec855d05685b6c7f44","survey-html-form",15,498649,"0.0-311.0","n/q672NhZTS656vxxj878tCyr5L548TnC6vP/N/sGFtI+IReltecASoEzMlFgYVIv8EhjAgynsh3CjPvddTsT3aPB4nsKHKqNykX/FjuUE6thV9Xl4JT0e6ZFf+avmqeyguk1Tu6f62BKur6hm82Lc6W/yIf0hKTxlMclBAlHxNObz32oQEcB6/lf0gt6gc2lSjR4Vh3joJPRPkqFl9WJ3v8sVK5WT+p2R3d4RzNn9g2CSTZXyJOOs+i4Yv+/hk9awvmOi1gAsHrXp6IcocACbQ4vPXuoOC7i3odTPFRo/paADXRZ171vKTjRQ2lt+E5gnd3FSSYRbIOIWGqyQshMg==","691f8ca61c6b4dcbb0aeb5f4","691faaec855d05685b6c7f44","index1","<span style='color:red'>Fail,<span style='color:red'>Fail,<span style='color:green'>Lift,<span style='color:green'>Lift,<span style='color:red'>Fail,<span style='color:red'>Fail,<span style='color:red'>Fail,<span style='color:red'>Fail,<span style='color:red'>Fail,<span style='color:green'>Lift,<span style='color:red'>Fail,<span style='color:green'>Lift","<span style='color:red'>Fail,<span style='color:red'>Fail,<span style='color:green'>Lift,<span style='color:green'>Lift,<span style='color:green'>Lift,<span style='color:green'>Lift,<span style='color:red'>Fail,<span style='color:green'>Lift,<span style='color:green'>Lift,<span style='color:green'>Lift,<span style='color:red'>Fail,<span style='color:green'>Lift","<span style='color:red'>Fail,<span style='color:green'>Lift,<span style='color:green'>Lift,<span style='color:red'>Fail,<span style='color:green'>Lift,<span style='color:green'>Lift","0,0,1,1,0,0,0,0,0,1,0,1","0,0,1,1,1,1,0,1,1,1,0,1","0,1,1,0,1,1",10,20,20,"","","","","{""box1"":""100""}","",NA,1,"round3_ready",4,1,3,NA,NA,NA,NA,NA,NA,NA,NA,NA,NA,NA,NA,NA,NA,100,100,NA,NA,NA,NA,NA,NA,NA,NA,NA,100,100,NA,NA,NA,NA,NA,NA,NA,NA,NA,"",NA,NA,NA,NA,NA,NA,NA,NA,2025-11-21 00:14:18
"17943.200000000186","https://psyc-201.github.io/xiang2023/exp/index1.html?PROLIFIC_PID=REDACTED&STUDY_ID=691f8ca61c6b4dcbb0aeb5f4&SESSION_ID=691faaec855d05685b6c7f44","survey-html-form",16,516600,"0.0-312.0-0.0","n/q672NhZTS656vxxj878tCyr5L548TnC6vP/N/sGFtI+IReltecASoEzMlFgYVIv8EhjAgynsh3CjPvddTsT3aPB4nsKHKqNykX/FjuUE6thV9Xl4JT0e6ZFf+avmqeyguk1Tu6f62BKur6hm82Lc6W/yIf0hKTxlMclBAlHxNObz32oQEcB6/lf0gt6gc2lSjR4Vh3joJPRPkqFl9WJ3v8sVK5WT+p2R3d4RzNn9g2CSTZXyJOOs+i4Yv+/hk9awvmOi1gAsHrXp6IcocACbQ4vPXuoOC7i3odTPFRo/paADXRZ171vKTjRQ2lt+E5gnd3FSSYRbIOIWGqyQshMg==","691f8ca61c6b4dcbb0aeb5f4","691faaec855d05685b6c7f44","index1","<span style='color:red'>Fail,<span style='color:red'>Fail,<span style='color:green'>Lift,<span style='color:green'>Lift,<span style='color:red'>Fail,<span style='color:red'>Fail,<span style='color:red'>Fail,<span style='color:red'>Fail,<span style='color:red'>Fail,<span style='color:green'>Lift,<span style='color:red'>Fail,<span style='color:green'>Lift","<span style='color:red'>Fail,<span style='color:red'>Fail,<span style='color:green'>Lift,<span style='color:green'>Lift,<span style='color:green'>Lift,<span style='color:green'>Lift,<span style='color:red'>Fail,<span style='color:green'>Lift,<span style='color:green'>Lift,<span style='color:green'>Lift,<span style='color:red'>Fail,<span style='color:green'>Lift","<span style='color:red'>Fail,<span style='color:green'>Lift,<span style='color:green'>Lift,<span style='color:red'>Fail,<span style='color:green'>Lift,<span style='color:green'>Lift","0,0,1,1,0,0,0,0,0,1,0,1","0,0,1,1,1,1,0,1,1,1,0,1","0,1,1,0,1,1",10,20,20,"","","","","{""box1"":""6"",""box2"":""7"",""box3"":""75"",""box4"":""80""}","",NA,2,"round3_lift",5,1,3,6,7,75,80,1,1,20,NA,NA,NA,NA,NA,NA,NA,NA,NA,NA,NA,NA,NA,NA,NA,NA,NA,NA,NA,NA,6,7,75,80,1,1,20,NA,NA,"",NA,NA,NA,NA,NA,NA,NA,NA,2025-11-21 00:14:18
"null","https://psyc-201.github.io/xiang2023/exp/index1.html?PROLIFIC_PID=REDACTED&STUDY_ID=691f8ca61c6b4dcbb0aeb5f4&SESSION_ID=691faaec855d05685b6c7f44","html-keyboard-response",17,519619,"0.0-316.0","n/q672NhZTS656vxxj878tCyr5L548TnC6vP/N/sGFtI+IReltecASoEzMlFgYVIv8EhjAgynsh3CjPvddTsT3aPB4nsKHKqNykX/FjuUE6thV9Xl4JT0e6ZFf+avmqeyguk1Tu6f62BKur6hm82Lc6W/yIf0hKTxlMclBAlHxNObz32oQEcB6/lf0gt6gc2lSjR4Vh3joJPRPkqFl9WJ3v8sVK5WT+p2R3d4RzNn9g2CSTZXyJOOs+i4Yv+/hk9awvmOi1gAsHrXp6IcocACbQ4vPXuoOC7i3odTPFRo/paADXRZ171vKTjRQ2lt+E5gnd3FSSYRbIOIWGqyQshMg==","691f8ca61c6b4dcbb0aeb5f4","691faaec855d05685b6c7f44","index1","<span style='color:red'>Fail,<span style='color:red'>Fail,<span style='color:green'>Lift,<span style='color:green'>Lift,<span style='color:red'>Fail,<span style='color:red'>Fail,<span style='color:red'>Fail,<span style='color:red'>Fail,<span style='color:red'>Fail,<span style='color:green'>Lift,<span style='color:red'>Fail,<span style='color:green'>Lift","<span style='color:red'>Fail,<span style='color:red'>Fail,<span style='color:green'>Lift,<span style='color:green'>Lift,<span style='color:green'>Lift,<span style='color:green'>Lift,<span style='color:red'>Fail,<span style='color:green'>Lift,<span style='color:green'>Lift,<span style='color:green'>Lift,<span style='color:red'>Fail,<span style='color:green'>Lift","<span style='color:red'>Fail,<span style='color:green'>Lift,<span style='color:green'>Lift,<span style='color:red'>Fail,<span style='color:green'>Lift,<span style='color:green'>Lift","0,0,1,1,0,0,0,0,0,1,0,1","0,0,1,1,1,1,0,1,1,1,0,1","0,1,1,0,1,1",10,20,20,"","","<p style='font-size:30px'><b> New Contest! </b></p>","null","","",NA,2,"",NA,NA,NA,NA,NA,NA,NA,NA,NA,NA,NA,NA,NA,NA,NA,NA,NA,NA,NA,NA,NA,NA,NA,NA,NA,NA,NA,NA,NA,NA,NA,NA,NA,NA,NA,NA,NA,NA,NA,"",NA,NA,NA,NA,NA,NA,NA,NA,2025-11-21 00:14:18
"27018.599999999627","https://psyc-201.github.io/xiang2023/exp/index1.html?PROLIFIC_PID=REDACTED&STUDY_ID=691f8ca61c6b4dcbb0aeb5f4&SESSION_ID=691faaec855d05685b6c7f44","survey-html-form",18,546642,"0.0-317.0","n/q672NhZTS656vxxj878tCyr5L548TnC6vP/N/sGFtI+IReltecASoEzMlFgYVIv8EhjAgynsh3CjPvddTsT3aPB4nsKHKqNykX/FjuUE6thV9Xl4JT0e6ZFf+avmqeyguk1Tu6f62BKur6hm82Lc6W/yIf0hKTxlMclBAlHxNObz32oQEcB6/lf0gt6gc2lSjR4Vh3joJPRPkqFl9WJ3v8sVK5WT+p2R3d4RzNn9g2CSTZXyJOOs+i4Yv+/hk9awvmOi1gAsHrXp6IcocACbQ4vPXuoOC7i3odTPFRo/paADXRZ171vKTjRQ2lt+E5gnd3FSSYRbIOIWGqyQshMg==","691f8ca61c6b4dcbb0aeb5f4","691faaec855d05685b6c7f44","index1","<span style='color:red'>Fail,<span style='color:red'>Fail,<span style='color:green'>Lift,<span style='color:green'>Lift,<span style='color:red'>Fail,<span style='color:red'>Fail,<span style='color:red'>Fail,<span style='color:red'>Fail,<span style='color:red'>Fail,<span style='color:green'>Lift,<span style='color:red'>Fail,<span style='color:green'>Lift","<span style='color:red'>Fail,<span style='color:red'>Fail,<span style='color:green'>Lift,<span style='color:green'>Lift,<span style='color:green'>Lift,<span style='color:green'>Lift,<span style='color:red'>Fail,<span style='color:green'>Lift,<span style='color:green'>Lift,<span style='color:green'>Lift,<span style='color:red'>Fail,<span style='color:green'>Lift","<span style='color:red'>Fail,<span style='color:green'>Lift,<span style='color:green'>Lift,<span style='color:red'>Fail,<span style='color:green'>Lift,<span style='color:green'>Lift","0,0,1,1,0,0,0,0,0,1,0,1","0,0,1,1,1,1,0,1,1,1,0,1","0,1,1,0,1,1",10,20,20,"","","","","{""box1"":""7"",""box2"":""7"",""box3"":""80"",""box4"":""80""}","",NA,2,"round1_outcome",1,2,1,7,7,80,80,1,1,10,7,7,80,80,1,1,10,NA,NA,NA,NA,NA,NA,NA,NA,NA,NA,NA,NA,NA,NA,NA,NA,NA,NA,NA,NA,NA,NA,"",NA,NA,NA,NA,NA,NA,NA,NA,2025-11-21 00:14:18
"9160","https://psyc-201.github.io/xiang2023/exp/index1.html?PROLIFIC_PID=REDACTED&STUDY_ID=691f8ca61c6b4dcbb0aeb5f4&SESSION_ID=691faaec855d05685b6c7f44","survey-html-form",19,555808,"0.0-318.0","n/q672NhZTS656vxxj878tCyr5L548TnC6vP/N/sGFtI+IReltecASoEzMlFgYVIv8EhjAgynsh3CjPvddTsT3aPB4nsKHKqNykX/FjuUE6thV9Xl4JT0e6ZFf+avmqeyguk1Tu6f62BKur6hm82Lc6W/yIf0hKTxlMclBAlHxNObz32oQEcB6/lf0gt6gc2lSjR4Vh3joJPRPkqFl9WJ3v8sVK5WT+p2R3d4RzNn9g2CSTZXyJOOs+i4Yv+/hk9awvmOi1gAsHrXp6IcocACbQ4vPXuoOC7i3odTPFRo/paADXRZ171vKTjRQ2lt+E5gnd3FSSYRbIOIWGqyQshMg==","691f8ca61c6b4dcbb0aeb5f4","691faaec855d05685b6c7f44","index1","<span style='color:red'>Fail,<span style='color:red'>Fail,<span style='color:green'>Lift,<span style='color:green'>Lift,<span style='color:red'>Fail,<span style='color:red'>Fail,<span style='color:red'>Fail,<span style='color:red'>Fail,<span style='color:red'>Fail,<span style='color:green'>Lift,<span style='color:red'>Fail,<span style='color:green'>Lift","<span style='color:red'>Fail,<span style='color:red'>Fail,<span style='color:green'>Lift,<span style='color:green'>Lift,<span style='color:green'>Lift,<span style='color:green'>Lift,<span style='color:red'>Fail,<span style='color:green'>Lift,<span style='color:green'>Lift,<span style='color:green'>Lift,<span style='color:red'>Fail,<span style='color:green'>Lift","<span style='color:red'>Fail,<span style='color:green'>Lift,<span style='color:green'>Lift,<span style='color:red'>Fail,<span style='color:green'>Lift,<span style='color:green'>Lift","0,0,1,1,0,0,0,0,0,1,0,1","0,0,1,1,1,1,0,1,1,1,0,1","0,1,1,0,1,1",10,20,20,"","","","","{""box1"":""100"",""box2"":""100""}","",NA,2,"round2_ready",2,2,2,NA,NA,NA,NA,NA,NA,NA,NA,NA,NA,NA,NA,NA,NA,100,100,100,100,NA,NA,NA,NA,NA,NA,NA,NA,NA,NA,NA,NA,NA,NA,NA,NA,NA,NA,"",NA,NA,NA,NA,NA,NA,NA,NA,2025-11-21 00:14:18
"18323.5","https://psyc-201.github.io/xiang2023/exp/index1.html?PROLIFIC_PID=REDACTED&STUDY_ID=691f8ca61c6b4dcbb0aeb5f4&SESSION_ID=691faaec855d05685b6c7f44","survey-html-form",20,574137,"0.0-319.0","n/q672NhZTS656vxxj878tCyr5L548TnC6vP/N/sGFtI+IReltecASoEzMlFgYVIv8EhjAgynsh3CjPvddTsT3aPB4nsKHKqNykX/FjuUE6thV9Xl4JT0e6ZFf+avmqeyguk1Tu6f62BKur6hm82Lc6W/yIf0hKTxlMclBAlHxNObz32oQEcB6/lf0gt6gc2lSjR4Vh3joJPRPkqFl9WJ3v8sVK5WT+p2R3d4RzNn9g2CSTZXyJOOs+i4Yv+/hk9awvmOi1gAsHrXp6IcocACbQ4vPXuoOC7i3odTPFRo/paADXRZ171vKTjRQ2lt+E5gnd3FSSYRbIOIWGqyQshMg==","691f8ca61c6b4dcbb0aeb5f4","691faaec855d05685b6c7f44","index1","<span style='color:red'>Fail,<span style='color:red'>Fail,<span style='color:green'>Lift,<span style='color:green'>Lift,<span style='color:red'>Fail,<span style='color:red'>Fail,<span style='color:red'>Fail,<span style='color:red'>Fail,<span style='color:red'>Fail,<span style='color:green'>Lift,<span style='color:red'>Fail,<span style='color:green'>Lift","<span style='color:red'>Fail,<span style='color:red'>Fail,<span style='color:green'>Lift,<span style='color:green'>Lift,<span style='color:green'>Lift,<span style='color:green'>Lift,<span style='color:red'>Fail,<span style='color:green'>Lift,<span style='color:green'>Lift,<span style='color:green'>Lift,<span style='color:red'>Fail,<span style='color:green'>Lift","<span style='color:red'>Fail,<span style='color:green'>Lift,<span style='color:green'>Lift,<span style='color:red'>Fail,<span style='color:green'>Lift,<span style='color:green'>Lift","0,0,1,1,0,0,0,0,0,1,0,1","0,0,1,1,1,1,0,1,1,1,0,1","0,1,1,0,1,1",10,20,20,"","","","","{""box1"":""7"",""box2"":""7"",""box3"":""75"",""box4"":""75""}","",NA,2,"round2_outcome",3,2,2,7,7,75,75,1,1,20,NA,NA,NA,NA,NA,NA,NA,NA,NA,NA,NA,7,7,75,75,1,1,20,NA,NA,NA,NA,NA,NA,NA,NA,NA,NA,NA,"",NA,NA,NA,NA,NA,NA,NA,NA,2025-11-21 00:14:18
"4943","https://psyc-201.github.io/xiang2023/exp/index1.html?PROLIFIC_PID=REDACTED&STUDY_ID=691f8ca61c6b4dcbb0aeb5f4&SESSION_ID=691faaec855d05685b6c7f44","survey-html-form",21,579084,"0.0-320.0","n/q672NhZTS656vxxj878tCyr5L548TnC6vP/N/sGFtI+IReltecASoEzMlFgYVIv8EhjAgynsh3CjPvddTsT3aPB4nsKHKqNykX/FjuUE6thV9Xl4JT0e6ZFf+avmqeyguk1Tu6f62BKur6hm82Lc6W/yIf0hKTxlMclBAlHxNObz32oQEcB6/lf0gt6gc2lSjR4Vh3joJPRPkqFl9WJ3v8sVK5WT+p2R3d4RzNn9g2CSTZXyJOOs+i4Yv+/hk9awvmOi1gAsHrXp6IcocACbQ4vPXuoOC7i3odTPFRo/paADXRZ171vKTjRQ2lt+E5gnd3FSSYRbIOIWGqyQshMg==","691f8ca61c6b4dcbb0aeb5f4","691faaec855d05685b6c7f44","index1","<span style='color:red'>Fail,<span style='color:red'>Fail,<span style='color:green'>Lift,<span style='color:green'>Lift,<span style='color:red'>Fail,<span style='color:red'>Fail,<span style='color:red'>Fail,<span style='color:red'>Fail,<span style='color:red'>Fail,<span style='color:green'>Lift,<span style='color:red'>Fail,<span style='color:green'>Lift","<span style='color:red'>Fail,<span style='color:red'>Fail,<span style='color:green'>Lift,<span style='color:green'>Lift,<span style='color:green'>Lift,<span style='color:green'>Lift,<span style='color:red'>Fail,<span style='color:green'>Lift,<span style='color:green'>Lift,<span style='color:green'>Lift,<span style='color:red'>Fail,<span style='color:green'>Lift","<span style='color:red'>Fail,<span style='color:green'>Lift,<span style='color:green'>Lift,<span style='color:red'>Fail,<span style='color:green'>Lift,<span style='color:green'>Lift","0,0,1,1,0,0,0,0,0,1,0,1","0,0,1,1,1,1,0,1,1,1,0,1","0,1,1,0,1,1",10,20,20,"","","","","{""box1"":""100""}","",NA,2,"round3_ready",4,2,3,NA,NA,NA,NA,NA,NA,NA,NA,NA,NA,NA,NA,NA,NA,100,100,NA,NA,NA,NA,NA,NA,NA,NA,NA,100,100,NA,NA,NA,NA,NA,NA,NA,NA,NA,"",NA,NA,NA,NA,NA,NA,NA,NA,2025-11-21 00:14:18
"14646.399999999907","https://psyc-201.github.io/xiang2023/exp/index1.html?PROLIFIC_PID=REDACTED&STUDY_ID=691f8ca61c6b4dcbb0aeb5f4&SESSION_ID=691faaec855d05685b6c7f44","survey-html-form",22,593734,"0.0-321.0-0.0","n/q672NhZTS656vxxj878tCyr5L548TnC6vP/N/sGFtI+IReltecASoEzMlFgYVIv8EhjAgynsh3CjPvddTsT3aPB4nsKHKqNykX/FjuUE6thV9Xl4JT0e6ZFf+avmqeyguk1Tu6f62BKur6hm82Lc6W/yIf0hKTxlMclBAlHxNObz32oQEcB6/lf0gt6gc2lSjR4Vh3joJPRPkqFl9WJ3v8sVK5WT+p2R3d4RzNn9g2CSTZXyJOOs+i4Yv+/hk9awvmOi1gAsHrXp6IcocACbQ4vPXuoOC7i3odTPFRo/paADXRZ171vKTjRQ2lt+E5gnd3FSSYRbIOIWGqyQshMg==","691f8ca61c6b4dcbb0aeb5f4","691faaec855d05685b6c7f44","index1","<span style='color:red'>Fail,<span style='color:red'>Fail,<span style='color:green'>Lift,<span style='color:green'>Lift,<span style='color:red'>Fail,<span style='color:red'>Fail,<span style='color:red'>Fail,<span style='color:red'>Fail,<span style='color:red'>Fail,<span style='color:green'>Lift,<span style='color:red'>Fail,<span style='color:green'>Lift","<span style='color:red'>Fail,<span style='color:red'>Fail,<span style='color:green'>Lift,<span style='color:green'>Lift,<span style='color:green'>Lift,<span style='color:green'>Lift,<span style='color:red'>Fail,<span style='color:green'>Lift,<span style='color:green'>Lift,<span style='color:green'>Lift,<span style='color:red'>Fail,<span style='color:green'>Lift","<span style='color:red'>Fail,<span style='color:green'>Lift,<span style='color:green'>Lift,<span style='color:red'>Fail,<span style='color:green'>Lift,<span style='color:green'>Lift","0,0,1,1,0,0,0,0,0,1,0,1","0,0,1,1,1,1,0,1,1,1,0,1","0,1,1,0,1,1",10,20,20,"","","","","{""box1"":""6"",""box2"":""6"",""box3"":""70"",""box4"":""70""}","",NA,3,"round3_lift",5,2,3,6,6,70,70,1,1,20,NA,NA,NA,NA,NA,NA,NA,NA,NA,NA,NA,NA,NA,NA,NA,NA,NA,NA,NA,NA,6,6,70,70,1,1,20,NA,NA,"",NA,NA,NA,NA,NA,NA,NA,NA,2025-11-21 00:14:18
"null","https://psyc-201.github.io/xiang2023/exp/index1.html?PROLIFIC_PID=REDACTED&STUDY_ID=691f8ca61c6b4dcbb0aeb5f4&SESSION_ID=691faaec855d05685b6c7f44","html-keyboard-response",23,596748,"0.0-325.0","n/q672NhZTS656vxxj878tCyr5L548TnC6vP/N/sGFtI+IReltecASoEzMlFgYVIv8EhjAgynsh3CjPvddTsT3aPB4nsKHKqNykX/FjuUE6thV9Xl4JT0e6ZFf+avmqeyguk1Tu6f62BKur6hm82Lc6W/yIf0hKTxlMclBAlHxNObz32oQEcB6/lf0gt6gc2lSjR4Vh3joJPRPkqFl9WJ3v8sVK5WT+p2R3d4RzNn9g2CSTZXyJOOs+i4Yv+/hk9awvmOi1gAsHrXp6IcocACbQ4vPXuoOC7i3odTPFRo/paADXRZ171vKTjRQ2lt+E5gnd3FSSYRbIOIWGqyQshMg==","691f8ca61c6b4dcbb0aeb5f4","691faaec855d05685b6c7f44","index1","<span style='color:red'>Fail,<span style='color:red'>Fail,<span style='color:green'>Lift,<span style='color:green'>Lift,<span style='color:red'>Fail,<span style='color:red'>Fail,<span style='color:red'>Fail,<span style='color:red'>Fail,<span style='color:red'>Fail,<span style='color:green'>Lift,<span style='color:red'>Fail,<span style='color:green'>Lift","<span style='color:red'>Fail,<span style='color:red'>Fail,<span style='color:green'>Lift,<span style='color:green'>Lift,<span style='color:green'>Lift,<span style='color:green'>Lift,<span style='color:red'>Fail,<span style='color:green'>Lift,<span style='color:green'>Lift,<span style='color:green'>Lift,<span style='color:red'>Fail,<span style='color:green'>Lift","<span style='color:red'>Fail,<span style='color:green'>Lift,<span style='color:green'>Lift,<span style='color:red'>Fail,<span style='color:green'>Lift,<span style='color:green'>Lift","0,0,1,1,0,0,0,0,0,1,0,1","0,0,1,1,1,1,0,1,1,1,0,1","0,1,1,0,1,1",10,20,20,"","","<p style='font-size:30px'><b> New Contest! </b></p>","null","","",NA,3,"",NA,NA,NA,NA,NA,NA,NA,NA,NA,NA,NA,NA,NA,NA,NA,NA,NA,NA,NA,NA,NA,NA,NA,NA,NA,NA,NA,NA,NA,NA,NA,NA,NA,NA,NA,NA,NA,NA,NA,"",NA,NA,NA,NA,NA,NA,NA,NA,2025-11-21 00:14:18
"6984","https://psyc-201.github.io/xiang2023/exp/index1.html?PROLIFIC_PID=REDACTED&STUDY_ID=691f8ca61c6b4dcbb0aeb5f4&SESSION_ID=691faaec855d05685b6c7f44","survey-html-form",24,603736,"0.0-326.0","n/q672NhZTS656vxxj878tCyr5L548TnC6vP/N/sGFtI+IReltecASoEzMlFgYVIv8EhjAgynsh3CjPvddTsT3aPB4nsKHKqNykX/FjuUE6thV9Xl4JT0e6ZFf+avmqeyguk1Tu6f62BKur6hm82Lc6W/yIf0hKTxlMclBAlHxNObz32oQEcB6/lf0gt6gc2lSjR4Vh3joJPRPkqFl9WJ3v8sVK5WT+p2R3d4RzNn9g2CSTZXyJOOs+i4Yv+/hk9awvmOi1gAsHrXp6IcocACbQ4vPXuoOC7i3odTPFRo/paADXRZ171vKTjRQ2lt+E5gnd3FSSYRbIOIWGqyQshMg==","691f8ca61c6b4dcbb0aeb5f4","691faaec855d05685b6c7f44","index1","<span style='color:red'>Fail,<span style='color:red'>Fail,<span style='color:green'>Lift,<span style='color:green'>Lift,<span style='color:red'>Fail,<span style='color:red'>Fail,<span style='color:red'>Fail,<span style='color:red'>Fail,<span style='color:red'>Fail,<span style='color:green'>Lift,<span style='color:red'>Fail,<span style='color:green'>Lift","<span style='color:red'>Fail,<span style='color:red'>Fail,<span style='color:green'>Lift,<span style='color:green'>Lift,<span style='color:green'>Lift,<span style='color:green'>Lift,<span style='color:red'>Fail,<span style='color:green'>Lift,<span style='color:green'>Lift,<span style='color:green'>Lift,<span style='color:red'>Fail,<span style='color:green'>Lift","<span style='color:red'>Fail,<span style='color:green'>Lift,<span style='color:green'>Lift,<span style='color:red'>Fail,<span style='color:green'>Lift,<span style='color:green'>Lift","0,0,1,1,0,0,0,0,0,1,0,1","0,0,1,1,1,1,0,1,1,1,0,1","0,1,1,0,1,1",10,20,20,"","","","","{""box1"":""4"",""box2"":""4""}","",NA,3,"round1_outcome",1,3,1,4,4,NA,NA,0,0,10,4,4,NA,NA,0,0,10,NA,NA,NA,NA,NA,NA,NA,NA,NA,NA,NA,NA,NA,NA,NA,NA,NA,NA,NA,NA,NA,NA,"",NA,NA,NA,NA,NA,NA,NA,NA,2025-11-21 00:14:18
"9085.799999999814","https://psyc-201.github.io/xiang2023/exp/index1.html?PROLIFIC_PID=REDACTED&STUDY_ID=691f8ca61c6b4dcbb0aeb5f4&SESSION_ID=691faaec855d05685b6c7f44","survey-html-form",25,612826,"0.0-327.0","n/q672NhZTS656vxxj878tCyr5L548TnC6vP/N/sGFtI+IReltecASoEzMlFgYVIv8EhjAgynsh3CjPvddTsT3aPB4nsKHKqNykX/FjuUE6thV9Xl4JT0e6ZFf+avmqeyguk1Tu6f62BKur6hm82Lc6W/yIf0hKTxlMclBAlHxNObz32oQEcB6/lf0gt6gc2lSjR4Vh3joJPRPkqFl9WJ3v8sVK5WT+p2R3d4RzNn9g2CSTZXyJOOs+i4Yv+/hk9awvmOi1gAsHrXp6IcocACbQ4vPXuoOC7i3odTPFRo/paADXRZ171vKTjRQ2lt+E5gnd3FSSYRbIOIWGqyQshMg==","691f8ca61c6b4dcbb0aeb5f4","691faaec855d05685b6c7f44","index1","<span style='color:red'>Fail,<span style='color:red'>Fail,<span style='color:green'>Lift,<span style='color:green'>Lift,<span style='color:red'>Fail,<span style='color:red'>Fail,<span style='color:red'>Fail,<span style='color:red'>Fail,<span style='color:red'>Fail,<span style='color:green'>Lift,<span style='color:red'>Fail,<span style='color:green'>Lift","<span style='color:red'>Fail,<span style='color:red'>Fail,<span style='color:green'>Lift,<span style='color:green'>Lift,<span style='color:green'>Lift,<span style='color:green'>Lift,<span style='color:red'>Fail,<span style='color:green'>Lift,<span style='color:green'>Lift,<span style='color:green'>Lift,<span style='color:red'>Fail,<span style='color:green'>Lift","<span style='color:red'>Fail,<span style='color:green'>Lift,<span style='color:green'>Lift,<span style='color:red'>Fail,<span style='color:green'>Lift,<span style='color:green'>Lift","0,0,1,1,0,0,0,0,0,1,0,1","0,0,1,1,1,1,0,1,1,1,0,1","0,1,1,0,1,1",10,20,20,"","","","","{""box1"":""30"",""box2"":""30""}","",NA,3,"round2_ready",2,3,2,NA,NA,NA,NA,NA,NA,NA,NA,NA,NA,NA,NA,NA,NA,30,30,30,30,NA,NA,NA,NA,NA,NA,NA,NA,NA,NA,NA,NA,NA,NA,NA,NA,NA,NA,"",NA,NA,NA,NA,NA,NA,NA,NA,2025-11-21 00:14:18
"9717.100000000093","https://psyc-201.github.io/xiang2023/exp/index1.html?PROLIFIC_PID=REDACTED&STUDY_ID=691f8ca61c6b4dcbb0aeb5f4&SESSION_ID=691faaec855d05685b6c7f44","survey-html-form",26,622548,"0.0-328.0","n/q672NhZTS656vxxj878tCyr5L548TnC6vP/N/sGFtI+IReltecASoEzMlFgYVIv8EhjAgynsh3CjPvddTsT3aPB4nsKHKqNykX/FjuUE6thV9Xl4JT0e6ZFf+avmqeyguk1Tu6f62BKur6hm82Lc6W/yIf0hKTxlMclBAlHxNObz32oQEcB6/lf0gt6gc2lSjR4Vh3joJPRPkqFl9WJ3v8sVK5WT+p2R3d4RzNn9g2CSTZXyJOOs+i4Yv+/hk9awvmOi1gAsHrXp6IcocACbQ4vPXuoOC7i3odTPFRo/paADXRZ171vKTjRQ2lt+E5gnd3FSSYRbIOIWGqyQshMg==","691f8ca61c6b4dcbb0aeb5f4","691faaec855d05685b6c7f44","index1","<span style='color:red'>Fail,<span style='color:red'>Fail,<span style='color:green'>Lift,<span style='color:green'>Lift,<span style='color:red'>Fail,<span style='color:red'>Fail,<span style='color:red'>Fail,<span style='color:red'>Fail,<span style='color:red'>Fail,<span style='color:green'>Lift,<span style='color:red'>Fail,<span style='color:green'>Lift","<span style='color:red'>Fail,<span style='color:red'>Fail,<span style='color:green'>Lift,<span style='color:green'>Lift,<span style='color:green'>Lift,<span style='color:green'>Lift,<span style='color:red'>Fail,<span style='color:green'>Lift,<span style='color:green'>Lift,<span style='color:green'>Lift,<span style='color:red'>Fail,<span style='color:green'>Lift","<span style='color:red'>Fail,<span style='color:green'>Lift,<span style='color:green'>Lift,<span style='color:red'>Fail,<span style='color:green'>Lift,<span style='color:green'>Lift","0,0,1,1,0,0,0,0,0,1,0,1","0,0,1,1,1,1,0,1,1,1,0,1","0,1,1,0,1,1",10,20,20,"","","","","{""box1"":""4"",""box2"":""5"",""box4"":""65""}","",NA,3,"round2_outcome",3,3,2,4,5,NA,65,0,1,20,NA,NA,NA,NA,NA,NA,NA,NA,NA,NA,NA,4,5,NA,65,0,1,20,NA,NA,NA,NA,NA,NA,NA,NA,NA,NA,NA,"",NA,NA,NA,NA,NA,NA,NA,NA,2025-11-21 00:14:18
"5743.200000000186","https://psyc-201.github.io/xiang2023/exp/index1.html?PROLIFIC_PID=REDACTED&STUDY_ID=691f8ca61c6b4dcbb0aeb5f4&SESSION_ID=691faaec855d05685b6c7f44","survey-html-form",27,628296,"0.0-329.0","n/q672NhZTS656vxxj878tCyr5L548TnC6vP/N/sGFtI+IReltecASoEzMlFgYVIv8EhjAgynsh3CjPvddTsT3aPB4nsKHKqNykX/FjuUE6thV9Xl4JT0e6ZFf+avmqeyguk1Tu6f62BKur6hm82Lc6W/yIf0hKTxlMclBAlHxNObz32oQEcB6/lf0gt6gc2lSjR4Vh3joJPRPkqFl9WJ3v8sVK5WT+p2R3d4RzNn9g2CSTZXyJOOs+i4Yv+/hk9awvmOi1gAsHrXp6IcocACbQ4vPXuoOC7i3odTPFRo/paADXRZ171vKTjRQ2lt+E5gnd3FSSYRbIOIWGqyQshMg==","691f8ca61c6b4dcbb0aeb5f4","691faaec855d05685b6c7f44","index1","<span style='color:red'>Fail,<span style='color:red'>Fail,<span style='color:green'>Lift,<span style='color:green'>Lift,<span style='color:red'>Fail,<span style='color:red'>Fail,<span style='color:red'>Fail,<span style='color:red'>Fail,<span style='color:red'>Fail,<span style='color:green'>Lift,<span style='color:red'>Fail,<span style='color:green'>Lift","<span style='color:red'>Fail,<span style='color:red'>Fail,<span style='color:green'>Lift,<span style='color:green'>Lift,<span style='color:green'>Lift,<span style='color:green'>Lift,<span style='color:red'>Fail,<span style='color:green'>Lift,<span style='color:green'>Lift,<span style='color:green'>Lift,<span style='color:red'>Fail,<span style='color:green'>Lift","<span style='color:red'>Fail,<span style='color:green'>Lift,<span style='color:green'>Lift,<span style='color:red'>Fail,<span style='color:green'>Lift,<span style='color:green'>Lift","0,0,1,1,0,0,0,0,0,1,0,1","0,0,1,1,1,1,0,1,1,1,0,1","0,1,1,0,1,1",10,20,20,"","","","","{""box1"":""100""}","",NA,3,"round3_ready",4,3,3,NA,NA,NA,NA,NA,NA,NA,NA,NA,NA,NA,NA,NA,NA,100,100,NA,NA,NA,NA,NA,NA,NA,NA,NA,100,100,NA,NA,NA,NA,NA,NA,NA,NA,NA,"",NA,NA,NA,NA,NA,NA,NA,NA,2025-11-21 00:14:18
"15588.19999999972","https://psyc-201.github.io/xiang2023/exp/index1.html?PROLIFIC_PID=REDACTED&STUDY_ID=691f8ca61c6b4dcbb0aeb5f4&SESSION_ID=691faaec855d05685b6c7f44","survey-html-form",28,643890,"0.0-331.0-0.0","n/q672NhZTS656vxxj878tCyr5L548TnC6vP/N/sGFtI+IReltecASoEzMlFgYVIv8EhjAgynsh3CjPvddTsT3aPB4nsKHKqNykX/FjuUE6thV9Xl4JT0e6ZFf+avmqeyguk1Tu6f62BKur6hm82Lc6W/yIf0hKTxlMclBAlHxNObz32oQEcB6/lf0gt6gc2lSjR4Vh3joJPRPkqFl9WJ3v8sVK5WT+p2R3d4RzNn9g2CSTZXyJOOs+i4Yv+/hk9awvmOi1gAsHrXp6IcocACbQ4vPXuoOC7i3odTPFRo/paADXRZ171vKTjRQ2lt+E5gnd3FSSYRbIOIWGqyQshMg==","691f8ca61c6b4dcbb0aeb5f4","691faaec855d05685b6c7f44","index1","<span style='color:red'>Fail,<span style='color:red'>Fail,<span style='color:green'>Lift,<span style='color:green'>Lift,<span style='color:red'>Fail,<span style='color:red'>Fail,<span style='color:red'>Fail,<span style='color:red'>Fail,<span style='color:red'>Fail,<span style='color:green'>Lift,<span style='color:red'>Fail,<span style='color:green'>Lift","<span style='color:red'>Fail,<span style='color:red'>Fail,<span style='color:green'>Lift,<span style='color:green'>Lift,<span style='color:green'>Lift,<span style='color:green'>Lift,<span style='color:red'>Fail,<span style='color:green'>Lift,<span style='color:green'>Lift,<span style='color:green'>Lift,<span style='color:red'>Fail,<span style='color:green'>Lift","<span style='color:red'>Fail,<span style='color:green'>Lift,<span style='color:green'>Lift,<span style='color:red'>Fail,<span style='color:green'>Lift,<span style='color:green'>Lift","0,0,1,1,0,0,0,0,0,1,0,1","0,0,1,1,1,1,0,1,1,1,0,1","0,1,1,0,1,1",10,20,20,"","","","","{""box1"":""3"",""box2"":""4"",""box3"":""999"",""box4"":""999""}","",NA,4,"round3_fail",5,3,3,3,4,NA,NA,0,0,20,NA,NA,NA,NA,NA,NA,NA,NA,NA,NA,NA,NA,NA,NA,NA,NA,NA,NA,NA,NA,3,4,NA,NA,0,0,20,1,1,"",NA,NA,NA,NA,NA,NA,NA,NA,2025-11-21 00:14:18
"null","https://psyc-201.github.io/xiang2023/exp/index1.html?PROLIFIC_PID=REDACTED&STUDY_ID=691f8ca61c6b4dcbb0aeb5f4&SESSION_ID=691faaec855d05685b6c7f44","html-keyboard-response",29,646904,"0.0-334.0","n/q672NhZTS656vxxj878tCyr5L548TnC6vP/N/sGFtI+IReltecASoEzMlFgYVIv8EhjAgynsh3CjPvddTsT3aPB4nsKHKqNykX/FjuUE6thV9Xl4JT0e6ZFf+avmqeyguk1Tu6f62BKur6hm82Lc6W/yIf0hKTxlMclBAlHxNObz32oQEcB6/lf0gt6gc2lSjR4Vh3joJPRPkqFl9WJ3v8sVK5WT+p2R3d4RzNn9g2CSTZXyJOOs+i4Yv+/hk9awvmOi1gAsHrXp6IcocACbQ4vPXuoOC7i3odTPFRo/paADXRZ171vKTjRQ2lt+E5gnd3FSSYRbIOIWGqyQshMg==","691f8ca61c6b4dcbb0aeb5f4","691faaec855d05685b6c7f44","index1","<span style='color:red'>Fail,<span style='color:red'>Fail,<span style='color:green'>Lift,<span style='color:green'>Lift,<span style='color:red'>Fail,<span style='color:red'>Fail,<span style='color:red'>Fail,<span style='color:red'>Fail,<span style='color:red'>Fail,<span style='color:green'>Lift,<span style='color:red'>Fail,<span style='color:green'>Lift","<span style='color:red'>Fail,<span style='color:red'>Fail,<span style='color:green'>Lift,<span style='color:green'>Lift,<span style='color:green'>Lift,<span style='color:green'>Lift,<span style='color:red'>Fail,<span style='color:green'>Lift,<span style='color:green'>Lift,<span style='color:green'>Lift,<span style='color:red'>Fail,<span style='color:green'>Lift","<span style='color:red'>Fail,<span style='color:green'>Lift,<span style='color:green'>Lift,<span style='color:red'>Fail,<span style='color:green'>Lift,<span style='color:green'>Lift","0,0,1,1,0,0,0,0,0,1,0,1","0,0,1,1,1,1,0,1,1,1,0,1","0,1,1,0,1,1",10,20,20,"","","<p style='font-size:30px'><b> New Contest! </b></p>","null","","",NA,4,"",NA,NA,NA,NA,NA,NA,NA,NA,NA,NA,NA,NA,NA,NA,NA,NA,NA,NA,NA,NA,NA,NA,NA,NA,NA,NA,NA,NA,NA,NA,NA,NA,NA,NA,NA,NA,NA,NA,NA,"",NA,NA,NA,NA,NA,NA,NA,NA,2025-11-21 00:14:18
"13948.69999999972","https://psyc-201.github.io/xiang2023/exp/index1.html?PROLIFIC_PID=REDACTED&STUDY_ID=691f8ca61c6b4dcbb0aeb5f4&SESSION_ID=691faaec855d05685b6c7f44","survey-html-form",30,660857,"0.0-335.0","n/q672NhZTS656vxxj878tCyr5L548TnC6vP/N/sGFtI+IReltecASoEzMlFgYVIv8EhjAgynsh3CjPvddTsT3aPB4nsKHKqNykX/FjuUE6thV9Xl4JT0e6ZFf+avmqeyguk1Tu6f62BKur6hm82Lc6W/yIf0hKTxlMclBAlHxNObz32oQEcB6/lf0gt6gc2lSjR4Vh3joJPRPkqFl9WJ3v8sVK5WT+p2R3d4RzNn9g2CSTZXyJOOs+i4Yv+/hk9awvmOi1gAsHrXp6IcocACbQ4vPXuoOC7i3odTPFRo/paADXRZ171vKTjRQ2lt+E5gnd3FSSYRbIOIWGqyQshMg==","691f8ca61c6b4dcbb0aeb5f4","691faaec855d05685b6c7f44","index1","<span style='color:red'>Fail,<span style='color:red'>Fail,<span style='color:green'>Lift,<span style='color:green'>Lift,<span style='color:red'>Fail,<span style='color:red'>Fail,<span style='color:red'>Fail,<span style='color:red'>Fail,<span style='color:red'>Fail,<span style='color:green'>Lift,<span style='color:red'>Fail,<span style='color:green'>Lift","<span style='color:red'>Fail,<span style='color:red'>Fail,<span style='color:green'>Lift,<span style='color:green'>Lift,<span style='color:green'>Lift,<span style='color:green'>Lift,<span style='color:red'>Fail,<span style='color:green'>Lift,<span style='color:green'>Lift,<span style='color:green'>Lift,<span style='color:red'>Fail,<span style='color:green'>Lift","<span style='color:red'>Fail,<span style='color:green'>Lift,<span style='color:green'>Lift,<span style='color:red'>Fail,<span style='color:green'>Lift,<span style='color:green'>Lift","0,0,1,1,0,0,0,0,0,1,0,1","0,0,1,1,1,1,0,1,1,1,0,1","0,1,1,0,1,1",10,20,20,"","","","","{""box1"":""3"",""box2"":""6"",""box4"":""60""}","",NA,4,"round1_outcome",1,4,1,3,6,NA,60,0,1,10,3,6,NA,60,0,1,10,NA,NA,NA,NA,NA,NA,NA,NA,NA,NA,NA,NA,NA,NA,NA,NA,NA,NA,NA,NA,NA,NA,"",NA,NA,NA,NA,NA,NA,NA,NA,2025-11-21 00:14:18
"12884","https://psyc-201.github.io/xiang2023/exp/index1.html?PROLIFIC_PID=REDACTED&STUDY_ID=691f8ca61c6b4dcbb0aeb5f4&SESSION_ID=691faaec855d05685b6c7f44","survey-html-form",31,673745,"0.0-336.0","n/q672NhZTS656vxxj878tCyr5L548TnC6vP/N/sGFtI+IReltecASoEzMlFgYVIv8EhjAgynsh3CjPvddTsT3aPB4nsKHKqNykX/FjuUE6thV9Xl4JT0e6ZFf+avmqeyguk1Tu6f62BKur6hm82Lc6W/yIf0hKTxlMclBAlHxNObz32oQEcB6/lf0gt6gc2lSjR4Vh3joJPRPkqFl9WJ3v8sVK5WT+p2R3d4RzNn9g2CSTZXyJOOs+i4Yv+/hk9awvmOi1gAsHrXp6IcocACbQ4vPXuoOC7i3odTPFRo/paADXRZ171vKTjRQ2lt+E5gnd3FSSYRbIOIWGqyQshMg==","691f8ca61c6b4dcbb0aeb5f4","691faaec855d05685b6c7f44","index1","<span style='color:red'>Fail,<span style='color:red'>Fail,<span style='color:green'>Lift,<span style='color:green'>Lift,<span style='color:red'>Fail,<span style='color:red'>Fail,<span style='color:red'>Fail,<span style='color:red'>Fail,<span style='color:red'>Fail,<span style='color:green'>Lift,<span style='color:red'>Fail,<span style='color:green'>Lift","<span style='color:red'>Fail,<span style='color:red'>Fail,<span style='color:green'>Lift,<span style='color:green'>Lift,<span style='color:green'>Lift,<span style='color:green'>Lift,<span style='color:red'>Fail,<span style='color:green'>Lift,<span style='color:green'>Lift,<span style='color:green'>Lift,<span style='color:red'>Fail,<span style='color:green'>Lift","<span style='color:red'>Fail,<span style='color:green'>Lift,<span style='color:green'>Lift,<span style='color:red'>Fail,<span style='color:green'>Lift,<span style='color:green'>Lift","0,0,1,1,0,0,0,0,0,1,0,1","0,0,1,1,1,1,0,1,1,1,0,1","0,1,1,0,1,1",10,20,20,"","","","","{""box1"":""50"",""box2"":""75""}","",NA,4,"round2_ready",2,4,2,NA,NA,NA,NA,NA,NA,NA,NA,NA,NA,NA,NA,NA,NA,50,75,50,75,NA,NA,NA,NA,NA,NA,NA,NA,NA,NA,NA,NA,NA,NA,NA,NA,NA,NA,"",NA,NA,NA,NA,NA,NA,NA,NA,2025-11-21 00:14:18
"20488.69999999972","https://psyc-201.github.io/xiang2023/exp/index1.html?PROLIFIC_PID=REDACTED&STUDY_ID=691f8ca61c6b4dcbb0aeb5f4&SESSION_ID=691faaec855d05685b6c7f44","survey-html-form",32,694239,"0.0-337.0","n/q672NhZTS656vxxj878tCyr5L548TnC6vP/N/sGFtI+IReltecASoEzMlFgYVIv8EhjAgynsh3CjPvddTsT3aPB4nsKHKqNykX/FjuUE6thV9Xl4JT0e6ZFf+avmqeyguk1Tu6f62BKur6hm82Lc6W/yIf0hKTxlMclBAlHxNObz32oQEcB6/lf0gt6gc2lSjR4Vh3joJPRPkqFl9WJ3v8sVK5WT+p2R3d4RzNn9g2CSTZXyJOOs+i4Yv+/hk9awvmOi1gAsHrXp6IcocACbQ4vPXuoOC7i3odTPFRo/paADXRZ171vKTjRQ2lt+E5gnd3FSSYRbIOIWGqyQshMg==","691f8ca61c6b4dcbb0aeb5f4","691faaec855d05685b6c7f44","index1","<span style='color:red'>Fail,<span style='color:red'>Fail,<span style='color:green'>Lift,<span style='color:green'>Lift,<span style='color:red'>Fail,<span style='color:red'>Fail,<span style='color:red'>Fail,<span style='color:red'>Fail,<span style='color:red'>Fail,<span style='color:green'>Lift,<span style='color:red'>Fail,<span style='color:green'>Lift","<span style='color:red'>Fail,<span style='color:red'>Fail,<span style='color:green'>Lift,<span style='color:green'>Lift,<span style='color:green'>Lift,<span style='color:green'>Lift,<span style='color:red'>Fail,<span style='color:green'>Lift,<span style='color:green'>Lift,<span style='color:green'>Lift,<span style='color:red'>Fail,<span style='color:green'>Lift","<span style='color:red'>Fail,<span style='color:green'>Lift,<span style='color:green'>Lift,<span style='color:red'>Fail,<span style='color:green'>Lift,<span style='color:green'>Lift","0,0,1,1,0,0,0,0,0,1,0,1","0,0,1,1,1,1,0,1,1,1,0,1","0,1,1,0,1,1",10,20,20,"","","","","{""box1"":""5"",""box2"":""7"",""box3"":""85"",""box4"":""60""}","",NA,4,"round2_outcome",3,4,2,5,7,85,60,1,1,20,NA,NA,NA,NA,NA,NA,NA,NA,NA,NA,NA,5,7,85,60,1,1,20,NA,NA,NA,NA,NA,NA,NA,NA,NA,NA,NA,"",NA,NA,NA,NA,NA,NA,NA,NA,2025-11-21 00:14:18
"42502.299999999814","https://psyc-201.github.io/xiang2023/exp/index1.html?PROLIFIC_PID=REDACTED&STUDY_ID=691f8ca61c6b4dcbb0aeb5f4&SESSION_ID=691faaec855d05685b6c7f44","survey-html-form",33,736747,"0.0-338.0","n/q672NhZTS656vxxj878tCyr5L548TnC6vP/N/sGFtI+IReltecASoEzMlFgYVIv8EhjAgynsh3CjPvddTsT3aPB4nsKHKqNykX/FjuUE6thV9Xl4JT0e6ZFf+avmqeyguk1Tu6f62BKur6hm82Lc6W/yIf0hKTxlMclBAlHxNObz32oQEcB6/lf0gt6gc2lSjR4Vh3joJPRPkqFl9WJ3v8sVK5WT+p2R3d4RzNn9g2CSTZXyJOOs+i4Yv+/hk9awvmOi1gAsHrXp6IcocACbQ4vPXuoOC7i3odTPFRo/paADXRZ171vKTjRQ2lt+E5gnd3FSSYRbIOIWGqyQshMg==","691f8ca61c6b4dcbb0aeb5f4","691faaec855d05685b6c7f44","index1","<span style='color:red'>Fail,<span style='color:red'>Fail,<span style='color:green'>Lift,<span style='color:green'>Lift,<span style='color:red'>Fail,<span style='color:red'>Fail,<span style='color:red'>Fail,<span style='color:red'>Fail,<span style='color:red'>Fail,<span style='color:green'>Lift,<span style='color:red'>Fail,<span style='color:green'>Lift","<span style='color:red'>Fail,<span style='color:red'>Fail,<span style='color:green'>Lift,<span style='color:green'>Lift,<span style='color:green'>Lift,<span style='color:green'>Lift,<span style='color:red'>Fail,<span style='color:green'>Lift,<span style='color:green'>Lift,<span style='color:green'>Lift,<span style='color:red'>Fail,<span style='color:green'>Lift","<span style='color:red'>Fail,<span style='color:green'>Lift,<span style='color:green'>Lift,<span style='color:red'>Fail,<span style='color:green'>Lift,<span style='color:green'>Lift","0,0,1,1,0,0,0,0,0,1,0,1","0,0,1,1,1,1,0,1,1,1,0,1","0,1,1,0,1,1",10,20,20,"","","","","{""box1"":""100""}","",NA,4,"round3_ready",4,4,3,NA,NA,NA,NA,NA,NA,NA,NA,NA,NA,NA,NA,NA,NA,100,100,NA,NA,NA,NA,NA,NA,NA,NA,NA,100,100,NA,NA,NA,NA,NA,NA,NA,NA,NA,"",NA,NA,NA,NA,NA,NA,NA,NA,2025-11-21 00:14:18
"38783.39999999991","https://psyc-201.github.io/xiang2023/exp/index1.html?PROLIFIC_PID=REDACTED&STUDY_ID=691f8ca61c6b4dcbb0aeb5f4&SESSION_ID=691faaec855d05685b6c7f44","survey-html-form",34,775535,"0.0-339.0-0.0","n/q672NhZTS656vxxj878tCyr5L548TnC6vP/N/sGFtI+IReltecASoEzMlFgYVIv8EhjAgynsh3CjPvddTsT3aPB4nsKHKqNykX/FjuUE6thV9Xl4JT0e6ZFf+avmqeyguk1Tu6f62BKur6hm82Lc6W/yIf0hKTxlMclBAlHxNObz32oQEcB6/lf0gt6gc2lSjR4Vh3joJPRPkqFl9WJ3v8sVK5WT+p2R3d4RzNn9g2CSTZXyJOOs+i4Yv+/hk9awvmOi1gAsHrXp6IcocACbQ4vPXuoOC7i3odTPFRo/paADXRZ171vKTjRQ2lt+E5gnd3FSSYRbIOIWGqyQshMg==","691f8ca61c6b4dcbb0aeb5f4","691faaec855d05685b6c7f44","index1","<span style='color:red'>Fail,<span style='color:red'>Fail,<span style='color:green'>Lift,<span style='color:green'>Lift,<span style='color:red'>Fail,<span style='color:red'>Fail,<span style='color:red'>Fail,<span style='color:red'>Fail,<span style='color:red'>Fail,<span style='color:green'>Lift,<span style='color:red'>Fail,<span style='color:green'>Lift","<span style='color:red'>Fail,<span style='color:red'>Fail,<span style='color:green'>Lift,<span style='color:green'>Lift,<span style='color:green'>Lift,<span style='color:green'>Lift,<span style='color:red'>Fail,<span style='color:green'>Lift,<span style='color:green'>Lift,<span style='color:green'>Lift,<span style='color:red'>Fail,<span style='color:green'>Lift","<span style='color:red'>Fail,<span style='color:green'>Lift,<span style='color:green'>Lift,<span style='color:red'>Fail,<span style='color:green'>Lift,<span style='color:green'>Lift","0,0,1,1,0,0,0,0,0,1,0,1","0,0,1,1,1,1,0,1,1,1,0,1","0,1,1,0,1,1",10,20,20,"","","","","{""box1"":""4"",""box2"":""6"",""box3"":""80"",""box4"":""50""}","",NA,5,"round3_lift",5,4,3,4,6,80,50,1,1,20,NA,NA,NA,NA,NA,NA,NA,NA,NA,NA,NA,NA,NA,NA,NA,NA,NA,NA,NA,NA,4,6,80,50,1,1,20,NA,NA,"",NA,NA,NA,NA,NA,NA,NA,NA,2025-11-21 00:14:18
"null","https://psyc-201.github.io/xiang2023/exp/index1.html?PROLIFIC_PID=REDACTED&STUDY_ID=691f8ca61c6b4dcbb0aeb5f4&SESSION_ID=691faaec855d05685b6c7f44","html-keyboard-response",35,778541,"0.0-343.0","n/q672NhZTS656vxxj878tCyr5L548TnC6vP/N/sGFtI+IReltecASoEzMlFgYVIv8EhjAgynsh3CjPvddTsT3aPB4nsKHKqNykX/FjuUE6thV9Xl4JT0e6ZFf+avmqeyguk1Tu6f62BKur6hm82Lc6W/yIf0hKTxlMclBAlHxNObz32oQEcB6/lf0gt6gc2lSjR4Vh3joJPRPkqFl9WJ3v8sVK5WT+p2R3d4RzNn9g2CSTZXyJOOs+i4Yv+/hk9awvmOi1gAsHrXp6IcocACbQ4vPXuoOC7i3odTPFRo/paADXRZ171vKTjRQ2lt+E5gnd3FSSYRbIOIWGqyQshMg==","691f8ca61c6b4dcbb0aeb5f4","691faaec855d05685b6c7f44","index1","<span style='color:red'>Fail,<span style='color:red'>Fail,<span style='color:green'>Lift,<span style='color:green'>Lift,<span style='color:red'>Fail,<span style='color:red'>Fail,<span style='color:red'>Fail,<span style='color:red'>Fail,<span style='color:red'>Fail,<span style='color:green'>Lift,<span style='color:red'>Fail,<span style='color:green'>Lift","<span style='color:red'>Fail,<span style='color:red'>Fail,<span style='color:green'>Lift,<span style='color:green'>Lift,<span style='color:green'>Lift,<span style='color:green'>Lift,<span style='color:red'>Fail,<span style='color:green'>Lift,<span style='color:green'>Lift,<span style='color:green'>Lift,<span style='color:red'>Fail,<span style='color:green'>Lift","<span style='color:red'>Fail,<span style='color:green'>Lift,<span style='color:green'>Lift,<span style='color:red'>Fail,<span style='color:green'>Lift,<span style='color:green'>Lift","0,0,1,1,0,0,0,0,0,1,0,1","0,0,1,1,1,1,0,1,1,1,0,1","0,1,1,0,1,1",10,20,20,"","","<p style='font-size:30px'><b> New Contest! </b></p>","null","","",NA,5,"",NA,NA,NA,NA,NA,NA,NA,NA,NA,NA,NA,NA,NA,NA,NA,NA,NA,NA,NA,NA,NA,NA,NA,NA,NA,NA,NA,NA,NA,NA,NA,NA,NA,NA,NA,NA,NA,NA,NA,"",NA,NA,NA,NA,NA,NA,NA,NA,2025-11-21 00:14:18
"8477.799999999814","https://psyc-201.github.io/xiang2023/exp/index1.html?PROLIFIC_PID=REDACTED&STUDY_ID=691f8ca61c6b4dcbb0aeb5f4&SESSION_ID=691faaec855d05685b6c7f44","survey-html-form",36,787022,"0.0-344.0","n/q672NhZTS656vxxj878tCyr5L548TnC6vP/N/sGFtI+IReltecASoEzMlFgYVIv8EhjAgynsh3CjPvddTsT3aPB4nsKHKqNykX/FjuUE6thV9Xl4JT0e6ZFf+avmqeyguk1Tu6f62BKur6hm82Lc6W/yIf0hKTxlMclBAlHxNObz32oQEcB6/lf0gt6gc2lSjR4Vh3joJPRPkqFl9WJ3v8sVK5WT+p2R3d4RzNn9g2CSTZXyJOOs+i4Yv+/hk9awvmOi1gAsHrXp6IcocACbQ4vPXuoOC7i3odTPFRo/paADXRZ171vKTjRQ2lt+E5gnd3FSSYRbIOIWGqyQshMg==","691f8ca61c6b4dcbb0aeb5f4","691faaec855d05685b6c7f44","index1","<span style='color:red'>Fail,<span style='color:red'>Fail,<span style='color:green'>Lift,<span style='color:green'>Lift,<span style='color:red'>Fail,<span style='color:red'>Fail,<span style='color:red'>Fail,<span style='color:red'>Fail,<span style='color:red'>Fail,<span style='color:green'>Lift,<span style='color:red'>Fail,<span style='color:green'>Lift","<span style='color:red'>Fail,<span style='color:red'>Fail,<span style='color:green'>Lift,<span style='color:green'>Lift,<span style='color:green'>Lift,<span style='color:green'>Lift,<span style='color:red'>Fail,<span style='color:green'>Lift,<span style='color:green'>Lift,<span style='color:green'>Lift,<span style='color:red'>Fail,<span style='color:green'>Lift","<span style='color:red'>Fail,<span style='color:green'>Lift,<span style='color:green'>Lift,<span style='color:red'>Fail,<span style='color:green'>Lift,<span style='color:green'>Lift","0,0,1,1,0,0,0,0,0,1,0,1","0,0,1,1,1,1,0,1,1,1,0,1","0,1,1,0,1,1",10,20,20,"","","","","{""box1"":""5"",""box2"":""2"",""box4"":""50""}","",NA,5,"round1_outcome",1,5,1,5,2,NA,50,0,1,10,5,2,NA,50,0,1,10,NA,NA,NA,NA,NA,NA,NA,NA,NA,NA,NA,NA,NA,NA,NA,NA,NA,NA,NA,NA,NA,NA,"",NA,NA,NA,NA,NA,NA,NA,NA,2025-11-21 00:14:18
"9189.30000000028","https://psyc-201.github.io/xiang2023/exp/index1.html?PROLIFIC_PID=REDACTED&STUDY_ID=691f8ca61c6b4dcbb0aeb5f4&SESSION_ID=691faaec855d05685b6c7f44","survey-html-form",37,796217,"0.0-345.0","n/q672NhZTS656vxxj878tCyr5L548TnC6vP/N/sGFtI+IReltecASoEzMlFgYVIv8EhjAgynsh3CjPvddTsT3aPB4nsKHKqNykX/FjuUE6thV9Xl4JT0e6ZFf+avmqeyguk1Tu6f62BKur6hm82Lc6W/yIf0hKTxlMclBAlHxNObz32oQEcB6/lf0gt6gc2lSjR4Vh3joJPRPkqFl9WJ3v8sVK5WT+p2R3d4RzNn9g2CSTZXyJOOs+i4Yv+/hk9awvmOi1gAsHrXp6IcocACbQ4vPXuoOC7i3odTPFRo/paADXRZ171vKTjRQ2lt+E5gnd3FSSYRbIOIWGqyQshMg==","691f8ca61c6b4dcbb0aeb5f4","691faaec855d05685b6c7f44","index1","<span style='color:red'>Fail,<span style='color:red'>Fail,<span style='color:green'>Lift,<span style='color:green'>Lift,<span style='color:red'>Fail,<span style='color:red'>Fail,<span style='color:red'>Fail,<span style='color:red'>Fail,<span style='color:red'>Fail,<span style='color:green'>Lift,<span style='color:red'>Fail,<span style='color:green'>Lift","<span style='color:red'>Fail,<span style='color:red'>Fail,<span style='color:green'>Lift,<span style='color:green'>Lift,<span style='color:green'>Lift,<span style='color:green'>Lift,<span style='color:red'>Fail,<span style='color:green'>Lift,<span style='color:green'>Lift,<span style='color:green'>Lift,<span style='color:red'>Fail,<span style='color:green'>Lift","<span style='color:red'>Fail,<span style='color:green'>Lift,<span style='color:green'>Lift,<span style='color:red'>Fail,<span style='color:green'>Lift,<span style='color:green'>Lift","0,0,1,1,0,0,0,0,0,1,0,1","0,0,1,1,1,1,0,1,1,1,0,1","0,1,1,0,1,1",10,20,20,"","","","","{""box1"":""50"",""box2"":""80""}","",NA,5,"round2_ready",2,5,2,NA,NA,NA,NA,NA,NA,NA,NA,NA,NA,NA,NA,NA,NA,50,80,50,80,NA,NA,NA,NA,NA,NA,NA,NA,NA,NA,NA,NA,NA,NA,NA,NA,NA,NA,"",NA,NA,NA,NA,NA,NA,NA,NA,2025-11-21 00:14:18
"8629.700000000186","https://psyc-201.github.io/xiang2023/exp/index1.html?PROLIFIC_PID=REDACTED&STUDY_ID=691f8ca61c6b4dcbb0aeb5f4&SESSION_ID=691faaec855d05685b6c7f44","survey-html-form",38,804853,"0.0-346.0","n/q672NhZTS656vxxj878tCyr5L548TnC6vP/N/sGFtI+IReltecASoEzMlFgYVIv8EhjAgynsh3CjPvddTsT3aPB4nsKHKqNykX/FjuUE6thV9Xl4JT0e6ZFf+avmqeyguk1Tu6f62BKur6hm82Lc6W/yIf0hKTxlMclBAlHxNObz32oQEcB6/lf0gt6gc2lSjR4Vh3joJPRPkqFl9WJ3v8sVK5WT+p2R3d4RzNn9g2CSTZXyJOOs+i4Yv+/hk9awvmOi1gAsHrXp6IcocACbQ4vPXuoOC7i3odTPFRo/paADXRZ171vKTjRQ2lt+E5gnd3FSSYRbIOIWGqyQshMg==","691f8ca61c6b4dcbb0aeb5f4","691faaec855d05685b6c7f44","index1","<span style='color:red'>Fail,<span style='color:red'>Fail,<span style='color:green'>Lift,<span style='color:green'>Lift,<span style='color:red'>Fail,<span style='color:red'>Fail,<span style='color:red'>Fail,<span style='color:red'>Fail,<span style='color:red'>Fail,<span style='color:green'>Lift,<span style='color:red'>Fail,<span style='color:green'>Lift","<span style='color:red'>Fail,<span style='color:red'>Fail,<span style='color:green'>Lift,<span style='color:green'>Lift,<span style='color:green'>Lift,<span style='color:green'>Lift,<span style='color:red'>Fail,<span style='color:green'>Lift,<span style='color:green'>Lift,<span style='color:green'>Lift,<span style='color:red'>Fail,<span style='color:green'>Lift","<span style='color:red'>Fail,<span style='color:green'>Lift,<span style='color:green'>Lift,<span style='color:red'>Fail,<span style='color:green'>Lift,<span style='color:green'>Lift","0,0,1,1,0,0,0,0,0,1,0,1","0,0,1,1,1,1,0,1,1,1,0,1","0,1,1,0,1,1",10,20,20,"","","","","{""box1"":""2"",""box2"":""7"",""box4"":""70""}","",NA,5,"round2_outcome",3,5,2,2,7,NA,70,0,1,20,NA,NA,NA,NA,NA,NA,NA,NA,NA,NA,NA,2,7,NA,70,0,1,20,NA,NA,NA,NA,NA,NA,NA,NA,NA,NA,NA,"",NA,NA,NA,NA,NA,NA,NA,NA,2025-11-21 00:14:18
"4267","https://psyc-201.github.io/xiang2023/exp/index1.html?PROLIFIC_PID=REDACTED&STUDY_ID=691f8ca61c6b4dcbb0aeb5f4&SESSION_ID=691faaec855d05685b6c7f44","survey-html-form",39,809124,"0.0-347.0","n/q672NhZTS656vxxj878tCyr5L548TnC6vP/N/sGFtI+IReltecASoEzMlFgYVIv8EhjAgynsh3CjPvddTsT3aPB4nsKHKqNykX/FjuUE6thV9Xl4JT0e6ZFf+avmqeyguk1Tu6f62BKur6hm82Lc6W/yIf0hKTxlMclBAlHxNObz32oQEcB6/lf0gt6gc2lSjR4Vh3joJPRPkqFl9WJ3v8sVK5WT+p2R3d4RzNn9g2CSTZXyJOOs+i4Yv+/hk9awvmOi1gAsHrXp6IcocACbQ4vPXuoOC7i3odTPFRo/paADXRZ171vKTjRQ2lt+E5gnd3FSSYRbIOIWGqyQshMg==","691f8ca61c6b4dcbb0aeb5f4","691faaec855d05685b6c7f44","index1","<span style='color:red'>Fail,<span style='color:red'>Fail,<span style='color:green'>Lift,<span style='color:green'>Lift,<span style='color:red'>Fail,<span style='color:red'>Fail,<span style='color:red'>Fail,<span style='color:red'>Fail,<span style='color:red'>Fail,<span style='color:green'>Lift,<span style='color:red'>Fail,<span style='color:green'>Lift","<span style='color:red'>Fail,<span style='color:red'>Fail,<span style='color:green'>Lift,<span style='color:green'>Lift,<span style='color:green'>Lift,<span style='color:green'>Lift,<span style='color:red'>Fail,<span style='color:green'>Lift,<span style='color:green'>Lift,<span style='color:green'>Lift,<span style='color:red'>Fail,<span style='color:green'>Lift","<span style='color:red'>Fail,<span style='color:green'>Lift,<span style='color:green'>Lift,<span style='color:red'>Fail,<span style='color:green'>Lift,<span style='color:green'>Lift","0,0,1,1,0,0,0,0,0,1,0,1","0,0,1,1,1,1,0,1,1,1,0,1","0,1,1,0,1,1",10,20,20,"","","","","{""box1"":""100""}","",NA,5,"round3_ready",4,5,3,NA,NA,NA,NA,NA,NA,NA,NA,NA,NA,NA,NA,NA,NA,100,100,NA,NA,NA,NA,NA,NA,NA,NA,NA,100,100,NA,NA,NA,NA,NA,NA,NA,NA,NA,"",NA,NA,NA,NA,NA,NA,NA,NA,2025-11-21 00:14:18
"10636.799999999814","https://psyc-201.github.io/xiang2023/exp/index1.html?PROLIFIC_PID=REDACTED&STUDY_ID=691f8ca61c6b4dcbb0aeb5f4&SESSION_ID=691faaec855d05685b6c7f44","survey-html-form",40,819767,"0.0-348.0-0.0","n/q672NhZTS656vxxj878tCyr5L548TnC6vP/N/sGFtI+IReltecASoEzMlFgYVIv8EhjAgynsh3CjPvddTsT3aPB4nsKHKqNykX/FjuUE6thV9Xl4JT0e6ZFf+avmqeyguk1Tu6f62BKur6hm82Lc6W/yIf0hKTxlMclBAlHxNObz32oQEcB6/lf0gt6gc2lSjR4Vh3joJPRPkqFl9WJ3v8sVK5WT+p2R3d4RzNn9g2CSTZXyJOOs+i4Yv+/hk9awvmOi1gAsHrXp6IcocACbQ4vPXuoOC7i3odTPFRo/paADXRZ171vKTjRQ2lt+E5gnd3FSSYRbIOIWGqyQshMg==","691f8ca61c6b4dcbb0aeb5f4","691faaec855d05685b6c7f44","index1","<span style='color:red'>Fail,<span style='color:red'>Fail,<span style='color:green'>Lift,<span style='color:green'>Lift,<span style='color:red'>Fail,<span style='color:red'>Fail,<span style='color:red'>Fail,<span style='color:red'>Fail,<span style='color:red'>Fail,<span style='color:green'>Lift,<span style='color:red'>Fail,<span style='color:green'>Lift","<span style='color:red'>Fail,<span style='color:red'>Fail,<span style='color:green'>Lift,<span style='color:green'>Lift,<span style='color:green'>Lift,<span style='color:green'>Lift,<span style='color:red'>Fail,<span style='color:green'>Lift,<span style='color:green'>Lift,<span style='color:green'>Lift,<span style='color:red'>Fail,<span style='color:green'>Lift","<span style='color:red'>Fail,<span style='color:green'>Lift,<span style='color:green'>Lift,<span style='color:red'>Fail,<span style='color:green'>Lift,<span style='color:green'>Lift","0,0,1,1,0,0,0,0,0,1,0,1","0,0,1,1,1,1,0,1,1,1,0,1","0,1,1,0,1,1",10,20,20,"","","","","{""box1"":""3"",""box2"":""6"",""box3"":""85"",""box4"":""55""}","",NA,6,"round3_lift",5,5,3,3,6,85,55,1,1,20,NA,NA,NA,NA,NA,NA,NA,NA,NA,NA,NA,NA,NA,NA,NA,NA,NA,NA,NA,NA,3,6,85,55,1,1,20,NA,NA,"",NA,NA,NA,NA,NA,NA,NA,NA,2025-11-21 00:14:18
"null","https://psyc-201.github.io/xiang2023/exp/index1.html?PROLIFIC_PID=REDACTED&STUDY_ID=691f8ca61c6b4dcbb0aeb5f4&SESSION_ID=691faaec855d05685b6c7f44","html-keyboard-response",41,822784,"0.0-352.0","n/q672NhZTS656vxxj878tCyr5L548TnC6vP/N/sGFtI+IReltecASoEzMlFgYVIv8EhjAgynsh3CjPvddTsT3aPB4nsKHKqNykX/FjuUE6thV9Xl4JT0e6ZFf+avmqeyguk1Tu6f62BKur6hm82Lc6W/yIf0hKTxlMclBAlHxNObz32oQEcB6/lf0gt6gc2lSjR4Vh3joJPRPkqFl9WJ3v8sVK5WT+p2R3d4RzNn9g2CSTZXyJOOs+i4Yv+/hk9awvmOi1gAsHrXp6IcocACbQ4vPXuoOC7i3odTPFRo/paADXRZ171vKTjRQ2lt+E5gnd3FSSYRbIOIWGqyQshMg==","691f8ca61c6b4dcbb0aeb5f4","691faaec855d05685b6c7f44","index1","<span style='color:red'>Fail,<span style='color:red'>Fail,<span style='color:green'>Lift,<span style='color:green'>Lift,<span style='color:red'>Fail,<span style='color:red'>Fail,<span style='color:red'>Fail,<span style='color:red'>Fail,<span style='color:red'>Fail,<span style='color:green'>Lift,<span style='color:red'>Fail,<span style='color:green'>Lift","<span style='color:red'>Fail,<span style='color:red'>Fail,<span style='color:green'>Lift,<span style='color:green'>Lift,<span style='color:green'>Lift,<span style='color:green'>Lift,<span style='color:red'>Fail,<span style='color:green'>Lift,<span style='color:green'>Lift,<span style='color:green'>Lift,<span style='color:red'>Fail,<span style='color:green'>Lift","<span style='color:red'>Fail,<span style='color:green'>Lift,<span style='color:green'>Lift,<span style='color:red'>Fail,<span style='color:green'>Lift,<span style='color:green'>Lift","0,0,1,1,0,0,0,0,0,1,0,1","0,0,1,1,1,1,0,1,1,1,0,1","0,1,1,0,1,1",10,20,20,"","","<p style='font-size:30px'><b> New Contest! </b></p>","null","","",NA,6,"",NA,NA,NA,NA,NA,NA,NA,NA,NA,NA,NA,NA,NA,NA,NA,NA,NA,NA,NA,NA,NA,NA,NA,NA,NA,NA,NA,NA,NA,NA,NA,NA,NA,NA,NA,NA,NA,NA,NA,"",NA,NA,NA,NA,NA,NA,NA,NA,2025-11-21 00:14:18
"5014.600000000093","https://psyc-201.github.io/xiang2023/exp/index1.html?PROLIFIC_PID=REDACTED&STUDY_ID=691f8ca61c6b4dcbb0aeb5f4&SESSION_ID=691faaec855d05685b6c7f44","survey-html-form",42,827803,"0.0-353.0","n/q672NhZTS656vxxj878tCyr5L548TnC6vP/N/sGFtI+IReltecASoEzMlFgYVIv8EhjAgynsh3CjPvddTsT3aPB4nsKHKqNykX/FjuUE6thV9Xl4JT0e6ZFf+avmqeyguk1Tu6f62BKur6hm82Lc6W/yIf0hKTxlMclBAlHxNObz32oQEcB6/lf0gt6gc2lSjR4Vh3joJPRPkqFl9WJ3v8sVK5WT+p2R3d4RzNn9g2CSTZXyJOOs+i4Yv+/hk9awvmOi1gAsHrXp6IcocACbQ4vPXuoOC7i3odTPFRo/paADXRZ171vKTjRQ2lt+E5gnd3FSSYRbIOIWGqyQshMg==","691f8ca61c6b4dcbb0aeb5f4","691faaec855d05685b6c7f44","index1","<span style='color:red'>Fail,<span style='color:red'>Fail,<span style='color:green'>Lift,<span style='color:green'>Lift,<span style='color:red'>Fail,<span style='color:red'>Fail,<span style='color:red'>Fail,<span style='color:red'>Fail,<span style='color:red'>Fail,<span style='color:green'>Lift,<span style='color:red'>Fail,<span style='color:green'>Lift","<span style='color:red'>Fail,<span style='color:red'>Fail,<span style='color:green'>Lift,<span style='color:green'>Lift,<span style='color:green'>Lift,<span style='color:green'>Lift,<span style='color:red'>Fail,<span style='color:green'>Lift,<span style='color:green'>Lift,<span style='color:green'>Lift,<span style='color:red'>Fail,<span style='color:green'>Lift","<span style='color:red'>Fail,<span style='color:green'>Lift,<span style='color:green'>Lift,<span style='color:red'>Fail,<span style='color:green'>Lift,<span style='color:green'>Lift","0,0,1,1,0,0,0,0,0,1,0,1","0,0,1,1,1,1,0,1,1,1,0,1","0,1,1,0,1,1",10,20,20,"","","","","{""box1"":""2"",""box2"":""2""}","",NA,6,"round1_outcome",1,6,1,2,2,NA,NA,0,0,10,2,2,NA,NA,0,0,10,NA,NA,NA,NA,NA,NA,NA,NA,NA,NA,NA,NA,NA,NA,NA,NA,NA,NA,NA,NA,NA,NA,"",NA,NA,NA,NA,NA,NA,NA,NA,2025-11-21 00:14:18
"5838.899999999907","https://psyc-201.github.io/xiang2023/exp/index1.html?PROLIFIC_PID=REDACTED&STUDY_ID=691f8ca61c6b4dcbb0aeb5f4&SESSION_ID=691faaec855d05685b6c7f44","survey-html-form",43,833646,"0.0-354.0","n/q672NhZTS656vxxj878tCyr5L548TnC6vP/N/sGFtI+IReltecASoEzMlFgYVIv8EhjAgynsh3CjPvddTsT3aPB4nsKHKqNykX/FjuUE6thV9Xl4JT0e6ZFf+avmqeyguk1Tu6f62BKur6hm82Lc6W/yIf0hKTxlMclBAlHxNObz32oQEcB6/lf0gt6gc2lSjR4Vh3joJPRPkqFl9WJ3v8sVK5WT+p2R3d4RzNn9g2CSTZXyJOOs+i4Yv+/hk9awvmOi1gAsHrXp6IcocACbQ4vPXuoOC7i3odTPFRo/paADXRZ171vKTjRQ2lt+E5gnd3FSSYRbIOIWGqyQshMg==","691f8ca61c6b4dcbb0aeb5f4","691faaec855d05685b6c7f44","index1","<span style='color:red'>Fail,<span style='color:red'>Fail,<span style='color:green'>Lift,<span style='color:green'>Lift,<span style='color:red'>Fail,<span style='color:red'>Fail,<span style='color:red'>Fail,<span style='color:red'>Fail,<span style='color:red'>Fail,<span style='color:green'>Lift,<span style='color:red'>Fail,<span style='color:green'>Lift","<span style='color:red'>Fail,<span style='color:red'>Fail,<span style='color:green'>Lift,<span style='color:green'>Lift,<span style='color:green'>Lift,<span style='color:green'>Lift,<span style='color:red'>Fail,<span style='color:green'>Lift,<span style='color:green'>Lift,<span style='color:green'>Lift,<span style='color:red'>Fail,<span style='color:green'>Lift","<span style='color:red'>Fail,<span style='color:green'>Lift,<span style='color:green'>Lift,<span style='color:red'>Fail,<span style='color:green'>Lift,<span style='color:green'>Lift","0,0,1,1,0,0,0,0,0,1,0,1","0,0,1,1,1,1,0,1,1,1,0,1","0,1,1,0,1,1",10,20,20,"","","","","{""box1"":""30"",""box2"":""30""}","",NA,6,"round2_ready",2,6,2,NA,NA,NA,NA,NA,NA,NA,NA,NA,NA,NA,NA,NA,NA,30,30,30,30,NA,NA,NA,NA,NA,NA,NA,NA,NA,NA,NA,NA,NA,NA,NA,NA,NA,NA,"",NA,NA,NA,NA,NA,NA,NA,NA,2025-11-21 00:14:18
"8233.899999999907","https://psyc-201.github.io/xiang2023/exp/index1.html?PROLIFIC_PID=REDACTED&STUDY_ID=691f8ca61c6b4dcbb0aeb5f4&SESSION_ID=691faaec855d05685b6c7f44","survey-html-form",44,841885,"0.0-355.0","n/q672NhZTS656vxxj878tCyr5L548TnC6vP/N/sGFtI+IReltecASoEzMlFgYVIv8EhjAgynsh3CjPvddTsT3aPB4nsKHKqNykX/FjuUE6thV9Xl4JT0e6ZFf+avmqeyguk1Tu6f62BKur6hm82Lc6W/yIf0hKTxlMclBAlHxNObz32oQEcB6/lf0gt6gc2lSjR4Vh3joJPRPkqFl9WJ3v8sVK5WT+p2R3d4RzNn9g2CSTZXyJOOs+i4Yv+/hk9awvmOi1gAsHrXp6IcocACbQ4vPXuoOC7i3odTPFRo/paADXRZ171vKTjRQ2lt+E5gnd3FSSYRbIOIWGqyQshMg==","691f8ca61c6b4dcbb0aeb5f4","691faaec855d05685b6c7f44","index1","<span style='color:red'>Fail,<span style='color:red'>Fail,<span style='color:green'>Lift,<span style='color:green'>Lift,<span style='color:red'>Fail,<span style='color:red'>Fail,<span style='color:red'>Fail,<span style='color:red'>Fail,<span style='color:red'>Fail,<span style='color:green'>Lift,<span style='color:red'>Fail,<span style='color:green'>Lift","<span style='color:red'>Fail,<span style='color:red'>Fail,<span style='color:green'>Lift,<span style='color:green'>Lift,<span style='color:green'>Lift,<span style='color:green'>Lift,<span style='color:red'>Fail,<span style='color:green'>Lift,<span style='color:green'>Lift,<span style='color:green'>Lift,<span style='color:red'>Fail,<span style='color:green'>Lift","<span style='color:red'>Fail,<span style='color:green'>Lift,<span style='color:green'>Lift,<span style='color:red'>Fail,<span style='color:green'>Lift,<span style='color:green'>Lift","0,0,1,1,0,0,0,0,0,1,0,1","0,0,1,1,1,1,0,1,1,1,0,1","0,1,1,0,1,1",10,20,20,"","","","","{""box1"":""2"",""box2"":""2""}","",NA,6,"round2_outcome",3,6,2,2,2,NA,NA,0,0,20,NA,NA,NA,NA,NA,NA,NA,NA,NA,NA,NA,2,2,NA,NA,0,0,20,NA,NA,NA,NA,NA,NA,NA,NA,NA,NA,NA,"",NA,NA,NA,NA,NA,NA,NA,NA,2025-11-21 00:14:18
"5524.899999999907","https://psyc-201.github.io/xiang2023/exp/index1.html?PROLIFIC_PID=REDACTED&STUDY_ID=691f8ca61c6b4dcbb0aeb5f4&SESSION_ID=691faaec855d05685b6c7f44","survey-html-form",45,847415,"0.0-356.0","n/q672NhZTS656vxxj878tCyr5L548TnC6vP/N/sGFtI+IReltecASoEzMlFgYVIv8EhjAgynsh3CjPvddTsT3aPB4nsKHKqNykX/FjuUE6thV9Xl4JT0e6ZFf+avmqeyguk1Tu6f62BKur6hm82Lc6W/yIf0hKTxlMclBAlHxNObz32oQEcB6/lf0gt6gc2lSjR4Vh3joJPRPkqFl9WJ3v8sVK5WT+p2R3d4RzNn9g2CSTZXyJOOs+i4Yv+/hk9awvmOi1gAsHrXp6IcocACbQ4vPXuoOC7i3odTPFRo/paADXRZ171vKTjRQ2lt+E5gnd3FSSYRbIOIWGqyQshMg==","691f8ca61c6b4dcbb0aeb5f4","691faaec855d05685b6c7f44","index1","<span style='color:red'>Fail,<span style='color:red'>Fail,<span style='color:green'>Lift,<span style='color:green'>Lift,<span style='color:red'>Fail,<span style='color:red'>Fail,<span style='color:red'>Fail,<span style='color:red'>Fail,<span style='color:red'>Fail,<span style='color:green'>Lift,<span style='color:red'>Fail,<span style='color:green'>Lift","<span style='color:red'>Fail,<span style='color:red'>Fail,<span style='color:green'>Lift,<span style='color:green'>Lift,<span style='color:green'>Lift,<span style='color:green'>Lift,<span style='color:red'>Fail,<span style='color:green'>Lift,<span style='color:green'>Lift,<span style='color:green'>Lift,<span style='color:red'>Fail,<span style='color:green'>Lift","<span style='color:red'>Fail,<span style='color:green'>Lift,<span style='color:green'>Lift,<span style='color:red'>Fail,<span style='color:green'>Lift,<span style='color:green'>Lift","0,0,1,1,0,0,0,0,0,1,0,1","0,0,1,1,1,1,0,1,1,1,0,1","0,1,1,0,1,1",10,20,20,"","","","","{""box1"":""20""}","",NA,6,"round3_ready",4,6,3,NA,NA,NA,NA,NA,NA,NA,NA,NA,NA,NA,NA,NA,NA,20,20,NA,NA,NA,NA,NA,NA,NA,NA,NA,20,20,NA,NA,NA,NA,NA,NA,NA,NA,NA,"",NA,NA,NA,NA,NA,NA,NA,NA,2025-11-21 00:14:18
"6954.100000000093","https://psyc-201.github.io/xiang2023/exp/index1.html?PROLIFIC_PID=REDACTED&STUDY_ID=691f8ca61c6b4dcbb0aeb5f4&SESSION_ID=691faaec855d05685b6c7f44","survey-html-form",46,854376,"0.0-358.0-0.0","n/q672NhZTS656vxxj878tCyr5L548TnC6vP/N/sGFtI+IReltecASoEzMlFgYVIv8EhjAgynsh3CjPvddTsT3aPB4nsKHKqNykX/FjuUE6thV9Xl4JT0e6ZFf+avmqeyguk1Tu6f62BKur6hm82Lc6W/yIf0hKTxlMclBAlHxNObz32oQEcB6/lf0gt6gc2lSjR4Vh3joJPRPkqFl9WJ3v8sVK5WT+p2R3d4RzNn9g2CSTZXyJOOs+i4Yv+/hk9awvmOi1gAsHrXp6IcocACbQ4vPXuoOC7i3odTPFRo/paADXRZ171vKTjRQ2lt+E5gnd3FSSYRbIOIWGqyQshMg==","691f8ca61c6b4dcbb0aeb5f4","691faaec855d05685b6c7f44","index1","<span style='color:red'>Fail,<span style='color:red'>Fail,<span style='color:green'>Lift,<span style='color:green'>Lift,<span style='color:red'>Fail,<span style='color:red'>Fail,<span style='color:red'>Fail,<span style='color:red'>Fail,<span style='color:red'>Fail,<span style='color:green'>Lift,<span style='color:red'>Fail,<span style='color:green'>Lift","<span style='color:red'>Fail,<span style='color:red'>Fail,<span style='color:green'>Lift,<span style='color:green'>Lift,<span style='color:green'>Lift,<span style='color:green'>Lift,<span style='color:red'>Fail,<span style='color:green'>Lift,<span style='color:green'>Lift,<span style='color:green'>Lift,<span style='color:red'>Fail,<span style='color:green'>Lift","<span style='color:red'>Fail,<span style='color:green'>Lift,<span style='color:green'>Lift,<span style='color:red'>Fail,<span style='color:green'>Lift,<span style='color:green'>Lift","0,0,1,1,0,0,0,0,0,1,0,1","0,0,1,1,1,1,0,1,1,1,0,1","0,1,1,0,1,1",10,20,20,"","","","","{""box1"":""1"",""box2"":""1"",""box3"":""999"",""box4"":""999""}","",NA,6,"round3_fail",5,6,3,1,1,NA,NA,0,0,20,NA,NA,NA,NA,NA,NA,NA,NA,NA,NA,NA,NA,NA,NA,NA,NA,NA,NA,NA,NA,1,1,NA,NA,0,0,20,1,1,"",NA,NA,NA,NA,NA,NA,NA,NA,2025-11-21 00:14:18
"123993.8999999999","https://psyc-201.github.io/xiang2023/exp/index1.html?PROLIFIC_PID=REDACTED&STUDY_ID=691f8ca61c6b4dcbb0aeb5f4&SESSION_ID=691faaec855d05685b6c7f44","survey-text",47,978378,"0.0-361.0","n/q672NhZTS656vxxj878tCyr5L548TnC6vP/N/sGFtI+IReltecASoEzMlFgYVIv8EhjAgynsh3CjPvddTsT3aPB4nsKHKqNykX/FjuUE6thV9Xl4JT0e6ZFf+avmqeyguk1Tu6f62BKur6hm82Lc6W/yIf0hKTxlMclBAlHxNObz32oQEcB6/lf0gt6gc2lSjR4Vh3joJPRPkqFl9WJ3v8sVK5WT+p2R3d4RzNn9g2CSTZXyJOOs+i4Yv+/hk9awvmOi1gAsHrXp6IcocACbQ4vPXuoOC7i3odTPFRo/paADXRZ171vKTjRQ2lt+E5gnd3FSSYRbIOIWGqyQshMg==","691f8ca61c6b4dcbb0aeb5f4","691faaec855d05685b6c7f44","index1","<span style='color:red'>Fail,<span style='color:red'>Fail,<span style='color:green'>Lift,<span style='color:green'>Lift,<span style='color:red'>Fail,<span style='color:red'>Fail,<span style='color:red'>Fail,<span style='color:red'>Fail,<span style='color:red'>Fail,<span style='color:green'>Lift,<span style='color:red'>Fail,<span style='color:green'>Lift","<span style='color:red'>Fail,<span style='color:red'>Fail,<span style='color:green'>Lift,<span style='color:green'>Lift,<span style='color:green'>Lift,<span style='color:green'>Lift,<span style='color:red'>Fail,<span style='color:green'>Lift,<span style='color:green'>Lift,<span style='color:green'>Lift,<span style='color:red'>Fail,<span style='color:green'>Lift","<span style='color:red'>Fail,<span style='color:green'>Lift,<span style='color:green'>Lift,<span style='color:red'>Fail,<span style='color:green'>Lift,<span style='color:green'>Lift","0,0,1,1,0,0,0,0,0,1,0,1","0,0,1,1,1,1,0,1,1,1,0,1","0,1,1,0,1,1",10,20,20,"","","","","{""Q0"":""Two contestants were lifting boxes of a fixed weight. After seeing their performance (lift/fail) I had to predict their strenghts and chances of future sucsess.""}","",NA,NA,"",NA,NA,NA,NA,NA,NA,NA,NA,NA,NA,NA,NA,NA,NA,NA,NA,NA,NA,NA,NA,NA,NA,NA,NA,NA,NA,NA,NA,NA,NA,NA,NA,NA,NA,NA,NA,NA,NA,NA,"",NA,NA,NA,NA,NA,NA,NA,NA,2025-11-21 00:14:18
"3139.6999999997206","https://psyc-201.github.io/xiang2023/exp/index1.html?PROLIFIC_PID=REDACTED&STUDY_ID=691f8ca61c6b4dcbb0aeb5f4&SESSION_ID=691faaec855d05685b6c7f44","survey-text",48,981524,"0.0-362.0","n/q672NhZTS656vxxj878tCyr5L548TnC6vP/N/sGFtI+IReltecASoEzMlFgYVIv8EhjAgynsh3CjPvddTsT3aPB4nsKHKqNykX/FjuUE6thV9Xl4JT0e6ZFf+avmqeyguk1Tu6f62BKur6hm82Lc6W/yIf0hKTxlMclBAlHxNObz32oQEcB6/lf0gt6gc2lSjR4Vh3joJPRPkqFl9WJ3v8sVK5WT+p2R3d4RzNn9g2CSTZXyJOOs+i4Yv+/hk9awvmOi1gAsHrXp6IcocACbQ4vPXuoOC7i3odTPFRo/paADXRZ171vKTjRQ2lt+E5gnd3FSSYRbIOIWGqyQshMg==","691f8ca61c6b4dcbb0aeb5f4","691faaec855d05685b6c7f44","index1","<span style='color:red'>Fail,<span style='color:red'>Fail,<span style='color:green'>Lift,<span style='color:green'>Lift,<span style='color:red'>Fail,<span style='color:red'>Fail,<span style='color:red'>Fail,<span style='color:red'>Fail,<span style='color:red'>Fail,<span style='color:green'>Lift,<span style='color:red'>Fail,<span style='color:green'>Lift","<span style='color:red'>Fail,<span style='color:red'>Fail,<span style='color:green'>Lift,<span style='color:green'>Lift,<span style='color:green'>Lift,<span style='color:green'>Lift,<span style='color:red'>Fail,<span style='color:green'>Lift,<span style='color:green'>Lift,<span style='color:green'>Lift,<span style='color:red'>Fail,<span style='color:green'>Lift","<span style='color:red'>Fail,<span style='color:green'>Lift,<span style='color:green'>Lift,<span style='color:red'>Fail,<span style='color:green'>Lift,<span style='color:green'>Lift","0,0,1,1,0,0,0,0,0,1,0,1","0,0,1,1,1,1,0,1,1,1,0,1","0,1,1,0,1,1",10,20,20,"","","","","{""Q0"":""""}","",NA,NA,"",NA,NA,NA,NA,NA,NA,NA,NA,NA,NA,NA,NA,NA,NA,NA,NA,NA,NA,NA,NA,NA,NA,NA,NA,NA,NA,NA,NA,NA,NA,NA,NA,NA,NA,NA,NA,NA,NA,NA,"[{""event"":""fullscreenenter"",""trial"":1,""time"":22620}]",6,3,NA,20,0,0.8,NA,NA,2025-11-21 00:14:18
"6479.600000000093","https://psyc-201.github.io/xiang2023/exp/index1.html?PROLIFIC_PID=REDACTED&STUDY_ID=691f8ca61c6b4dcbb0aeb5f4&SESSION_ID=691faaec855d05685b6c7f44","html-button-response",49,988009,"0.0-363.0","n/q672NhZTS656vxxj878tCyr5L548TnC6vP/N/sGFtI+IReltecASoEzMlFgYVIv8EhjAgynsh3CjPvddTsT3aPB4nsKHKqNykX/FjuUE6thV9Xl4JT0e6ZFf+avmqeyguk1Tu6f62BKur6hm82Lc6W/yIf0hKTxlMclBAlHxNObz32oQEcB6/lf0gt6gc2lSjR4Vh3joJPRPkqFl9WJ3v8sVK5WT+p2R3d4RzNn9g2CSTZXyJOOs+i4Yv+/hk9awvmOi1gAsHrXp6IcocACbQ4vPXuoOC7i3odTPFRo/paADXRZ171vKTjRQ2lt+E5gnd3FSSYRbIOIWGqyQshMg==","691f8ca61c6b4dcbb0aeb5f4","691faaec855d05685b6c7f44","index1","<span style='color:red'>Fail,<span style='color:red'>Fail,<span style='color:green'>Lift,<span style='color:green'>Lift,<span style='color:red'>Fail,<span style='color:red'>Fail,<span style='color:red'>Fail,<span style='color:red'>Fail,<span style='color:red'>Fail,<span style='color:green'>Lift,<span style='color:red'>Fail,<span style='color:green'>Lift","<span style='color:red'>Fail,<span style='color:red'>Fail,<span style='color:green'>Lift,<span style='color:green'>Lift,<span style='color:green'>Lift,<span style='color:green'>Lift,<span style='color:red'>Fail,<span style='color:green'>Lift,<span style='color:green'>Lift,<span style='color:green'>Lift,<span style='color:red'>Fail,<span style='color:green'>Lift","<span style='color:red'>Fail,<span style='color:green'>Lift,<span style='color:green'>Lift,<span style='color:red'>Fail,<span style='color:green'>Lift,<span style='color:green'>Lift","0,0,1,1,0,0,0,0,0,1,0,1","0,0,1,1,1,1,0,1,1,1,0,1","0,1,1,0,1,1",10,20,20,"","","<p> We randomly picked <b>Contest 6, Round 3</b> to calculate your bonus. </p><p> The outcome of Contestant K and L on that round is <span style='color:red'>Fail</span>. </p><p> The probability you entered was 20. </p><p><b> You won a bonus of $0.80!</b></p><p> IMPORTANT: Please click 'Next' to complete the game. </p>","","","",0,NA,"",NA,NA,NA,NA,NA,NA,NA,NA,NA,NA,NA,NA,NA,NA,NA,NA,NA,NA,NA,NA,NA,NA,NA,NA,NA,NA,NA,NA,NA,NA,NA,NA,NA,NA,NA,NA,NA,NA,NA,"",NA,NA,NA,NA,NA,NA,2,1,2025-11-21 00:14:18
