"rt","url","trial_type","trial_index","time_elapsed","internal_node_id","encryptedProlificId","studyId","sessionId","expIndex","round1_outcomes","round2_outcomes","round3_outcomes","round1_o","round2_o","round3_o","round1_reward","round2_reward","round3_reward","success","view_history","stimulus","key_press","responses","question_order","button_pressed","j","Stage","stage","contest","round","strength_a","strength_b","effort_a","effort_b","outcome_a","outcome_b","reward","r1_strength_a","r1_strength_b","r1_effort_a","r1_effort_b","r1_outcome_a","r1_outcome_b","r1_reward","probability_a","probability_b","r2_prob_a","r2_prob_b","r2_strength_a","r2_strength_b","r2_effort_a","r2_effort_b","r2_outcome_a","r2_outcome_b","r2_reward","r3_prob_a","r3_prob_b","attention_check","count","r3_strength_a","r3_strength_b","r3_outcome_a","r3_outcome_b","r3_reward","r3_effort_a","r3_effort_b","screen","pick_contest","pick_round","pick_side","trial_probability","trial_outcome","bonus","attention_sum","attention","datapipe_meta.attributes.date_modified"
"57213.5","https://psyc-201.github.io/xiang2023/exp/index1.html?PROLIFIC_PID=REDACTED&STUDY_ID=691f8ca61c6b4dcbb0aeb5f4&SESSION_ID=691fbe5b707d46e0749141fa","external-html",0,57381,"0.0-0.0","qozl7bm4nd45Eix4IzQ28V8YqiKJU820fUZEeYFG0WeBjsll9uywS11ZYGs4FA6tINWzrukupvxQrPC+x9lwLeyhZ6/fMxurHqBJ8EazEnRLIKRVeORk5gChFmjQCOvYpYU1SEx6FqVks35OaJhPOAee15Bqhq8F7C+m9PBaPm4xO0sMXn1o04luuJMOppljPQDw565MBBsyp82blki5zxm7xIb3q6Pfu5fAYReDiGmN6M8dHINWSx92IDyrd29J8vOodUe4rFdobAeNhEogAeuicww9xoaTpdy9nvVJ5n7fjgt0iG8A7PuKL0QOitfaD2eOnIrD08GitVSZWXZpbw==","691f8ca61c6b4dcbb0aeb5f4","691fbe5b707d46e0749141fa","index1","<span style='color:red'>Fail,<span style='color:red'>Fail,<span style='color:green'>Lift,<span style='color:green'>Lift,<span style='color:red'>Fail,<span style='color:red'>Fail,<span style='color:red'>Fail,<span style='color:red'>Fail,<span style='color:green'>Lift,<span style='color:red'>Fail,<span style='color:green'>Lift,<span style='color:red'>Fail","<span style='color:red'>Fail,<span style='color:red'>Fail,<span style='color:green'>Lift,<span style='color:green'>Lift,<span style='color:green'>Lift,<span style='color:green'>Lift,<span style='color:red'>Fail,<span style='color:green'>Lift,<span style='color:green'>Lift,<span style='color:green'>Lift,<span style='color:green'>Lift,<span style='color:red'>Fail","<span style='color:red'>Fail,<span style='color:green'>Lift,<span style='color:green'>Lift,<span style='color:red'>Fail,<span style='color:green'>Lift,<span style='color:green'>Lift","0,0,1,1,0,0,0,0,1,0,1,0","0,0,1,1,1,1,0,1,1,1,1,0","0,1,1,0,1,1",10,20,20,"","","","","","",NA,NA,"",NA,NA,NA,NA,NA,NA,NA,NA,NA,NA,NA,NA,NA,NA,NA,NA,NA,NA,NA,NA,NA,NA,NA,NA,NA,NA,NA,NA,NA,NA,NA,NA,NA,NA,NA,NA,NA,NA,NA,"",NA,NA,NA,NA,NA,NA,NA,NA,2025-11-21 01:39:47
"","https://psyc-201.github.io/xiang2023/exp/index1.html?PROLIFIC_PID=REDACTED&STUDY_ID=691f8ca61c6b4dcbb0aeb5f4&SESSION_ID=691fbe5b707d46e0749141fa","fullscreen",1,66891,"0.0-1.0","qozl7bm4nd45Eix4IzQ28V8YqiKJU820fUZEeYFG0WeBjsll9uywS11ZYGs4FA6tINWzrukupvxQrPC+x9lwLeyhZ6/fMxurHqBJ8EazEnRLIKRVeORk5gChFmjQCOvYpYU1SEx6FqVks35OaJhPOAee15Bqhq8F7C+m9PBaPm4xO0sMXn1o04luuJMOppljPQDw565MBBsyp82blki5zxm7xIb3q6Pfu5fAYReDiGmN6M8dHINWSx92IDyrd29J8vOodUe4rFdobAeNhEogAeuicww9xoaTpdy9nvVJ5n7fjgt0iG8A7PuKL0QOitfaD2eOnIrD08GitVSZWXZpbw==","691f8ca61c6b4dcbb0aeb5f4","691fbe5b707d46e0749141fa","index1","<span style='color:red'>Fail,<span style='color:red'>Fail,<span style='color:green'>Lift,<span style='color:green'>Lift,<span style='color:red'>Fail,<span style='color:red'>Fail,<span style='color:red'>Fail,<span style='color:red'>Fail,<span style='color:green'>Lift,<span style='color:red'>Fail,<span style='color:green'>Lift,<span style='color:red'>Fail","<span style='color:red'>Fail,<span style='color:red'>Fail,<span style='color:green'>Lift,<span style='color:green'>Lift,<span style='color:green'>Lift,<span style='color:green'>Lift,<span style='color:red'>Fail,<span style='color:green'>Lift,<span style='color:green'>Lift,<span style='color:green'>Lift,<span style='color:green'>Lift,<span style='color:red'>Fail","<span style='color:red'>Fail,<span style='color:green'>Lift,<span style='color:green'>Lift,<span style='color:red'>Fail,<span style='color:green'>Lift,<span style='color:green'>Lift","0,0,1,1,0,0,0,0,1,0,1,0","0,0,1,1,1,1,0,1,1,1,1,0","0,1,1,0,1,1",10,20,20,"true","","","","","",NA,NA,"",NA,NA,NA,NA,NA,NA,NA,NA,NA,NA,NA,NA,NA,NA,NA,NA,NA,NA,NA,NA,NA,NA,NA,NA,NA,NA,NA,NA,NA,NA,NA,NA,NA,NA,NA,NA,NA,NA,NA,"",NA,NA,NA,NA,NA,NA,NA,NA,2025-11-21 01:39:47
"195982.69999998808","https://psyc-201.github.io/xiang2023/exp/index1.html?PROLIFIC_PID=REDACTED&STUDY_ID=691f8ca61c6b4dcbb0aeb5f4&SESSION_ID=691fbe5b707d46e0749141fa","instructions",2,262876,"0.0-2.0","qozl7bm4nd45Eix4IzQ28V8YqiKJU820fUZEeYFG0WeBjsll9uywS11ZYGs4FA6tINWzrukupvxQrPC+x9lwLeyhZ6/fMxurHqBJ8EazEnRLIKRVeORk5gChFmjQCOvYpYU1SEx6FqVks35OaJhPOAee15Bqhq8F7C+m9PBaPm4xO0sMXn1o04luuJMOppljPQDw565MBBsyp82blki5zxm7xIb3q6Pfu5fAYReDiGmN6M8dHINWSx92IDyrd29J8vOodUe4rFdobAeNhEogAeuicww9xoaTpdy9nvVJ5n7fjgt0iG8A7PuKL0QOitfaD2eOnIrD08GitVSZWXZpbw==","691f8ca61c6b4dcbb0aeb5f4","691fbe5b707d46e0749141fa","index1","<span style='color:red'>Fail,<span style='color:red'>Fail,<span style='color:green'>Lift,<span style='color:green'>Lift,<span style='color:red'>Fail,<span style='color:red'>Fail,<span style='color:red'>Fail,<span style='color:red'>Fail,<span style='color:green'>Lift,<span style='color:red'>Fail,<span style='color:green'>Lift,<span style='color:red'>Fail","<span style='color:red'>Fail,<span style='color:red'>Fail,<span style='color:green'>Lift,<span style='color:green'>Lift,<span style='color:green'>Lift,<span style='color:green'>Lift,<span style='color:red'>Fail,<span style='color:green'>Lift,<span style='color:green'>Lift,<span style='color:green'>Lift,<span style='color:green'>Lift,<span style='color:red'>Fail","<span style='color:red'>Fail,<span style='color:green'>Lift,<span style='color:green'>Lift,<span style='color:red'>Fail,<span style='color:green'>Lift,<span style='color:green'>Lift","0,0,1,1,0,0,0,0,1,0,1,0","0,0,1,1,1,1,0,1,1,1,1,0","0,1,1,0,1,1",10,20,20,"","[{""page_index"":0,""viewing_time"":57374.5},{""page_index"":1,""viewing_time"":32331.59999999404},{""page_index"":2,""viewing_time"":24467.30000001192},{""page_index"":3,""viewing_time"":30071.29999998212},{""page_index"":4,""viewing_time"":14308.200000017881},{""page_index"":5,""viewing_time"":30836.5},{""page_index"":6,""viewing_time"":6592.299999982119}]","","","","",NA,NA,"",NA,NA,NA,NA,NA,NA,NA,NA,NA,NA,NA,NA,NA,NA,NA,NA,NA,NA,NA,NA,NA,NA,NA,NA,NA,NA,NA,NA,NA,NA,NA,NA,NA,NA,NA,NA,NA,NA,NA,"",NA,NA,NA,NA,NA,NA,NA,NA,2025-11-21 01:39:47
"null","https://psyc-201.github.io/xiang2023/exp/index1.html?PROLIFIC_PID=REDACTED&STUDY_ID=691f8ca61c6b4dcbb0aeb5f4&SESSION_ID=691fbe5b707d46e0749141fa","html-keyboard-response",3,263895,"0.0-3.0","qozl7bm4nd45Eix4IzQ28V8YqiKJU820fUZEeYFG0WeBjsll9uywS11ZYGs4FA6tINWzrukupvxQrPC+x9lwLeyhZ6/fMxurHqBJ8EazEnRLIKRVeORk5gChFmjQCOvYpYU1SEx6FqVks35OaJhPOAee15Bqhq8F7C+m9PBaPm4xO0sMXn1o04luuJMOppljPQDw565MBBsyp82blki5zxm7xIb3q6Pfu5fAYReDiGmN6M8dHINWSx92IDyrd29J8vOodUe4rFdobAeNhEogAeuicww9xoaTpdy9nvVJ5n7fjgt0iG8A7PuKL0QOitfaD2eOnIrD08GitVSZWXZpbw==","691f8ca61c6b4dcbb0aeb5f4","691fbe5b707d46e0749141fa","index1","<span style='color:red'>Fail,<span style='color:red'>Fail,<span style='color:green'>Lift,<span style='color:green'>Lift,<span style='color:red'>Fail,<span style='color:red'>Fail,<span style='color:red'>Fail,<span style='color:red'>Fail,<span style='color:green'>Lift,<span style='color:red'>Fail,<span style='color:green'>Lift,<span style='color:red'>Fail","<span style='color:red'>Fail,<span style='color:red'>Fail,<span style='color:green'>Lift,<span style='color:green'>Lift,<span style='color:green'>Lift,<span style='color:green'>Lift,<span style='color:red'>Fail,<span style='color:green'>Lift,<span style='color:green'>Lift,<span style='color:green'>Lift,<span style='color:green'>Lift,<span style='color:red'>Fail","<span style='color:red'>Fail,<span style='color:green'>Lift,<span style='color:green'>Lift,<span style='color:red'>Fail,<span style='color:green'>Lift,<span style='color:green'>Lift","0,0,1,1,0,0,0,0,1,0,1,0","0,0,1,1,1,1,0,1,1,1,1,0","0,1,1,0,1,1",10,20,20,"",""," ","null","","",NA,NA,"",NA,NA,NA,NA,NA,NA,NA,NA,NA,NA,NA,NA,NA,NA,NA,NA,NA,NA,NA,NA,NA,NA,NA,NA,NA,NA,NA,NA,NA,NA,NA,NA,NA,NA,NA,NA,NA,NA,NA,"",NA,NA,NA,NA,NA,NA,NA,NA,2025-11-21 01:39:47
"41017.59999999404","https://psyc-201.github.io/xiang2023/exp/index1.html?PROLIFIC_PID=REDACTED&STUDY_ID=691f8ca61c6b4dcbb0aeb5f4&SESSION_ID=691fbe5b707d46e0749141fa","survey-multi-choice",4,304917,"0.0-4.0","qozl7bm4nd45Eix4IzQ28V8YqiKJU820fUZEeYFG0WeBjsll9uywS11ZYGs4FA6tINWzrukupvxQrPC+x9lwLeyhZ6/fMxurHqBJ8EazEnRLIKRVeORk5gChFmjQCOvYpYU1SEx6FqVks35OaJhPOAee15Bqhq8F7C+m9PBaPm4xO0sMXn1o04luuJMOppljPQDw565MBBsyp82blki5zxm7xIb3q6Pfu5fAYReDiGmN6M8dHINWSx92IDyrd29J8vOodUe4rFdobAeNhEogAeuicww9xoaTpdy9nvVJ5n7fjgt0iG8A7PuKL0QOitfaD2eOnIrD08GitVSZWXZpbw==","691f8ca61c6b4dcbb0aeb5f4","691fbe5b707d46e0749141fa","index1","<span style='color:red'>Fail,<span style='color:red'>Fail,<span style='color:green'>Lift,<span style='color:green'>Lift,<span style='color:red'>Fail,<span style='color:red'>Fail,<span style='color:red'>Fail,<span style='color:red'>Fail,<span style='color:green'>Lift,<span style='color:red'>Fail,<span style='color:green'>Lift,<span style='color:red'>Fail","<span style='color:red'>Fail,<span style='color:red'>Fail,<span style='color:green'>Lift,<span style='color:green'>Lift,<span style='color:green'>Lift,<span style='color:green'>Lift,<span style='color:red'>Fail,<span style='color:green'>Lift,<span style='color:green'>Lift,<span style='color:green'>Lift,<span style='color:green'>Lift,<span style='color:red'>Fail","<span style='color:red'>Fail,<span style='color:green'>Lift,<span style='color:green'>Lift,<span style='color:red'>Fail,<span style='color:green'>Lift,<span style='color:green'>Lift","0,0,1,1,0,0,0,0,1,0,1,0","0,0,1,1,1,1,0,1,1,1,1,0","0,1,1,0,1,1",10,20,20,"","","","","{""Q0"":""It consists of multiple contests, each contest with three rounds."",""Q1"":""When a new contest begins."",""Q2"":""The box weight always stays the same (equivalent to strength of 5)."",""Q3"":""They will split the $20, that is $10 for each."",""Q4"":""How close my guesses are to the actual outcome.""}","[0,1,2,3,4]",NA,NA,"",NA,NA,NA,NA,NA,NA,NA,NA,NA,NA,NA,NA,NA,NA,NA,NA,NA,NA,NA,NA,NA,NA,NA,NA,NA,NA,NA,NA,NA,NA,NA,NA,NA,NA,NA,NA,NA,NA,NA,"",NA,NA,NA,NA,NA,NA,NA,NA,2025-11-21 01:39:47
"6526.5999999940395","https://psyc-201.github.io/xiang2023/exp/index1.html?PROLIFIC_PID=REDACTED&STUDY_ID=691f8ca61c6b4dcbb0aeb5f4&SESSION_ID=691fbe5b707d46e0749141fa","html-button-response",5,311448,"0.0-5.0-1.0","qozl7bm4nd45Eix4IzQ28V8YqiKJU820fUZEeYFG0WeBjsll9uywS11ZYGs4FA6tINWzrukupvxQrPC+x9lwLeyhZ6/fMxurHqBJ8EazEnRLIKRVeORk5gChFmjQCOvYpYU1SEx6FqVks35OaJhPOAee15Bqhq8F7C+m9PBaPm4xO0sMXn1o04luuJMOppljPQDw565MBBsyp82blki5zxm7xIb3q6Pfu5fAYReDiGmN6M8dHINWSx92IDyrd29J8vOodUe4rFdobAeNhEogAeuicww9xoaTpdy9nvVJ5n7fjgt0iG8A7PuKL0QOitfaD2eOnIrD08GitVSZWXZpbw==","691f8ca61c6b4dcbb0aeb5f4","691fbe5b707d46e0749141fa","index1","<span style='color:red'>Fail,<span style='color:red'>Fail,<span style='color:green'>Lift,<span style='color:green'>Lift,<span style='color:red'>Fail,<span style='color:red'>Fail,<span style='color:red'>Fail,<span style='color:red'>Fail,<span style='color:green'>Lift,<span style='color:red'>Fail,<span style='color:green'>Lift,<span style='color:red'>Fail","<span style='color:red'>Fail,<span style='color:red'>Fail,<span style='color:green'>Lift,<span style='color:green'>Lift,<span style='color:green'>Lift,<span style='color:green'>Lift,<span style='color:red'>Fail,<span style='color:green'>Lift,<span style='color:green'>Lift,<span style='color:green'>Lift,<span style='color:green'>Lift,<span style='color:red'>Fail","<span style='color:red'>Fail,<span style='color:green'>Lift,<span style='color:green'>Lift,<span style='color:red'>Fail,<span style='color:green'>Lift,<span style='color:green'>Lift","0,0,1,1,0,0,0,0,1,0,1,0","0,0,1,1,1,1,0,1,1,1,1,0","0,1,1,0,1,1",10,20,20,"","","<p> Oops! You did not pass the comprehension check. <b>Please note that you have only 1 attempt(s) left.</b> </p>","","","",1,NA,"",NA,NA,NA,NA,NA,NA,NA,NA,NA,NA,NA,NA,NA,NA,NA,NA,NA,NA,NA,NA,NA,NA,NA,NA,NA,NA,NA,NA,NA,NA,NA,NA,NA,NA,NA,NA,NA,NA,NA,"",NA,NA,NA,NA,NA,NA,NA,NA,2025-11-21 01:39:47
"69380.90000000596","https://psyc-201.github.io/xiang2023/exp/index1.html?PROLIFIC_PID=REDACTED&STUDY_ID=691f8ca61c6b4dcbb0aeb5f4&SESSION_ID=691fbe5b707d46e0749141fa","instructions",6,380831,"0.0-6.0-0.0","qozl7bm4nd45Eix4IzQ28V8YqiKJU820fUZEeYFG0WeBjsll9uywS11ZYGs4FA6tINWzrukupvxQrPC+x9lwLeyhZ6/fMxurHqBJ8EazEnRLIKRVeORk5gChFmjQCOvYpYU1SEx6FqVks35OaJhPOAee15Bqhq8F7C+m9PBaPm4xO0sMXn1o04luuJMOppljPQDw565MBBsyp82blki5zxm7xIb3q6Pfu5fAYReDiGmN6M8dHINWSx92IDyrd29J8vOodUe4rFdobAeNhEogAeuicww9xoaTpdy9nvVJ5n7fjgt0iG8A7PuKL0QOitfaD2eOnIrD08GitVSZWXZpbw==","691f8ca61c6b4dcbb0aeb5f4","691fbe5b707d46e0749141fa","index1","<span style='color:red'>Fail,<span style='color:red'>Fail,<span style='color:green'>Lift,<span style='color:green'>Lift,<span style='color:red'>Fail,<span style='color:red'>Fail,<span style='color:red'>Fail,<span style='color:red'>Fail,<span style='color:green'>Lift,<span style='color:red'>Fail,<span style='color:green'>Lift,<span style='color:red'>Fail","<span style='color:red'>Fail,<span style='color:red'>Fail,<span style='color:green'>Lift,<span style='color:green'>Lift,<span style='color:green'>Lift,<span style='color:green'>Lift,<span style='color:red'>Fail,<span style='color:green'>Lift,<span style='color:green'>Lift,<span style='color:green'>Lift,<span style='color:green'>Lift,<span style='color:red'>Fail","<span style='color:red'>Fail,<span style='color:green'>Lift,<span style='color:green'>Lift,<span style='color:red'>Fail,<span style='color:green'>Lift,<span style='color:green'>Lift","0,0,1,1,0,0,0,0,1,0,1,0","0,0,1,1,1,1,0,1,1,1,1,0","0,1,1,0,1,1",10,20,20,"","[{""page_index"":0,""viewing_time"":29068.69999998808},{""page_index"":1,""viewing_time"":10788.100000023842},{""page_index"":2,""viewing_time"":21500.79999998212},{""page_index"":3,""viewing_time"":3182.5999999940395},{""page_index"":4,""viewing_time"":1633},{""page_index"":5,""viewing_time"":1559},{""page_index"":6,""viewing_time"":1648.300000011921}]","","","","",NA,NA,"",NA,NA,NA,NA,NA,NA,NA,NA,NA,NA,NA,NA,NA,NA,NA,NA,NA,NA,NA,NA,NA,NA,NA,NA,NA,NA,NA,NA,NA,NA,NA,NA,NA,NA,NA,NA,NA,NA,NA,"",NA,NA,NA,NA,NA,NA,NA,NA,2025-11-21 01:39:47
"null","https://psyc-201.github.io/xiang2023/exp/index1.html?PROLIFIC_PID=REDACTED&STUDY_ID=691f8ca61c6b4dcbb0aeb5f4&SESSION_ID=691fbe5b707d46e0749141fa","html-keyboard-response",7,381849,"0.0-6.0-1.0","qozl7bm4nd45Eix4IzQ28V8YqiKJU820fUZEeYFG0WeBjsll9uywS11ZYGs4FA6tINWzrukupvxQrPC+x9lwLeyhZ6/fMxurHqBJ8EazEnRLIKRVeORk5gChFmjQCOvYpYU1SEx6FqVks35OaJhPOAee15Bqhq8F7C+m9PBaPm4xO0sMXn1o04luuJMOppljPQDw565MBBsyp82blki5zxm7xIb3q6Pfu5fAYReDiGmN6M8dHINWSx92IDyrd29J8vOodUe4rFdobAeNhEogAeuicww9xoaTpdy9nvVJ5n7fjgt0iG8A7PuKL0QOitfaD2eOnIrD08GitVSZWXZpbw==","691f8ca61c6b4dcbb0aeb5f4","691fbe5b707d46e0749141fa","index1","<span style='color:red'>Fail,<span style='color:red'>Fail,<span style='color:green'>Lift,<span style='color:green'>Lift,<span style='color:red'>Fail,<span style='color:red'>Fail,<span style='color:red'>Fail,<span style='color:red'>Fail,<span style='color:green'>Lift,<span style='color:red'>Fail,<span style='color:green'>Lift,<span style='color:red'>Fail","<span style='color:red'>Fail,<span style='color:red'>Fail,<span style='color:green'>Lift,<span style='color:green'>Lift,<span style='color:green'>Lift,<span style='color:green'>Lift,<span style='color:red'>Fail,<span style='color:green'>Lift,<span style='color:green'>Lift,<span style='color:green'>Lift,<span style='color:green'>Lift,<span style='color:red'>Fail","<span style='color:red'>Fail,<span style='color:green'>Lift,<span style='color:green'>Lift,<span style='color:red'>Fail,<span style='color:green'>Lift,<span style='color:green'>Lift","0,0,1,1,0,0,0,0,1,0,1,0","0,0,1,1,1,1,0,1,1,1,1,0","0,1,1,0,1,1",10,20,20,"",""," ","null","","",NA,NA,"",NA,NA,NA,NA,NA,NA,NA,NA,NA,NA,NA,NA,NA,NA,NA,NA,NA,NA,NA,NA,NA,NA,NA,NA,NA,NA,NA,NA,NA,NA,NA,NA,NA,NA,NA,NA,NA,NA,NA,"",NA,NA,NA,NA,NA,NA,NA,NA,2025-11-21 01:39:47
"28392.59999999404","https://psyc-201.github.io/xiang2023/exp/index1.html?PROLIFIC_PID=REDACTED&STUDY_ID=691f8ca61c6b4dcbb0aeb5f4&SESSION_ID=691fbe5b707d46e0749141fa","survey-multi-choice",8,410246,"0.0-7.0-0.0","qozl7bm4nd45Eix4IzQ28V8YqiKJU820fUZEeYFG0WeBjsll9uywS11ZYGs4FA6tINWzrukupvxQrPC+x9lwLeyhZ6/fMxurHqBJ8EazEnRLIKRVeORk5gChFmjQCOvYpYU1SEx6FqVks35OaJhPOAee15Bqhq8F7C+m9PBaPm4xO0sMXn1o04luuJMOppljPQDw565MBBsyp82blki5zxm7xIb3q6Pfu5fAYReDiGmN6M8dHINWSx92IDyrd29J8vOodUe4rFdobAeNhEogAeuicww9xoaTpdy9nvVJ5n7fjgt0iG8A7PuKL0QOitfaD2eOnIrD08GitVSZWXZpbw==","691f8ca61c6b4dcbb0aeb5f4","691fbe5b707d46e0749141fa","index1","<span style='color:red'>Fail,<span style='color:red'>Fail,<span style='color:green'>Lift,<span style='color:green'>Lift,<span style='color:red'>Fail,<span style='color:red'>Fail,<span style='color:red'>Fail,<span style='color:red'>Fail,<span style='color:green'>Lift,<span style='color:red'>Fail,<span style='color:green'>Lift,<span style='color:red'>Fail","<span style='color:red'>Fail,<span style='color:red'>Fail,<span style='color:green'>Lift,<span style='color:green'>Lift,<span style='color:green'>Lift,<span style='color:green'>Lift,<span style='color:red'>Fail,<span style='color:green'>Lift,<span style='color:green'>Lift,<span style='color:green'>Lift,<span style='color:green'>Lift,<span style='color:red'>Fail","<span style='color:red'>Fail,<span style='color:green'>Lift,<span style='color:green'>Lift,<span style='color:red'>Fail,<span style='color:green'>Lift,<span style='color:green'>Lift","0,0,1,1,0,0,0,0,1,0,1,0","0,0,1,1,1,1,0,1,1,1,1,0","0,1,1,0,1,1",10,20,20,"","","","","{""Q0"":""It consists of multiple contests, each contest with three rounds."",""Q1"":""When a new contest begins."",""Q2"":""The box weight always stays the same (equivalent to strength of 5)."",""Q3"":""Each will get $20."",""Q4"":""How close my guesses are to the actual outcome.""}","[0,1,2,3,4]",NA,NA,"",NA,NA,NA,NA,NA,NA,NA,NA,NA,NA,NA,NA,NA,NA,NA,NA,NA,NA,NA,NA,NA,NA,NA,NA,NA,NA,NA,NA,NA,NA,NA,NA,NA,NA,NA,NA,NA,NA,NA,"",NA,NA,NA,NA,NA,NA,NA,NA,2025-11-21 01:39:47
"10948.09999999404","https://psyc-201.github.io/xiang2023/exp/index1.html?PROLIFIC_PID=REDACTED&STUDY_ID=691f8ca61c6b4dcbb0aeb5f4&SESSION_ID=691fbe5b707d46e0749141fa","instructions",9,421208,"0.0-305.0","qozl7bm4nd45Eix4IzQ28V8YqiKJU820fUZEeYFG0WeBjsll9uywS11ZYGs4FA6tINWzrukupvxQrPC+x9lwLeyhZ6/fMxurHqBJ8EazEnRLIKRVeORk5gChFmjQCOvYpYU1SEx6FqVks35OaJhPOAee15Bqhq8F7C+m9PBaPm4xO0sMXn1o04luuJMOppljPQDw565MBBsyp82blki5zxm7xIb3q6Pfu5fAYReDiGmN6M8dHINWSx92IDyrd29J8vOodUe4rFdobAeNhEogAeuicww9xoaTpdy9nvVJ5n7fjgt0iG8A7PuKL0QOitfaD2eOnIrD08GitVSZWXZpbw==","691f8ca61c6b4dcbb0aeb5f4","691fbe5b707d46e0749141fa","index1","<span style='color:red'>Fail,<span style='color:red'>Fail,<span style='color:green'>Lift,<span style='color:green'>Lift,<span style='color:red'>Fail,<span style='color:red'>Fail,<span style='color:red'>Fail,<span style='color:red'>Fail,<span style='color:green'>Lift,<span style='color:red'>Fail,<span style='color:green'>Lift,<span style='color:red'>Fail","<span style='color:red'>Fail,<span style='color:red'>Fail,<span style='color:green'>Lift,<span style='color:green'>Lift,<span style='color:green'>Lift,<span style='color:green'>Lift,<span style='color:red'>Fail,<span style='color:green'>Lift,<span style='color:green'>Lift,<span style='color:green'>Lift,<span style='color:green'>Lift,<span style='color:red'>Fail","<span style='color:red'>Fail,<span style='color:green'>Lift,<span style='color:green'>Lift,<span style='color:red'>Fail,<span style='color:green'>Lift,<span style='color:green'>Lift","0,0,1,1,0,0,0,0,1,0,1,0","0,0,1,1,1,1,0,1,1,1,1,0","0,1,1,0,1,1",10,20,20,"","[{""page_index"":0,""viewing_time"":6719.5999999940395},{""page_index"":1,""viewing_time"":4228}]","","","","",NA,NA,"",NA,NA,NA,NA,NA,NA,NA,NA,NA,NA,NA,NA,NA,NA,NA,NA,NA,NA,NA,NA,NA,NA,NA,NA,NA,NA,NA,NA,NA,NA,NA,NA,NA,NA,NA,NA,NA,NA,NA,"",NA,NA,NA,NA,NA,NA,NA,NA,2025-11-21 01:39:47
"null","https://psyc-201.github.io/xiang2023/exp/index1.html?PROLIFIC_PID=REDACTED&STUDY_ID=691f8ca61c6b4dcbb0aeb5f4&SESSION_ID=691fbe5b707d46e0749141fa","html-keyboard-response",10,422211,"0.0-306.0","qozl7bm4nd45Eix4IzQ28V8YqiKJU820fUZEeYFG0WeBjsll9uywS11ZYGs4FA6tINWzrukupvxQrPC+x9lwLeyhZ6/fMxurHqBJ8EazEnRLIKRVeORk5gChFmjQCOvYpYU1SEx6FqVks35OaJhPOAee15Bqhq8F7C+m9PBaPm4xO0sMXn1o04luuJMOppljPQDw565MBBsyp82blki5zxm7xIb3q6Pfu5fAYReDiGmN6M8dHINWSx92IDyrd29J8vOodUe4rFdobAeNhEogAeuicww9xoaTpdy9nvVJ5n7fjgt0iG8A7PuKL0QOitfaD2eOnIrD08GitVSZWXZpbw==","691f8ca61c6b4dcbb0aeb5f4","691fbe5b707d46e0749141fa","index1","<span style='color:red'>Fail,<span style='color:red'>Fail,<span style='color:green'>Lift,<span style='color:green'>Lift,<span style='color:red'>Fail,<span style='color:red'>Fail,<span style='color:red'>Fail,<span style='color:red'>Fail,<span style='color:green'>Lift,<span style='color:red'>Fail,<span style='color:green'>Lift,<span style='color:red'>Fail","<span style='color:red'>Fail,<span style='color:red'>Fail,<span style='color:green'>Lift,<span style='color:green'>Lift,<span style='color:green'>Lift,<span style='color:green'>Lift,<span style='color:red'>Fail,<span style='color:green'>Lift,<span style='color:green'>Lift,<span style='color:green'>Lift,<span style='color:green'>Lift,<span style='color:red'>Fail","<span style='color:red'>Fail,<span style='color:green'>Lift,<span style='color:green'>Lift,<span style='color:red'>Fail,<span style='color:green'>Lift,<span style='color:green'>Lift","0,0,1,1,0,0,0,0,1,0,1,0","0,0,1,1,1,1,0,1,1,1,1,0","0,1,1,0,1,1",10,20,20,"",""," ","null","","",NA,1,"",NA,NA,NA,NA,NA,NA,NA,NA,NA,NA,NA,NA,NA,NA,NA,NA,NA,NA,NA,NA,NA,NA,NA,NA,NA,NA,NA,NA,NA,NA,NA,NA,NA,NA,NA,NA,NA,NA,NA,"",NA,NA,NA,NA,NA,NA,NA,NA,2025-11-21 01:39:47
"null","https://psyc-201.github.io/xiang2023/exp/index1.html?PROLIFIC_PID=REDACTED&STUDY_ID=691f8ca61c6b4dcbb0aeb5f4&SESSION_ID=691fbe5b707d46e0749141fa","html-keyboard-response",11,425229,"0.0-307.0","qozl7bm4nd45Eix4IzQ28V8YqiKJU820fUZEeYFG0WeBjsll9uywS11ZYGs4FA6tINWzrukupvxQrPC+x9lwLeyhZ6/fMxurHqBJ8EazEnRLIKRVeORk5gChFmjQCOvYpYU1SEx6FqVks35OaJhPOAee15Bqhq8F7C+m9PBaPm4xO0sMXn1o04luuJMOppljPQDw565MBBsyp82blki5zxm7xIb3q6Pfu5fAYReDiGmN6M8dHINWSx92IDyrd29J8vOodUe4rFdobAeNhEogAeuicww9xoaTpdy9nvVJ5n7fjgt0iG8A7PuKL0QOitfaD2eOnIrD08GitVSZWXZpbw==","691f8ca61c6b4dcbb0aeb5f4","691fbe5b707d46e0749141fa","index1","<span style='color:red'>Fail,<span style='color:red'>Fail,<span style='color:green'>Lift,<span style='color:green'>Lift,<span style='color:red'>Fail,<span style='color:red'>Fail,<span style='color:red'>Fail,<span style='color:red'>Fail,<span style='color:green'>Lift,<span style='color:red'>Fail,<span style='color:green'>Lift,<span style='color:red'>Fail","<span style='color:red'>Fail,<span style='color:red'>Fail,<span style='color:green'>Lift,<span style='color:green'>Lift,<span style='color:green'>Lift,<span style='color:green'>Lift,<span style='color:red'>Fail,<span style='color:green'>Lift,<span style='color:green'>Lift,<span style='color:green'>Lift,<span style='color:green'>Lift,<span style='color:red'>Fail","<span style='color:red'>Fail,<span style='color:green'>Lift,<span style='color:green'>Lift,<span style='color:red'>Fail,<span style='color:green'>Lift,<span style='color:green'>Lift","0,0,1,1,0,0,0,0,1,0,1,0","0,0,1,1,1,1,0,1,1,1,1,0","0,1,1,0,1,1",10,20,20,"","","<p style='font-size:30px'><b> New Contest! </b></p>","null","","",NA,1,"",NA,NA,NA,NA,NA,NA,NA,NA,NA,NA,NA,NA,NA,NA,NA,NA,NA,NA,NA,NA,NA,NA,NA,NA,NA,NA,NA,NA,NA,NA,NA,NA,NA,NA,NA,NA,NA,NA,NA,"",NA,NA,NA,NA,NA,NA,NA,NA,2025-11-21 01:39:47
"17794.59999999404","https://psyc-201.github.io/xiang2023/exp/index1.html?PROLIFIC_PID=REDACTED&STUDY_ID=691f8ca61c6b4dcbb0aeb5f4&SESSION_ID=691fbe5b707d46e0749141fa","survey-html-form",12,443030,"0.0-308.0","qozl7bm4nd45Eix4IzQ28V8YqiKJU820fUZEeYFG0WeBjsll9uywS11ZYGs4FA6tINWzrukupvxQrPC+x9lwLeyhZ6/fMxurHqBJ8EazEnRLIKRVeORk5gChFmjQCOvYpYU1SEx6FqVks35OaJhPOAee15Bqhq8F7C+m9PBaPm4xO0sMXn1o04luuJMOppljPQDw565MBBsyp82blki5zxm7xIb3q6Pfu5fAYReDiGmN6M8dHINWSx92IDyrd29J8vOodUe4rFdobAeNhEogAeuicww9xoaTpdy9nvVJ5n7fjgt0iG8A7PuKL0QOitfaD2eOnIrD08GitVSZWXZpbw==","691f8ca61c6b4dcbb0aeb5f4","691fbe5b707d46e0749141fa","index1","<span style='color:red'>Fail,<span style='color:red'>Fail,<span style='color:green'>Lift,<span style='color:green'>Lift,<span style='color:red'>Fail,<span style='color:red'>Fail,<span style='color:red'>Fail,<span style='color:red'>Fail,<span style='color:green'>Lift,<span style='color:red'>Fail,<span style='color:green'>Lift,<span style='color:red'>Fail","<span style='color:red'>Fail,<span style='color:red'>Fail,<span style='color:green'>Lift,<span style='color:green'>Lift,<span style='color:green'>Lift,<span style='color:green'>Lift,<span style='color:red'>Fail,<span style='color:green'>Lift,<span style='color:green'>Lift,<span style='color:green'>Lift,<span style='color:green'>Lift,<span style='color:red'>Fail","<span style='color:red'>Fail,<span style='color:green'>Lift,<span style='color:green'>Lift,<span style='color:red'>Fail,<span style='color:green'>Lift,<span style='color:green'>Lift","0,0,1,1,0,0,0,0,1,0,1,0","0,0,1,1,1,1,0,1,1,1,1,0","0,1,1,0,1,1",10,20,20,"","","","","{""box1"":""5"",""box2"":""5""}","",NA,1,"round1_outcome",1,1,1,5,5,NA,NA,0,0,10,5,5,NA,NA,0,0,10,NA,NA,NA,NA,NA,NA,NA,NA,NA,NA,NA,NA,NA,NA,NA,NA,NA,NA,NA,NA,NA,NA,"",NA,NA,NA,NA,NA,NA,NA,NA,2025-11-21 01:39:47
"19281.5","https://psyc-201.github.io/xiang2023/exp/index1.html?PROLIFIC_PID=REDACTED&STUDY_ID=691f8ca61c6b4dcbb0aeb5f4&SESSION_ID=691fbe5b707d46e0749141fa","survey-html-form",13,462317,"0.0-309.0","qozl7bm4nd45Eix4IzQ28V8YqiKJU820fUZEeYFG0WeBjsll9uywS11ZYGs4FA6tINWzrukupvxQrPC+x9lwLeyhZ6/fMxurHqBJ8EazEnRLIKRVeORk5gChFmjQCOvYpYU1SEx6FqVks35OaJhPOAee15Bqhq8F7C+m9PBaPm4xO0sMXn1o04luuJMOppljPQDw565MBBsyp82blki5zxm7xIb3q6Pfu5fAYReDiGmN6M8dHINWSx92IDyrd29J8vOodUe4rFdobAeNhEogAeuicww9xoaTpdy9nvVJ5n7fjgt0iG8A7PuKL0QOitfaD2eOnIrD08GitVSZWXZpbw==","691f8ca61c6b4dcbb0aeb5f4","691fbe5b707d46e0749141fa","index1","<span style='color:red'>Fail,<span style='color:red'>Fail,<span style='color:green'>Lift,<span style='color:green'>Lift,<span style='color:red'>Fail,<span style='color:red'>Fail,<span style='color:red'>Fail,<span style='color:red'>Fail,<span style='color:green'>Lift,<span style='color:red'>Fail,<span style='color:green'>Lift,<span style='color:red'>Fail","<span style='color:red'>Fail,<span style='color:red'>Fail,<span style='color:green'>Lift,<span style='color:green'>Lift,<span style='color:green'>Lift,<span style='color:green'>Lift,<span style='color:red'>Fail,<span style='color:green'>Lift,<span style='color:green'>Lift,<span style='color:green'>Lift,<span style='color:green'>Lift,<span style='color:red'>Fail","<span style='color:red'>Fail,<span style='color:green'>Lift,<span style='color:green'>Lift,<span style='color:red'>Fail,<span style='color:green'>Lift,<span style='color:green'>Lift","0,0,1,1,0,0,0,0,1,0,1,0","0,0,1,1,1,1,0,1,1,1,1,0","0,1,1,0,1,1",10,20,20,"","","","","{""box1"":""90"",""box2"":""90""}","",NA,1,"round2_ready",2,1,2,NA,NA,NA,NA,NA,NA,NA,NA,NA,NA,NA,NA,NA,NA,90,90,90,90,NA,NA,NA,NA,NA,NA,NA,NA,NA,NA,NA,NA,NA,NA,NA,NA,NA,NA,"",NA,NA,NA,NA,NA,NA,NA,NA,2025-11-21 01:39:47
"18177.59999999404","https://psyc-201.github.io/xiang2023/exp/index1.html?PROLIFIC_PID=REDACTED&STUDY_ID=691f8ca61c6b4dcbb0aeb5f4&SESSION_ID=691fbe5b707d46e0749141fa","survey-html-form",14,480501,"0.0-310.0","qozl7bm4nd45Eix4IzQ28V8YqiKJU820fUZEeYFG0WeBjsll9uywS11ZYGs4FA6tINWzrukupvxQrPC+x9lwLeyhZ6/fMxurHqBJ8EazEnRLIKRVeORk5gChFmjQCOvYpYU1SEx6FqVks35OaJhPOAee15Bqhq8F7C+m9PBaPm4xO0sMXn1o04luuJMOppljPQDw565MBBsyp82blki5zxm7xIb3q6Pfu5fAYReDiGmN6M8dHINWSx92IDyrd29J8vOodUe4rFdobAeNhEogAeuicww9xoaTpdy9nvVJ5n7fjgt0iG8A7PuKL0QOitfaD2eOnIrD08GitVSZWXZpbw==","691f8ca61c6b4dcbb0aeb5f4","691fbe5b707d46e0749141fa","index1","<span style='color:red'>Fail,<span style='color:red'>Fail,<span style='color:green'>Lift,<span style='color:green'>Lift,<span style='color:red'>Fail,<span style='color:red'>Fail,<span style='color:red'>Fail,<span style='color:red'>Fail,<span style='color:green'>Lift,<span style='color:red'>Fail,<span style='color:green'>Lift,<span style='color:red'>Fail","<span style='color:red'>Fail,<span style='color:red'>Fail,<span style='color:green'>Lift,<span style='color:green'>Lift,<span style='color:green'>Lift,<span style='color:green'>Lift,<span style='color:red'>Fail,<span style='color:green'>Lift,<span style='color:green'>Lift,<span style='color:green'>Lift,<span style='color:green'>Lift,<span style='color:red'>Fail","<span style='color:red'>Fail,<span style='color:green'>Lift,<span style='color:green'>Lift,<span style='color:red'>Fail,<span style='color:green'>Lift,<span style='color:green'>Lift","0,0,1,1,0,0,0,0,1,0,1,0","0,0,1,1,1,1,0,1,1,1,1,0","0,1,1,0,1,1",10,20,20,"","","","","{""box1"":""5"",""box2"":""5""}","",NA,1,"round2_outcome",3,1,2,5,5,NA,NA,0,0,20,NA,NA,NA,NA,NA,NA,NA,NA,NA,NA,NA,5,5,NA,NA,0,0,20,NA,NA,NA,NA,NA,NA,NA,NA,NA,NA,NA,"",NA,NA,NA,NA,NA,NA,NA,NA,2025-11-21 01:39:47
"12899.199999988079","https://psyc-201.github.io/xiang2023/exp/index1.html?PROLIFIC_PID=REDACTED&STUDY_ID=691f8ca61c6b4dcbb0aeb5f4&SESSION_ID=691fbe5b707d46e0749141fa","survey-html-form",15,493405,"0.0-311.0","qozl7bm4nd45Eix4IzQ28V8YqiKJU820fUZEeYFG0WeBjsll9uywS11ZYGs4FA6tINWzrukupvxQrPC+x9lwLeyhZ6/fMxurHqBJ8EazEnRLIKRVeORk5gChFmjQCOvYpYU1SEx6FqVks35OaJhPOAee15Bqhq8F7C+m9PBaPm4xO0sMXn1o04luuJMOppljPQDw565MBBsyp82blki5zxm7xIb3q6Pfu5fAYReDiGmN6M8dHINWSx92IDyrd29J8vOodUe4rFdobAeNhEogAeuicww9xoaTpdy9nvVJ5n7fjgt0iG8A7PuKL0QOitfaD2eOnIrD08GitVSZWXZpbw==","691f8ca61c6b4dcbb0aeb5f4","691fbe5b707d46e0749141fa","index1","<span style='color:red'>Fail,<span style='color:red'>Fail,<span style='color:green'>Lift,<span style='color:green'>Lift,<span style='color:red'>Fail,<span style='color:red'>Fail,<span style='color:red'>Fail,<span style='color:red'>Fail,<span style='color:green'>Lift,<span style='color:red'>Fail,<span style='color:green'>Lift,<span style='color:red'>Fail","<span style='color:red'>Fail,<span style='color:red'>Fail,<span style='color:green'>Lift,<span style='color:green'>Lift,<span style='color:green'>Lift,<span style='color:green'>Lift,<span style='color:red'>Fail,<span style='color:green'>Lift,<span style='color:green'>Lift,<span style='color:green'>Lift,<span style='color:green'>Lift,<span style='color:red'>Fail","<span style='color:red'>Fail,<span style='color:green'>Lift,<span style='color:green'>Lift,<span style='color:red'>Fail,<span style='color:green'>Lift,<span style='color:green'>Lift","0,0,1,1,0,0,0,0,1,0,1,0","0,0,1,1,1,1,0,1,1,1,1,0","0,1,1,0,1,1",10,20,20,"","","","","{""box1"":""95""}","",NA,1,"round3_ready",4,1,3,NA,NA,NA,NA,NA,NA,NA,NA,NA,NA,NA,NA,NA,NA,95,95,NA,NA,NA,NA,NA,NA,NA,NA,NA,95,95,NA,NA,NA,NA,NA,NA,NA,NA,NA,"",NA,NA,NA,NA,NA,NA,NA,NA,2025-11-21 01:39:47
"32649.09999999404","https://psyc-201.github.io/xiang2023/exp/index1.html?PROLIFIC_PID=REDACTED&STUDY_ID=691f8ca61c6b4dcbb0aeb5f4&SESSION_ID=691fbe5b707d46e0749141fa","survey-html-form",16,526061,"0.0-313.0-0.0","qozl7bm4nd45Eix4IzQ28V8YqiKJU820fUZEeYFG0WeBjsll9uywS11ZYGs4FA6tINWzrukupvxQrPC+x9lwLeyhZ6/fMxurHqBJ8EazEnRLIKRVeORk5gChFmjQCOvYpYU1SEx6FqVks35OaJhPOAee15Bqhq8F7C+m9PBaPm4xO0sMXn1o04luuJMOppljPQDw565MBBsyp82blki5zxm7xIb3q6Pfu5fAYReDiGmN6M8dHINWSx92IDyrd29J8vOodUe4rFdobAeNhEogAeuicww9xoaTpdy9nvVJ5n7fjgt0iG8A7PuKL0QOitfaD2eOnIrD08GitVSZWXZpbw==","691f8ca61c6b4dcbb0aeb5f4","691fbe5b707d46e0749141fa","index1","<span style='color:red'>Fail,<span style='color:red'>Fail,<span style='color:green'>Lift,<span style='color:green'>Lift,<span style='color:red'>Fail,<span style='color:red'>Fail,<span style='color:red'>Fail,<span style='color:red'>Fail,<span style='color:green'>Lift,<span style='color:red'>Fail,<span style='color:green'>Lift,<span style='color:red'>Fail","<span style='color:red'>Fail,<span style='color:red'>Fail,<span style='color:green'>Lift,<span style='color:green'>Lift,<span style='color:green'>Lift,<span style='color:green'>Lift,<span style='color:red'>Fail,<span style='color:green'>Lift,<span style='color:green'>Lift,<span style='color:green'>Lift,<span style='color:green'>Lift,<span style='color:red'>Fail","<span style='color:red'>Fail,<span style='color:green'>Lift,<span style='color:green'>Lift,<span style='color:red'>Fail,<span style='color:green'>Lift,<span style='color:green'>Lift","0,0,1,1,0,0,0,0,1,0,1,0","0,0,1,1,1,1,0,1,1,1,1,0","0,1,1,0,1,1",10,20,20,"","","","","{""box1"":""3"",""box2"":""3"",""box3"":""999"",""box4"":""999""}","",NA,2,"round3_fail",5,1,3,3,3,NA,NA,0,0,20,NA,NA,NA,NA,NA,NA,NA,NA,NA,NA,NA,NA,NA,NA,NA,NA,NA,NA,NA,NA,1,1,3,3,0,0,20,NA,NA,"",NA,NA,NA,NA,NA,NA,NA,NA,2025-11-21 01:39:47
"null","https://psyc-201.github.io/xiang2023/exp/index1.html?PROLIFIC_PID=REDACTED&STUDY_ID=691f8ca61c6b4dcbb0aeb5f4&SESSION_ID=691fbe5b707d46e0749141fa","html-keyboard-response",17,529077,"0.0-316.0","qozl7bm4nd45Eix4IzQ28V8YqiKJU820fUZEeYFG0WeBjsll9uywS11ZYGs4FA6tINWzrukupvxQrPC+x9lwLeyhZ6/fMxurHqBJ8EazEnRLIKRVeORk5gChFmjQCOvYpYU1SEx6FqVks35OaJhPOAee15Bqhq8F7C+m9PBaPm4xO0sMXn1o04luuJMOppljPQDw565MBBsyp82blki5zxm7xIb3q6Pfu5fAYReDiGmN6M8dHINWSx92IDyrd29J8vOodUe4rFdobAeNhEogAeuicww9xoaTpdy9nvVJ5n7fjgt0iG8A7PuKL0QOitfaD2eOnIrD08GitVSZWXZpbw==","691f8ca61c6b4dcbb0aeb5f4","691fbe5b707d46e0749141fa","index1","<span style='color:red'>Fail,<span style='color:red'>Fail,<span style='color:green'>Lift,<span style='color:green'>Lift,<span style='color:red'>Fail,<span style='color:red'>Fail,<span style='color:red'>Fail,<span style='color:red'>Fail,<span style='color:green'>Lift,<span style='color:red'>Fail,<span style='color:green'>Lift,<span style='color:red'>Fail","<span style='color:red'>Fail,<span style='color:red'>Fail,<span style='color:green'>Lift,<span style='color:green'>Lift,<span style='color:green'>Lift,<span style='color:green'>Lift,<span style='color:red'>Fail,<span style='color:green'>Lift,<span style='color:green'>Lift,<span style='color:green'>Lift,<span style='color:green'>Lift,<span style='color:red'>Fail","<span style='color:red'>Fail,<span style='color:green'>Lift,<span style='color:green'>Lift,<span style='color:red'>Fail,<span style='color:green'>Lift,<span style='color:green'>Lift","0,0,1,1,0,0,0,0,1,0,1,0","0,0,1,1,1,1,0,1,1,1,1,0","0,1,1,0,1,1",10,20,20,"","","<p style='font-size:30px'><b> New Contest! </b></p>","null","","",NA,2,"",NA,NA,NA,NA,NA,NA,NA,NA,NA,NA,NA,NA,NA,NA,NA,NA,NA,NA,NA,NA,NA,NA,NA,NA,NA,NA,NA,NA,NA,NA,NA,NA,NA,NA,NA,NA,NA,NA,NA,"",NA,NA,NA,NA,NA,NA,NA,NA,2025-11-21 01:39:47
"24332","https://psyc-201.github.io/xiang2023/exp/index1.html?PROLIFIC_PID=REDACTED&STUDY_ID=691f8ca61c6b4dcbb0aeb5f4&SESSION_ID=691fbe5b707d46e0749141fa","survey-html-form",18,553413,"0.0-317.0","qozl7bm4nd45Eix4IzQ28V8YqiKJU820fUZEeYFG0WeBjsll9uywS11ZYGs4FA6tINWzrukupvxQrPC+x9lwLeyhZ6/fMxurHqBJ8EazEnRLIKRVeORk5gChFmjQCOvYpYU1SEx6FqVks35OaJhPOAee15Bqhq8F7C+m9PBaPm4xO0sMXn1o04luuJMOppljPQDw565MBBsyp82blki5zxm7xIb3q6Pfu5fAYReDiGmN6M8dHINWSx92IDyrd29J8vOodUe4rFdobAeNhEogAeuicww9xoaTpdy9nvVJ5n7fjgt0iG8A7PuKL0QOitfaD2eOnIrD08GitVSZWXZpbw==","691f8ca61c6b4dcbb0aeb5f4","691fbe5b707d46e0749141fa","index1","<span style='color:red'>Fail,<span style='color:red'>Fail,<span style='color:green'>Lift,<span style='color:green'>Lift,<span style='color:red'>Fail,<span style='color:red'>Fail,<span style='color:red'>Fail,<span style='color:red'>Fail,<span style='color:green'>Lift,<span style='color:red'>Fail,<span style='color:green'>Lift,<span style='color:red'>Fail","<span style='color:red'>Fail,<span style='color:red'>Fail,<span style='color:green'>Lift,<span style='color:green'>Lift,<span style='color:green'>Lift,<span style='color:green'>Lift,<span style='color:red'>Fail,<span style='color:green'>Lift,<span style='color:green'>Lift,<span style='color:green'>Lift,<span style='color:green'>Lift,<span style='color:red'>Fail","<span style='color:red'>Fail,<span style='color:green'>Lift,<span style='color:green'>Lift,<span style='color:red'>Fail,<span style='color:green'>Lift,<span style='color:green'>Lift","0,0,1,1,0,0,0,0,1,0,1,0","0,0,1,1,1,1,0,1,1,1,1,0","0,1,1,0,1,1",10,20,20,"","","","","{""box1"":""3"",""box2"":""4""}","",NA,2,"round1_outcome",1,2,1,3,4,NA,NA,0,0,10,3,4,NA,NA,0,0,10,NA,NA,NA,NA,NA,NA,NA,NA,NA,NA,NA,NA,NA,NA,NA,NA,NA,NA,NA,NA,NA,NA,"",NA,NA,NA,NA,NA,NA,NA,NA,2025-11-21 01:39:47
"20379.5","https://psyc-201.github.io/xiang2023/exp/index1.html?PROLIFIC_PID=REDACTED&STUDY_ID=691f8ca61c6b4dcbb0aeb5f4&SESSION_ID=691fbe5b707d46e0749141fa","survey-html-form",19,573797,"0.0-318.0","qozl7bm4nd45Eix4IzQ28V8YqiKJU820fUZEeYFG0WeBjsll9uywS11ZYGs4FA6tINWzrukupvxQrPC+x9lwLeyhZ6/fMxurHqBJ8EazEnRLIKRVeORk5gChFmjQCOvYpYU1SEx6FqVks35OaJhPOAee15Bqhq8F7C+m9PBaPm4xO0sMXn1o04luuJMOppljPQDw565MBBsyp82blki5zxm7xIb3q6Pfu5fAYReDiGmN6M8dHINWSx92IDyrd29J8vOodUe4rFdobAeNhEogAeuicww9xoaTpdy9nvVJ5n7fjgt0iG8A7PuKL0QOitfaD2eOnIrD08GitVSZWXZpbw==","691f8ca61c6b4dcbb0aeb5f4","691fbe5b707d46e0749141fa","index1","<span style='color:red'>Fail,<span style='color:red'>Fail,<span style='color:green'>Lift,<span style='color:green'>Lift,<span style='color:red'>Fail,<span style='color:red'>Fail,<span style='color:red'>Fail,<span style='color:red'>Fail,<span style='color:green'>Lift,<span style='color:red'>Fail,<span style='color:green'>Lift,<span style='color:red'>Fail","<span style='color:red'>Fail,<span style='color:red'>Fail,<span style='color:green'>Lift,<span style='color:green'>Lift,<span style='color:green'>Lift,<span style='color:green'>Lift,<span style='color:red'>Fail,<span style='color:green'>Lift,<span style='color:green'>Lift,<span style='color:green'>Lift,<span style='color:green'>Lift,<span style='color:red'>Fail","<span style='color:red'>Fail,<span style='color:green'>Lift,<span style='color:green'>Lift,<span style='color:red'>Fail,<span style='color:green'>Lift,<span style='color:green'>Lift","0,0,1,1,0,0,0,0,1,0,1,0","0,0,1,1,1,1,0,1,1,1,1,0","0,1,1,0,1,1",10,20,20,"","","","","{""box1"":""75"",""box2"":""95""}","",NA,2,"round2_ready",2,2,2,NA,NA,NA,NA,NA,NA,NA,NA,NA,NA,NA,NA,NA,NA,75,95,75,95,NA,NA,NA,NA,NA,NA,NA,NA,NA,NA,NA,NA,NA,NA,NA,NA,NA,NA,"",NA,NA,NA,NA,NA,NA,NA,NA,2025-11-21 01:39:47
"56578.40000000596","https://psyc-201.github.io/xiang2023/exp/index1.html?PROLIFIC_PID=REDACTED&STUDY_ID=691f8ca61c6b4dcbb0aeb5f4&SESSION_ID=691fbe5b707d46e0749141fa","survey-html-form",20,630383,"0.0-319.0","qozl7bm4nd45Eix4IzQ28V8YqiKJU820fUZEeYFG0WeBjsll9uywS11ZYGs4FA6tINWzrukupvxQrPC+x9lwLeyhZ6/fMxurHqBJ8EazEnRLIKRVeORk5gChFmjQCOvYpYU1SEx6FqVks35OaJhPOAee15Bqhq8F7C+m9PBaPm4xO0sMXn1o04luuJMOppljPQDw565MBBsyp82blki5zxm7xIb3q6Pfu5fAYReDiGmN6M8dHINWSx92IDyrd29J8vOodUe4rFdobAeNhEogAeuicww9xoaTpdy9nvVJ5n7fjgt0iG8A7PuKL0QOitfaD2eOnIrD08GitVSZWXZpbw==","691f8ca61c6b4dcbb0aeb5f4","691fbe5b707d46e0749141fa","index1","<span style='color:red'>Fail,<span style='color:red'>Fail,<span style='color:green'>Lift,<span style='color:green'>Lift,<span style='color:red'>Fail,<span style='color:red'>Fail,<span style='color:red'>Fail,<span style='color:red'>Fail,<span style='color:green'>Lift,<span style='color:red'>Fail,<span style='color:green'>Lift,<span style='color:red'>Fail","<span style='color:red'>Fail,<span style='color:red'>Fail,<span style='color:green'>Lift,<span style='color:green'>Lift,<span style='color:green'>Lift,<span style='color:green'>Lift,<span style='color:red'>Fail,<span style='color:green'>Lift,<span style='color:green'>Lift,<span style='color:green'>Lift,<span style='color:green'>Lift,<span style='color:red'>Fail","<span style='color:red'>Fail,<span style='color:green'>Lift,<span style='color:green'>Lift,<span style='color:red'>Fail,<span style='color:green'>Lift,<span style='color:green'>Lift","0,0,1,1,0,0,0,0,1,0,1,0","0,0,1,1,1,1,0,1,1,1,1,0","0,1,1,0,1,1",10,20,20,"","","","","{""box1"":""7"",""box2"":""9"",""box4"":""99""}","",NA,2,"round2_outcome",3,2,2,7,9,NA,99,0,1,20,NA,NA,NA,NA,NA,NA,NA,NA,NA,NA,NA,7,9,NA,99,0,1,20,NA,NA,NA,NA,NA,NA,NA,NA,NA,NA,NA,"",NA,NA,NA,NA,NA,NA,NA,NA,2025-11-21 01:39:47
"37365.19999998808","https://psyc-201.github.io/xiang2023/exp/index1.html?PROLIFIC_PID=REDACTED&STUDY_ID=691f8ca61c6b4dcbb0aeb5f4&SESSION_ID=691fbe5b707d46e0749141fa","survey-html-form",21,667752,"0.0-320.0","qozl7bm4nd45Eix4IzQ28V8YqiKJU820fUZEeYFG0WeBjsll9uywS11ZYGs4FA6tINWzrukupvxQrPC+x9lwLeyhZ6/fMxurHqBJ8EazEnRLIKRVeORk5gChFmjQCOvYpYU1SEx6FqVks35OaJhPOAee15Bqhq8F7C+m9PBaPm4xO0sMXn1o04luuJMOppljPQDw565MBBsyp82blki5zxm7xIb3q6Pfu5fAYReDiGmN6M8dHINWSx92IDyrd29J8vOodUe4rFdobAeNhEogAeuicww9xoaTpdy9nvVJ5n7fjgt0iG8A7PuKL0QOitfaD2eOnIrD08GitVSZWXZpbw==","691f8ca61c6b4dcbb0aeb5f4","691fbe5b707d46e0749141fa","index1","<span style='color:red'>Fail,<span style='color:red'>Fail,<span style='color:green'>Lift,<span style='color:green'>Lift,<span style='color:red'>Fail,<span style='color:red'>Fail,<span style='color:red'>Fail,<span style='color:red'>Fail,<span style='color:green'>Lift,<span style='color:red'>Fail,<span style='color:green'>Lift,<span style='color:red'>Fail","<span style='color:red'>Fail,<span style='color:red'>Fail,<span style='color:green'>Lift,<span style='color:green'>Lift,<span style='color:green'>Lift,<span style='color:green'>Lift,<span style='color:red'>Fail,<span style='color:green'>Lift,<span style='color:green'>Lift,<span style='color:green'>Lift,<span style='color:green'>Lift,<span style='color:red'>Fail","<span style='color:red'>Fail,<span style='color:green'>Lift,<span style='color:green'>Lift,<span style='color:red'>Fail,<span style='color:green'>Lift,<span style='color:green'>Lift","0,0,1,1,0,0,0,0,1,0,1,0","0,0,1,1,1,1,0,1,1,1,1,0","0,1,1,0,1,1",10,20,20,"","","","","{""box1"":""45""}","",NA,2,"round3_ready",4,2,3,NA,NA,NA,NA,NA,NA,NA,NA,NA,NA,NA,NA,NA,NA,45,45,NA,NA,NA,NA,NA,NA,NA,NA,NA,45,45,NA,NA,NA,NA,NA,NA,NA,NA,NA,"",NA,NA,NA,NA,NA,NA,NA,NA,2025-11-21 01:39:47
"23572","https://psyc-201.github.io/xiang2023/exp/index1.html?PROLIFIC_PID=REDACTED&STUDY_ID=691f8ca61c6b4dcbb0aeb5f4&SESSION_ID=691fbe5b707d46e0749141fa","survey-html-form",22,691329,"0.0-322.0-0.0","qozl7bm4nd45Eix4IzQ28V8YqiKJU820fUZEeYFG0WeBjsll9uywS11ZYGs4FA6tINWzrukupvxQrPC+x9lwLeyhZ6/fMxurHqBJ8EazEnRLIKRVeORk5gChFmjQCOvYpYU1SEx6FqVks35OaJhPOAee15Bqhq8F7C+m9PBaPm4xO0sMXn1o04luuJMOppljPQDw565MBBsyp82blki5zxm7xIb3q6Pfu5fAYReDiGmN6M8dHINWSx92IDyrd29J8vOodUe4rFdobAeNhEogAeuicww9xoaTpdy9nvVJ5n7fjgt0iG8A7PuKL0QOitfaD2eOnIrD08GitVSZWXZpbw==","691f8ca61c6b4dcbb0aeb5f4","691fbe5b707d46e0749141fa","index1","<span style='color:red'>Fail,<span style='color:red'>Fail,<span style='color:green'>Lift,<span style='color:green'>Lift,<span style='color:red'>Fail,<span style='color:red'>Fail,<span style='color:red'>Fail,<span style='color:red'>Fail,<span style='color:green'>Lift,<span style='color:red'>Fail,<span style='color:green'>Lift,<span style='color:red'>Fail","<span style='color:red'>Fail,<span style='color:red'>Fail,<span style='color:green'>Lift,<span style='color:green'>Lift,<span style='color:green'>Lift,<span style='color:green'>Lift,<span style='color:red'>Fail,<span style='color:green'>Lift,<span style='color:green'>Lift,<span style='color:green'>Lift,<span style='color:green'>Lift,<span style='color:red'>Fail","<span style='color:red'>Fail,<span style='color:green'>Lift,<span style='color:green'>Lift,<span style='color:red'>Fail,<span style='color:green'>Lift,<span style='color:green'>Lift","0,0,1,1,0,0,0,0,1,0,1,0","0,0,1,1,1,1,0,1,1,1,1,0","0,1,1,0,1,1",10,20,20,"","","","","{""box1"":""3"",""box2"":""8"",""box3"":""999"",""box4"":""999""}","",NA,3,"round3_fail",5,2,3,3,8,NA,NA,0,0,20,NA,NA,NA,NA,NA,NA,NA,NA,NA,NA,NA,NA,NA,NA,NA,NA,NA,NA,NA,NA,1,1,3,8,0,0,20,NA,NA,"",NA,NA,NA,NA,NA,NA,NA,NA,2025-11-21 01:39:47
"null","https://psyc-201.github.io/xiang2023/exp/index1.html?PROLIFIC_PID=REDACTED&STUDY_ID=691f8ca61c6b4dcbb0aeb5f4&SESSION_ID=691fbe5b707d46e0749141fa","html-keyboard-response",23,694334,"0.0-325.0","qozl7bm4nd45Eix4IzQ28V8YqiKJU820fUZEeYFG0WeBjsll9uywS11ZYGs4FA6tINWzrukupvxQrPC+x9lwLeyhZ6/fMxurHqBJ8EazEnRLIKRVeORk5gChFmjQCOvYpYU1SEx6FqVks35OaJhPOAee15Bqhq8F7C+m9PBaPm4xO0sMXn1o04luuJMOppljPQDw565MBBsyp82blki5zxm7xIb3q6Pfu5fAYReDiGmN6M8dHINWSx92IDyrd29J8vOodUe4rFdobAeNhEogAeuicww9xoaTpdy9nvVJ5n7fjgt0iG8A7PuKL0QOitfaD2eOnIrD08GitVSZWXZpbw==","691f8ca61c6b4dcbb0aeb5f4","691fbe5b707d46e0749141fa","index1","<span style='color:red'>Fail,<span style='color:red'>Fail,<span style='color:green'>Lift,<span style='color:green'>Lift,<span style='color:red'>Fail,<span style='color:red'>Fail,<span style='color:red'>Fail,<span style='color:red'>Fail,<span style='color:green'>Lift,<span style='color:red'>Fail,<span style='color:green'>Lift,<span style='color:red'>Fail","<span style='color:red'>Fail,<span style='color:red'>Fail,<span style='color:green'>Lift,<span style='color:green'>Lift,<span style='color:green'>Lift,<span style='color:green'>Lift,<span style='color:red'>Fail,<span style='color:green'>Lift,<span style='color:green'>Lift,<span style='color:green'>Lift,<span style='color:green'>Lift,<span style='color:red'>Fail","<span style='color:red'>Fail,<span style='color:green'>Lift,<span style='color:green'>Lift,<span style='color:red'>Fail,<span style='color:green'>Lift,<span style='color:green'>Lift","0,0,1,1,0,0,0,0,1,0,1,0","0,0,1,1,1,1,0,1,1,1,1,0","0,1,1,0,1,1",10,20,20,"","","<p style='font-size:30px'><b> New Contest! </b></p>","null","","",NA,3,"",NA,NA,NA,NA,NA,NA,NA,NA,NA,NA,NA,NA,NA,NA,NA,NA,NA,NA,NA,NA,NA,NA,NA,NA,NA,NA,NA,NA,NA,NA,NA,NA,NA,NA,NA,NA,NA,NA,NA,"",NA,NA,NA,NA,NA,NA,NA,NA,2025-11-21 01:39:47
"20635.79999998212","https://psyc-201.github.io/xiang2023/exp/index1.html?PROLIFIC_PID=REDACTED&STUDY_ID=691f8ca61c6b4dcbb0aeb5f4&SESSION_ID=691fbe5b707d46e0749141fa","survey-html-form",24,714973,"0.0-326.0","qozl7bm4nd45Eix4IzQ28V8YqiKJU820fUZEeYFG0WeBjsll9uywS11ZYGs4FA6tINWzrukupvxQrPC+x9lwLeyhZ6/fMxurHqBJ8EazEnRLIKRVeORk5gChFmjQCOvYpYU1SEx6FqVks35OaJhPOAee15Bqhq8F7C+m9PBaPm4xO0sMXn1o04luuJMOppljPQDw565MBBsyp82blki5zxm7xIb3q6Pfu5fAYReDiGmN6M8dHINWSx92IDyrd29J8vOodUe4rFdobAeNhEogAeuicww9xoaTpdy9nvVJ5n7fjgt0iG8A7PuKL0QOitfaD2eOnIrD08GitVSZWXZpbw==","691f8ca61c6b4dcbb0aeb5f4","691fbe5b707d46e0749141fa","index1","<span style='color:red'>Fail,<span style='color:red'>Fail,<span style='color:green'>Lift,<span style='color:green'>Lift,<span style='color:red'>Fail,<span style='color:red'>Fail,<span style='color:red'>Fail,<span style='color:red'>Fail,<span style='color:green'>Lift,<span style='color:red'>Fail,<span style='color:green'>Lift,<span style='color:red'>Fail","<span style='color:red'>Fail,<span style='color:red'>Fail,<span style='color:green'>Lift,<span style='color:green'>Lift,<span style='color:green'>Lift,<span style='color:green'>Lift,<span style='color:red'>Fail,<span style='color:green'>Lift,<span style='color:green'>Lift,<span style='color:green'>Lift,<span style='color:green'>Lift,<span style='color:red'>Fail","<span style='color:red'>Fail,<span style='color:green'>Lift,<span style='color:green'>Lift,<span style='color:red'>Fail,<span style='color:green'>Lift,<span style='color:green'>Lift","0,0,1,1,0,0,0,0,1,0,1,0","0,0,1,1,1,1,0,1,1,1,1,0","0,1,1,0,1,1",10,20,20,"","","","","{""box1"":""8"",""box2"":""8"",""box3"":""80"",""box4"":""80""}","",NA,3,"round1_outcome",1,3,1,8,8,80,80,1,1,10,8,8,80,80,1,1,10,NA,NA,NA,NA,NA,NA,NA,NA,NA,NA,NA,NA,NA,NA,NA,NA,NA,NA,NA,NA,NA,NA,"",NA,NA,NA,NA,NA,NA,NA,NA,2025-11-21 01:39:47
"13418.200000017881","https://psyc-201.github.io/xiang2023/exp/index1.html?PROLIFIC_PID=REDACTED&STUDY_ID=691f8ca61c6b4dcbb0aeb5f4&SESSION_ID=691fbe5b707d46e0749141fa","survey-html-form",25,728396,"0.0-327.0","qozl7bm4nd45Eix4IzQ28V8YqiKJU820fUZEeYFG0WeBjsll9uywS11ZYGs4FA6tINWzrukupvxQrPC+x9lwLeyhZ6/fMxurHqBJ8EazEnRLIKRVeORk5gChFmjQCOvYpYU1SEx6FqVks35OaJhPOAee15Bqhq8F7C+m9PBaPm4xO0sMXn1o04luuJMOppljPQDw565MBBsyp82blki5zxm7xIb3q6Pfu5fAYReDiGmN6M8dHINWSx92IDyrd29J8vOodUe4rFdobAeNhEogAeuicww9xoaTpdy9nvVJ5n7fjgt0iG8A7PuKL0QOitfaD2eOnIrD08GitVSZWXZpbw==","691f8ca61c6b4dcbb0aeb5f4","691fbe5b707d46e0749141fa","index1","<span style='color:red'>Fail,<span style='color:red'>Fail,<span style='color:green'>Lift,<span style='color:green'>Lift,<span style='color:red'>Fail,<span style='color:red'>Fail,<span style='color:red'>Fail,<span style='color:red'>Fail,<span style='color:green'>Lift,<span style='color:red'>Fail,<span style='color:green'>Lift,<span style='color:red'>Fail","<span style='color:red'>Fail,<span style='color:red'>Fail,<span style='color:green'>Lift,<span style='color:green'>Lift,<span style='color:green'>Lift,<span style='color:green'>Lift,<span style='color:red'>Fail,<span style='color:green'>Lift,<span style='color:green'>Lift,<span style='color:green'>Lift,<span style='color:green'>Lift,<span style='color:red'>Fail","<span style='color:red'>Fail,<span style='color:green'>Lift,<span style='color:green'>Lift,<span style='color:red'>Fail,<span style='color:green'>Lift,<span style='color:green'>Lift","0,0,1,1,0,0,0,0,1,0,1,0","0,0,1,1,1,1,0,1,1,1,1,0","0,1,1,0,1,1",10,20,20,"","","","","{""box1"":""95"",""box2"":""95""}","",NA,3,"round2_ready",2,3,2,NA,NA,NA,NA,NA,NA,NA,NA,NA,NA,NA,NA,NA,NA,95,95,95,95,NA,NA,NA,NA,NA,NA,NA,NA,NA,NA,NA,NA,NA,NA,NA,NA,NA,NA,"",NA,NA,NA,NA,NA,NA,NA,NA,2025-11-21 01:39:47
"17835.40000000596","https://psyc-201.github.io/xiang2023/exp/index1.html?PROLIFIC_PID=REDACTED&STUDY_ID=691f8ca61c6b4dcbb0aeb5f4&SESSION_ID=691fbe5b707d46e0749141fa","survey-html-form",26,746236,"0.0-328.0","qozl7bm4nd45Eix4IzQ28V8YqiKJU820fUZEeYFG0WeBjsll9uywS11ZYGs4FA6tINWzrukupvxQrPC+x9lwLeyhZ6/fMxurHqBJ8EazEnRLIKRVeORk5gChFmjQCOvYpYU1SEx6FqVks35OaJhPOAee15Bqhq8F7C+m9PBaPm4xO0sMXn1o04luuJMOppljPQDw565MBBsyp82blki5zxm7xIb3q6Pfu5fAYReDiGmN6M8dHINWSx92IDyrd29J8vOodUe4rFdobAeNhEogAeuicww9xoaTpdy9nvVJ5n7fjgt0iG8A7PuKL0QOitfaD2eOnIrD08GitVSZWXZpbw==","691f8ca61c6b4dcbb0aeb5f4","691fbe5b707d46e0749141fa","index1","<span style='color:red'>Fail,<span style='color:red'>Fail,<span style='color:green'>Lift,<span style='color:green'>Lift,<span style='color:red'>Fail,<span style='color:red'>Fail,<span style='color:red'>Fail,<span style='color:red'>Fail,<span style='color:green'>Lift,<span style='color:red'>Fail,<span style='color:green'>Lift,<span style='color:red'>Fail","<span style='color:red'>Fail,<span style='color:red'>Fail,<span style='color:green'>Lift,<span style='color:green'>Lift,<span style='color:green'>Lift,<span style='color:green'>Lift,<span style='color:red'>Fail,<span style='color:green'>Lift,<span style='color:green'>Lift,<span style='color:green'>Lift,<span style='color:green'>Lift,<span style='color:red'>Fail","<span style='color:red'>Fail,<span style='color:green'>Lift,<span style='color:green'>Lift,<span style='color:red'>Fail,<span style='color:green'>Lift,<span style='color:green'>Lift","0,0,1,1,0,0,0,0,1,0,1,0","0,0,1,1,1,1,0,1,1,1,1,0","0,1,1,0,1,1",10,20,20,"","","","","{""box1"":""8"",""box2"":""8"",""box3"":""95"",""box4"":""95""}","",NA,3,"round2_outcome",3,3,2,8,8,95,95,1,1,20,NA,NA,NA,NA,NA,NA,NA,NA,NA,NA,NA,8,8,95,95,1,1,20,NA,NA,NA,NA,NA,NA,NA,NA,NA,NA,NA,"",NA,NA,NA,NA,NA,NA,NA,NA,2025-11-21 01:39:47
"9955.5","https://psyc-201.github.io/xiang2023/exp/index1.html?PROLIFIC_PID=REDACTED&STUDY_ID=691f8ca61c6b4dcbb0aeb5f4&SESSION_ID=691fbe5b707d46e0749141fa","survey-html-form",27,756196,"0.0-329.0","qozl7bm4nd45Eix4IzQ28V8YqiKJU820fUZEeYFG0WeBjsll9uywS11ZYGs4FA6tINWzrukupvxQrPC+x9lwLeyhZ6/fMxurHqBJ8EazEnRLIKRVeORk5gChFmjQCOvYpYU1SEx6FqVks35OaJhPOAee15Bqhq8F7C+m9PBaPm4xO0sMXn1o04luuJMOppljPQDw565MBBsyp82blki5zxm7xIb3q6Pfu5fAYReDiGmN6M8dHINWSx92IDyrd29J8vOodUe4rFdobAeNhEogAeuicww9xoaTpdy9nvVJ5n7fjgt0iG8A7PuKL0QOitfaD2eOnIrD08GitVSZWXZpbw==","691f8ca61c6b4dcbb0aeb5f4","691fbe5b707d46e0749141fa","index1","<span style='color:red'>Fail,<span style='color:red'>Fail,<span style='color:green'>Lift,<span style='color:green'>Lift,<span style='color:red'>Fail,<span style='color:red'>Fail,<span style='color:red'>Fail,<span style='color:red'>Fail,<span style='color:green'>Lift,<span style='color:red'>Fail,<span style='color:green'>Lift,<span style='color:red'>Fail","<span style='color:red'>Fail,<span style='color:red'>Fail,<span style='color:green'>Lift,<span style='color:green'>Lift,<span style='color:green'>Lift,<span style='color:green'>Lift,<span style='color:red'>Fail,<span style='color:green'>Lift,<span style='color:green'>Lift,<span style='color:green'>Lift,<span style='color:green'>Lift,<span style='color:red'>Fail","<span style='color:red'>Fail,<span style='color:green'>Lift,<span style='color:green'>Lift,<span style='color:red'>Fail,<span style='color:green'>Lift,<span style='color:green'>Lift","0,0,1,1,0,0,0,0,1,0,1,0","0,0,1,1,1,1,0,1,1,1,1,0","0,1,1,0,1,1",10,20,20,"","","","","{""box1"":""99""}","",NA,3,"round3_ready",4,3,3,NA,NA,NA,NA,NA,NA,NA,NA,NA,NA,NA,NA,NA,NA,99,99,NA,NA,NA,NA,NA,NA,NA,NA,NA,99,99,NA,NA,NA,NA,NA,NA,NA,NA,NA,"",NA,NA,NA,NA,NA,NA,NA,NA,2025-11-21 01:39:47
"31995.20000001788","https://psyc-201.github.io/xiang2023/exp/index1.html?PROLIFIC_PID=REDACTED&STUDY_ID=691f8ca61c6b4dcbb0aeb5f4&SESSION_ID=691fbe5b707d46e0749141fa","survey-html-form",28,788196,"0.0-330.0-0.0","qozl7bm4nd45Eix4IzQ28V8YqiKJU820fUZEeYFG0WeBjsll9uywS11ZYGs4FA6tINWzrukupvxQrPC+x9lwLeyhZ6/fMxurHqBJ8EazEnRLIKRVeORk5gChFmjQCOvYpYU1SEx6FqVks35OaJhPOAee15Bqhq8F7C+m9PBaPm4xO0sMXn1o04luuJMOppljPQDw565MBBsyp82blki5zxm7xIb3q6Pfu5fAYReDiGmN6M8dHINWSx92IDyrd29J8vOodUe4rFdobAeNhEogAeuicww9xoaTpdy9nvVJ5n7fjgt0iG8A7PuKL0QOitfaD2eOnIrD08GitVSZWXZpbw==","691f8ca61c6b4dcbb0aeb5f4","691fbe5b707d46e0749141fa","index1","<span style='color:red'>Fail,<span style='color:red'>Fail,<span style='color:green'>Lift,<span style='color:green'>Lift,<span style='color:red'>Fail,<span style='color:red'>Fail,<span style='color:red'>Fail,<span style='color:red'>Fail,<span style='color:green'>Lift,<span style='color:red'>Fail,<span style='color:green'>Lift,<span style='color:red'>Fail","<span style='color:red'>Fail,<span style='color:red'>Fail,<span style='color:green'>Lift,<span style='color:green'>Lift,<span style='color:green'>Lift,<span style='color:green'>Lift,<span style='color:red'>Fail,<span style='color:green'>Lift,<span style='color:green'>Lift,<span style='color:green'>Lift,<span style='color:green'>Lift,<span style='color:red'>Fail","<span style='color:red'>Fail,<span style='color:green'>Lift,<span style='color:green'>Lift,<span style='color:red'>Fail,<span style='color:green'>Lift,<span style='color:green'>Lift","0,0,1,1,0,0,0,0,1,0,1,0","0,0,1,1,1,1,0,1,1,1,1,0","0,1,1,0,1,1",10,20,20,"","","","","{""box1"":""8"",""box2"":""8"",""box3"":""98"",""box4"":""98""}","",NA,4,"round3_lift",5,3,3,8,8,98,98,1,1,20,NA,NA,NA,NA,NA,NA,NA,NA,NA,NA,NA,NA,NA,NA,NA,NA,NA,NA,NA,NA,NA,NA,8,8,1,1,20,98,98,"",NA,NA,NA,NA,NA,NA,NA,NA,2025-11-21 01:39:47
"null","https://psyc-201.github.io/xiang2023/exp/index1.html?PROLIFIC_PID=REDACTED&STUDY_ID=691f8ca61c6b4dcbb0aeb5f4&SESSION_ID=691fbe5b707d46e0749141fa","html-keyboard-response",29,791215,"0.0-334.0","qozl7bm4nd45Eix4IzQ28V8YqiKJU820fUZEeYFG0WeBjsll9uywS11ZYGs4FA6tINWzrukupvxQrPC+x9lwLeyhZ6/fMxurHqBJ8EazEnRLIKRVeORk5gChFmjQCOvYpYU1SEx6FqVks35OaJhPOAee15Bqhq8F7C+m9PBaPm4xO0sMXn1o04luuJMOppljPQDw565MBBsyp82blki5zxm7xIb3q6Pfu5fAYReDiGmN6M8dHINWSx92IDyrd29J8vOodUe4rFdobAeNhEogAeuicww9xoaTpdy9nvVJ5n7fjgt0iG8A7PuKL0QOitfaD2eOnIrD08GitVSZWXZpbw==","691f8ca61c6b4dcbb0aeb5f4","691fbe5b707d46e0749141fa","index1","<span style='color:red'>Fail,<span style='color:red'>Fail,<span style='color:green'>Lift,<span style='color:green'>Lift,<span style='color:red'>Fail,<span style='color:red'>Fail,<span style='color:red'>Fail,<span style='color:red'>Fail,<span style='color:green'>Lift,<span style='color:red'>Fail,<span style='color:green'>Lift,<span style='color:red'>Fail","<span style='color:red'>Fail,<span style='color:red'>Fail,<span style='color:green'>Lift,<span style='color:green'>Lift,<span style='color:green'>Lift,<span style='color:green'>Lift,<span style='color:red'>Fail,<span style='color:green'>Lift,<span style='color:green'>Lift,<span style='color:green'>Lift,<span style='color:green'>Lift,<span style='color:red'>Fail","<span style='color:red'>Fail,<span style='color:green'>Lift,<span style='color:green'>Lift,<span style='color:red'>Fail,<span style='color:green'>Lift,<span style='color:green'>Lift","0,0,1,1,0,0,0,0,1,0,1,0","0,0,1,1,1,1,0,1,1,1,1,0","0,1,1,0,1,1",10,20,20,"","","<p style='font-size:30px'><b> New Contest! </b></p>","null","","",NA,4,"",NA,NA,NA,NA,NA,NA,NA,NA,NA,NA,NA,NA,NA,NA,NA,NA,NA,NA,NA,NA,NA,NA,NA,NA,NA,NA,NA,NA,NA,NA,NA,NA,NA,NA,NA,NA,NA,NA,NA,"",NA,NA,NA,NA,NA,NA,NA,NA,2025-11-21 01:39:47
"26933.79999998212","https://psyc-201.github.io/xiang2023/exp/index1.html?PROLIFIC_PID=REDACTED&STUDY_ID=691f8ca61c6b4dcbb0aeb5f4&SESSION_ID=691fbe5b707d46e0749141fa","survey-html-form",30,818152,"0.0-335.0","qozl7bm4nd45Eix4IzQ28V8YqiKJU820fUZEeYFG0WeBjsll9uywS11ZYGs4FA6tINWzrukupvxQrPC+x9lwLeyhZ6/fMxurHqBJ8EazEnRLIKRVeORk5gChFmjQCOvYpYU1SEx6FqVks35OaJhPOAee15Bqhq8F7C+m9PBaPm4xO0sMXn1o04luuJMOppljPQDw565MBBsyp82blki5zxm7xIb3q6Pfu5fAYReDiGmN6M8dHINWSx92IDyrd29J8vOodUe4rFdobAeNhEogAeuicww9xoaTpdy9nvVJ5n7fjgt0iG8A7PuKL0QOitfaD2eOnIrD08GitVSZWXZpbw==","691f8ca61c6b4dcbb0aeb5f4","691fbe5b707d46e0749141fa","index1","<span style='color:red'>Fail,<span style='color:red'>Fail,<span style='color:green'>Lift,<span style='color:green'>Lift,<span style='color:red'>Fail,<span style='color:red'>Fail,<span style='color:red'>Fail,<span style='color:red'>Fail,<span style='color:green'>Lift,<span style='color:red'>Fail,<span style='color:green'>Lift,<span style='color:red'>Fail","<span style='color:red'>Fail,<span style='color:red'>Fail,<span style='color:green'>Lift,<span style='color:green'>Lift,<span style='color:green'>Lift,<span style='color:green'>Lift,<span style='color:red'>Fail,<span style='color:green'>Lift,<span style='color:green'>Lift,<span style='color:green'>Lift,<span style='color:green'>Lift,<span style='color:red'>Fail","<span style='color:red'>Fail,<span style='color:green'>Lift,<span style='color:green'>Lift,<span style='color:red'>Fail,<span style='color:green'>Lift,<span style='color:green'>Lift","0,0,1,1,0,0,0,0,1,0,1,0","0,0,1,1,1,1,0,1,1,1,1,0","0,1,1,0,1,1",10,20,20,"","","","","{""box1"":""5"",""box2"":""2"",""box3"":""55""}","",NA,4,"round1_outcome",1,4,1,5,2,55,NA,1,0,10,5,2,55,NA,1,0,10,NA,NA,NA,NA,NA,NA,NA,NA,NA,NA,NA,NA,NA,NA,NA,NA,NA,NA,NA,NA,NA,NA,"",NA,NA,NA,NA,NA,NA,NA,NA,2025-11-21 01:39:47
"17312","https://psyc-201.github.io/xiang2023/exp/index1.html?PROLIFIC_PID=REDACTED&STUDY_ID=691f8ca61c6b4dcbb0aeb5f4&SESSION_ID=691fbe5b707d46e0749141fa","survey-html-form",31,835468,"0.0-336.0","qozl7bm4nd45Eix4IzQ28V8YqiKJU820fUZEeYFG0WeBjsll9uywS11ZYGs4FA6tINWzrukupvxQrPC+x9lwLeyhZ6/fMxurHqBJ8EazEnRLIKRVeORk5gChFmjQCOvYpYU1SEx6FqVks35OaJhPOAee15Bqhq8F7C+m9PBaPm4xO0sMXn1o04luuJMOppljPQDw565MBBsyp82blki5zxm7xIb3q6Pfu5fAYReDiGmN6M8dHINWSx92IDyrd29J8vOodUe4rFdobAeNhEogAeuicww9xoaTpdy9nvVJ5n7fjgt0iG8A7PuKL0QOitfaD2eOnIrD08GitVSZWXZpbw==","691f8ca61c6b4dcbb0aeb5f4","691fbe5b707d46e0749141fa","index1","<span style='color:red'>Fail,<span style='color:red'>Fail,<span style='color:green'>Lift,<span style='color:green'>Lift,<span style='color:red'>Fail,<span style='color:red'>Fail,<span style='color:red'>Fail,<span style='color:red'>Fail,<span style='color:green'>Lift,<span style='color:red'>Fail,<span style='color:green'>Lift,<span style='color:red'>Fail","<span style='color:red'>Fail,<span style='color:red'>Fail,<span style='color:green'>Lift,<span style='color:green'>Lift,<span style='color:green'>Lift,<span style='color:green'>Lift,<span style='color:red'>Fail,<span style='color:green'>Lift,<span style='color:green'>Lift,<span style='color:green'>Lift,<span style='color:green'>Lift,<span style='color:red'>Fail","<span style='color:red'>Fail,<span style='color:green'>Lift,<span style='color:green'>Lift,<span style='color:red'>Fail,<span style='color:green'>Lift,<span style='color:green'>Lift","0,0,1,1,0,0,0,0,1,0,1,0","0,0,1,1,1,1,0,1,1,1,1,0","0,1,1,0,1,1",10,20,20,"","","","","{""box1"":""55"",""box2"":""20""}","",NA,4,"round2_ready",2,4,2,NA,NA,NA,NA,NA,NA,NA,NA,NA,NA,NA,NA,NA,NA,55,20,55,20,NA,NA,NA,NA,NA,NA,NA,NA,NA,NA,NA,NA,NA,NA,NA,NA,NA,NA,"",NA,NA,NA,NA,NA,NA,NA,NA,2025-11-21 01:39:47
"18948.09999999404","https://psyc-201.github.io/xiang2023/exp/index1.html?PROLIFIC_PID=REDACTED&STUDY_ID=691f8ca61c6b4dcbb0aeb5f4&SESSION_ID=691fbe5b707d46e0749141fa","survey-html-form",32,854421,"0.0-337.0","qozl7bm4nd45Eix4IzQ28V8YqiKJU820fUZEeYFG0WeBjsll9uywS11ZYGs4FA6tINWzrukupvxQrPC+x9lwLeyhZ6/fMxurHqBJ8EazEnRLIKRVeORk5gChFmjQCOvYpYU1SEx6FqVks35OaJhPOAee15Bqhq8F7C+m9PBaPm4xO0sMXn1o04luuJMOppljPQDw565MBBsyp82blki5zxm7xIb3q6Pfu5fAYReDiGmN6M8dHINWSx92IDyrd29J8vOodUe4rFdobAeNhEogAeuicww9xoaTpdy9nvVJ5n7fjgt0iG8A7PuKL0QOitfaD2eOnIrD08GitVSZWXZpbw==","691f8ca61c6b4dcbb0aeb5f4","691fbe5b707d46e0749141fa","index1","<span style='color:red'>Fail,<span style='color:red'>Fail,<span style='color:green'>Lift,<span style='color:green'>Lift,<span style='color:red'>Fail,<span style='color:red'>Fail,<span style='color:red'>Fail,<span style='color:red'>Fail,<span style='color:green'>Lift,<span style='color:red'>Fail,<span style='color:green'>Lift,<span style='color:red'>Fail","<span style='color:red'>Fail,<span style='color:red'>Fail,<span style='color:green'>Lift,<span style='color:green'>Lift,<span style='color:green'>Lift,<span style='color:green'>Lift,<span style='color:red'>Fail,<span style='color:green'>Lift,<span style='color:green'>Lift,<span style='color:green'>Lift,<span style='color:green'>Lift,<span style='color:red'>Fail","<span style='color:red'>Fail,<span style='color:green'>Lift,<span style='color:green'>Lift,<span style='color:red'>Fail,<span style='color:green'>Lift,<span style='color:green'>Lift","0,0,1,1,0,0,0,0,1,0,1,0","0,0,1,1,1,1,0,1,1,1,1,0","0,1,1,0,1,1",10,20,20,"","","","","{""box1"":""6"",""box2"":""6"",""box3"":""55"",""box4"":""55""}","",NA,4,"round2_outcome",3,4,2,6,6,55,55,1,1,20,NA,NA,NA,NA,NA,NA,NA,NA,NA,NA,NA,6,6,55,55,1,1,20,NA,NA,NA,NA,NA,NA,NA,NA,NA,NA,NA,"",NA,NA,NA,NA,NA,NA,NA,NA,2025-11-21 01:39:47
"13146.40000000596","https://psyc-201.github.io/xiang2023/exp/index1.html?PROLIFIC_PID=REDACTED&STUDY_ID=691f8ca61c6b4dcbb0aeb5f4&SESSION_ID=691fbe5b707d46e0749141fa","survey-html-form",33,867572,"0.0-338.0","qozl7bm4nd45Eix4IzQ28V8YqiKJU820fUZEeYFG0WeBjsll9uywS11ZYGs4FA6tINWzrukupvxQrPC+x9lwLeyhZ6/fMxurHqBJ8EazEnRLIKRVeORk5gChFmjQCOvYpYU1SEx6FqVks35OaJhPOAee15Bqhq8F7C+m9PBaPm4xO0sMXn1o04luuJMOppljPQDw565MBBsyp82blki5zxm7xIb3q6Pfu5fAYReDiGmN6M8dHINWSx92IDyrd29J8vOodUe4rFdobAeNhEogAeuicww9xoaTpdy9nvVJ5n7fjgt0iG8A7PuKL0QOitfaD2eOnIrD08GitVSZWXZpbw==","691f8ca61c6b4dcbb0aeb5f4","691fbe5b707d46e0749141fa","index1","<span style='color:red'>Fail,<span style='color:red'>Fail,<span style='color:green'>Lift,<span style='color:green'>Lift,<span style='color:red'>Fail,<span style='color:red'>Fail,<span style='color:red'>Fail,<span style='color:red'>Fail,<span style='color:green'>Lift,<span style='color:red'>Fail,<span style='color:green'>Lift,<span style='color:red'>Fail","<span style='color:red'>Fail,<span style='color:red'>Fail,<span style='color:green'>Lift,<span style='color:green'>Lift,<span style='color:green'>Lift,<span style='color:green'>Lift,<span style='color:red'>Fail,<span style='color:green'>Lift,<span style='color:green'>Lift,<span style='color:green'>Lift,<span style='color:green'>Lift,<span style='color:red'>Fail","<span style='color:red'>Fail,<span style='color:green'>Lift,<span style='color:green'>Lift,<span style='color:red'>Fail,<span style='color:green'>Lift,<span style='color:green'>Lift","0,0,1,1,0,0,0,0,1,0,1,0","0,0,1,1,1,1,0,1,1,1,1,0","0,1,1,0,1,1",10,20,20,"","","","","{""box1"":""99""}","",NA,4,"round3_ready",4,4,3,NA,NA,NA,NA,NA,NA,NA,NA,NA,NA,NA,NA,NA,NA,99,99,NA,NA,NA,NA,NA,NA,NA,NA,NA,99,99,NA,NA,NA,NA,NA,NA,NA,NA,NA,"",NA,NA,NA,NA,NA,NA,NA,NA,2025-11-21 01:39:47
"21387.899999976158","https://psyc-201.github.io/xiang2023/exp/index1.html?PROLIFIC_PID=REDACTED&STUDY_ID=691f8ca61c6b4dcbb0aeb5f4&SESSION_ID=691fbe5b707d46e0749141fa","survey-html-form",34,888965,"0.0-339.0-0.0","qozl7bm4nd45Eix4IzQ28V8YqiKJU820fUZEeYFG0WeBjsll9uywS11ZYGs4FA6tINWzrukupvxQrPC+x9lwLeyhZ6/fMxurHqBJ8EazEnRLIKRVeORk5gChFmjQCOvYpYU1SEx6FqVks35OaJhPOAee15Bqhq8F7C+m9PBaPm4xO0sMXn1o04luuJMOppljPQDw565MBBsyp82blki5zxm7xIb3q6Pfu5fAYReDiGmN6M8dHINWSx92IDyrd29J8vOodUe4rFdobAeNhEogAeuicww9xoaTpdy9nvVJ5n7fjgt0iG8A7PuKL0QOitfaD2eOnIrD08GitVSZWXZpbw==","691f8ca61c6b4dcbb0aeb5f4","691fbe5b707d46e0749141fa","index1","<span style='color:red'>Fail,<span style='color:red'>Fail,<span style='color:green'>Lift,<span style='color:green'>Lift,<span style='color:red'>Fail,<span style='color:red'>Fail,<span style='color:red'>Fail,<span style='color:red'>Fail,<span style='color:green'>Lift,<span style='color:red'>Fail,<span style='color:green'>Lift,<span style='color:red'>Fail","<span style='color:red'>Fail,<span style='color:red'>Fail,<span style='color:green'>Lift,<span style='color:green'>Lift,<span style='color:green'>Lift,<span style='color:green'>Lift,<span style='color:red'>Fail,<span style='color:green'>Lift,<span style='color:green'>Lift,<span style='color:green'>Lift,<span style='color:green'>Lift,<span style='color:red'>Fail","<span style='color:red'>Fail,<span style='color:green'>Lift,<span style='color:green'>Lift,<span style='color:red'>Fail,<span style='color:green'>Lift,<span style='color:green'>Lift","0,0,1,1,0,0,0,0,1,0,1,0","0,0,1,1,1,1,0,1,1,1,1,0","0,1,1,0,1,1",10,20,20,"","","","","{""box1"":""6"",""box2"":""6"",""box3"":""95"",""box4"":""95""}","",NA,5,"round3_lift",5,4,3,6,6,95,95,1,1,20,NA,NA,NA,NA,NA,NA,NA,NA,NA,NA,NA,NA,NA,NA,NA,NA,NA,NA,NA,NA,NA,NA,6,6,1,1,20,95,95,"",NA,NA,NA,NA,NA,NA,NA,NA,2025-11-21 01:39:47
"null","https://psyc-201.github.io/xiang2023/exp/index1.html?PROLIFIC_PID=REDACTED&STUDY_ID=691f8ca61c6b4dcbb0aeb5f4&SESSION_ID=691fbe5b707d46e0749141fa","html-keyboard-response",35,891977,"0.0-343.0","qozl7bm4nd45Eix4IzQ28V8YqiKJU820fUZEeYFG0WeBjsll9uywS11ZYGs4FA6tINWzrukupvxQrPC+x9lwLeyhZ6/fMxurHqBJ8EazEnRLIKRVeORk5gChFmjQCOvYpYU1SEx6FqVks35OaJhPOAee15Bqhq8F7C+m9PBaPm4xO0sMXn1o04luuJMOppljPQDw565MBBsyp82blki5zxm7xIb3q6Pfu5fAYReDiGmN6M8dHINWSx92IDyrd29J8vOodUe4rFdobAeNhEogAeuicww9xoaTpdy9nvVJ5n7fjgt0iG8A7PuKL0QOitfaD2eOnIrD08GitVSZWXZpbw==","691f8ca61c6b4dcbb0aeb5f4","691fbe5b707d46e0749141fa","index1","<span style='color:red'>Fail,<span style='color:red'>Fail,<span style='color:green'>Lift,<span style='color:green'>Lift,<span style='color:red'>Fail,<span style='color:red'>Fail,<span style='color:red'>Fail,<span style='color:red'>Fail,<span style='color:green'>Lift,<span style='color:red'>Fail,<span style='color:green'>Lift,<span style='color:red'>Fail","<span style='color:red'>Fail,<span style='color:red'>Fail,<span style='color:green'>Lift,<span style='color:green'>Lift,<span style='color:green'>Lift,<span style='color:green'>Lift,<span style='color:red'>Fail,<span style='color:green'>Lift,<span style='color:green'>Lift,<span style='color:green'>Lift,<span style='color:green'>Lift,<span style='color:red'>Fail","<span style='color:red'>Fail,<span style='color:green'>Lift,<span style='color:green'>Lift,<span style='color:red'>Fail,<span style='color:green'>Lift,<span style='color:green'>Lift","0,0,1,1,0,0,0,0,1,0,1,0","0,0,1,1,1,1,0,1,1,1,1,0","0,1,1,0,1,1",10,20,20,"","","<p style='font-size:30px'><b> New Contest! </b></p>","null","","",NA,5,"",NA,NA,NA,NA,NA,NA,NA,NA,NA,NA,NA,NA,NA,NA,NA,NA,NA,NA,NA,NA,NA,NA,NA,NA,NA,NA,NA,NA,NA,NA,NA,NA,NA,NA,NA,NA,NA,NA,NA,"",NA,NA,NA,NA,NA,NA,NA,NA,2025-11-21 01:39:47
"25960.29999998212","https://psyc-201.github.io/xiang2023/exp/index1.html?PROLIFIC_PID=REDACTED&STUDY_ID=691f8ca61c6b4dcbb0aeb5f4&SESSION_ID=691fbe5b707d46e0749141fa","survey-html-form",36,917942,"0.0-344.0","qozl7bm4nd45Eix4IzQ28V8YqiKJU820fUZEeYFG0WeBjsll9uywS11ZYGs4FA6tINWzrukupvxQrPC+x9lwLeyhZ6/fMxurHqBJ8EazEnRLIKRVeORk5gChFmjQCOvYpYU1SEx6FqVks35OaJhPOAee15Bqhq8F7C+m9PBaPm4xO0sMXn1o04luuJMOppljPQDw565MBBsyp82blki5zxm7xIb3q6Pfu5fAYReDiGmN6M8dHINWSx92IDyrd29J8vOodUe4rFdobAeNhEogAeuicww9xoaTpdy9nvVJ5n7fjgt0iG8A7PuKL0QOitfaD2eOnIrD08GitVSZWXZpbw==","691f8ca61c6b4dcbb0aeb5f4","691fbe5b707d46e0749141fa","index1","<span style='color:red'>Fail,<span style='color:red'>Fail,<span style='color:green'>Lift,<span style='color:green'>Lift,<span style='color:red'>Fail,<span style='color:red'>Fail,<span style='color:red'>Fail,<span style='color:red'>Fail,<span style='color:green'>Lift,<span style='color:red'>Fail,<span style='color:green'>Lift,<span style='color:red'>Fail","<span style='color:red'>Fail,<span style='color:red'>Fail,<span style='color:green'>Lift,<span style='color:green'>Lift,<span style='color:green'>Lift,<span style='color:green'>Lift,<span style='color:red'>Fail,<span style='color:green'>Lift,<span style='color:green'>Lift,<span style='color:green'>Lift,<span style='color:green'>Lift,<span style='color:red'>Fail","<span style='color:red'>Fail,<span style='color:green'>Lift,<span style='color:green'>Lift,<span style='color:red'>Fail,<span style='color:green'>Lift,<span style='color:green'>Lift","0,0,1,1,0,0,0,0,1,0,1,0","0,0,1,1,1,1,0,1,1,1,1,0","0,1,1,0,1,1",10,20,20,"","","","","{""box1"":""5"",""box2"":""2"",""box3"":""55""}","",NA,5,"round1_outcome",1,5,1,5,2,55,NA,1,0,10,5,2,55,NA,1,0,10,NA,NA,NA,NA,NA,NA,NA,NA,NA,NA,NA,NA,NA,NA,NA,NA,NA,NA,NA,NA,NA,NA,"",NA,NA,NA,NA,NA,NA,NA,NA,2025-11-21 01:39:47
"17999.90000000596","https://psyc-201.github.io/xiang2023/exp/index1.html?PROLIFIC_PID=REDACTED&STUDY_ID=691f8ca61c6b4dcbb0aeb5f4&SESSION_ID=691fbe5b707d46e0749141fa","survey-html-form",37,935948,"0.0-345.0","qozl7bm4nd45Eix4IzQ28V8YqiKJU820fUZEeYFG0WeBjsll9uywS11ZYGs4FA6tINWzrukupvxQrPC+x9lwLeyhZ6/fMxurHqBJ8EazEnRLIKRVeORk5gChFmjQCOvYpYU1SEx6FqVks35OaJhPOAee15Bqhq8F7C+m9PBaPm4xO0sMXn1o04luuJMOppljPQDw565MBBsyp82blki5zxm7xIb3q6Pfu5fAYReDiGmN6M8dHINWSx92IDyrd29J8vOodUe4rFdobAeNhEogAeuicww9xoaTpdy9nvVJ5n7fjgt0iG8A7PuKL0QOitfaD2eOnIrD08GitVSZWXZpbw==","691f8ca61c6b4dcbb0aeb5f4","691fbe5b707d46e0749141fa","index1","<span style='color:red'>Fail,<span style='color:red'>Fail,<span style='color:green'>Lift,<span style='color:green'>Lift,<span style='color:red'>Fail,<span style='color:red'>Fail,<span style='color:red'>Fail,<span style='color:red'>Fail,<span style='color:green'>Lift,<span style='color:red'>Fail,<span style='color:green'>Lift,<span style='color:red'>Fail","<span style='color:red'>Fail,<span style='color:red'>Fail,<span style='color:green'>Lift,<span style='color:green'>Lift,<span style='color:green'>Lift,<span style='color:green'>Lift,<span style='color:red'>Fail,<span style='color:green'>Lift,<span style='color:green'>Lift,<span style='color:green'>Lift,<span style='color:green'>Lift,<span style='color:red'>Fail","<span style='color:red'>Fail,<span style='color:green'>Lift,<span style='color:green'>Lift,<span style='color:red'>Fail,<span style='color:green'>Lift,<span style='color:green'>Lift","0,0,1,1,0,0,0,0,1,0,1,0","0,0,1,1,1,1,0,1,1,1,1,0","0,1,1,0,1,1",10,20,20,"","","","","{""box1"":""98"",""box2"":""55""}","",NA,5,"round2_ready",2,5,2,NA,NA,NA,NA,NA,NA,NA,NA,NA,NA,NA,NA,NA,NA,98,55,98,55,NA,NA,NA,NA,NA,NA,NA,NA,NA,NA,NA,NA,NA,NA,NA,NA,NA,NA,"",NA,NA,NA,NA,NA,NA,NA,NA,2025-11-21 01:39:47
"21027.40000000596","https://psyc-201.github.io/xiang2023/exp/index1.html?PROLIFIC_PID=REDACTED&STUDY_ID=691f8ca61c6b4dcbb0aeb5f4&SESSION_ID=691fbe5b707d46e0749141fa","survey-html-form",38,956981,"0.0-346.0","qozl7bm4nd45Eix4IzQ28V8YqiKJU820fUZEeYFG0WeBjsll9uywS11ZYGs4FA6tINWzrukupvxQrPC+x9lwLeyhZ6/fMxurHqBJ8EazEnRLIKRVeORk5gChFmjQCOvYpYU1SEx6FqVks35OaJhPOAee15Bqhq8F7C+m9PBaPm4xO0sMXn1o04luuJMOppljPQDw565MBBsyp82blki5zxm7xIb3q6Pfu5fAYReDiGmN6M8dHINWSx92IDyrd29J8vOodUe4rFdobAeNhEogAeuicww9xoaTpdy9nvVJ5n7fjgt0iG8A7PuKL0QOitfaD2eOnIrD08GitVSZWXZpbw==","691f8ca61c6b4dcbb0aeb5f4","691fbe5b707d46e0749141fa","index1","<span style='color:red'>Fail,<span style='color:red'>Fail,<span style='color:green'>Lift,<span style='color:green'>Lift,<span style='color:red'>Fail,<span style='color:red'>Fail,<span style='color:red'>Fail,<span style='color:red'>Fail,<span style='color:green'>Lift,<span style='color:red'>Fail,<span style='color:green'>Lift,<span style='color:red'>Fail","<span style='color:red'>Fail,<span style='color:red'>Fail,<span style='color:green'>Lift,<span style='color:green'>Lift,<span style='color:green'>Lift,<span style='color:green'>Lift,<span style='color:red'>Fail,<span style='color:green'>Lift,<span style='color:green'>Lift,<span style='color:green'>Lift,<span style='color:green'>Lift,<span style='color:red'>Fail","<span style='color:red'>Fail,<span style='color:green'>Lift,<span style='color:green'>Lift,<span style='color:red'>Fail,<span style='color:green'>Lift,<span style='color:green'>Lift","0,0,1,1,0,0,0,0,1,0,1,0","0,0,1,1,1,1,0,1,1,1,1,0","0,1,1,0,1,1",10,20,20,"","","","","{""box1"":""6"",""box2"":""2"",""box3"":""55""}","",NA,5,"round2_outcome",3,5,2,6,2,55,NA,1,0,20,NA,NA,NA,NA,NA,NA,NA,NA,NA,NA,NA,6,2,55,NA,1,0,20,NA,NA,NA,NA,NA,NA,NA,NA,NA,NA,NA,"",NA,NA,NA,NA,NA,NA,NA,NA,2025-11-21 01:39:47
"13705.59999999404","https://psyc-201.github.io/xiang2023/exp/index1.html?PROLIFIC_PID=REDACTED&STUDY_ID=691f8ca61c6b4dcbb0aeb5f4&SESSION_ID=691fbe5b707d46e0749141fa","survey-html-form",39,970692,"0.0-347.0","qozl7bm4nd45Eix4IzQ28V8YqiKJU820fUZEeYFG0WeBjsll9uywS11ZYGs4FA6tINWzrukupvxQrPC+x9lwLeyhZ6/fMxurHqBJ8EazEnRLIKRVeORk5gChFmjQCOvYpYU1SEx6FqVks35OaJhPOAee15Bqhq8F7C+m9PBaPm4xO0sMXn1o04luuJMOppljPQDw565MBBsyp82blki5zxm7xIb3q6Pfu5fAYReDiGmN6M8dHINWSx92IDyrd29J8vOodUe4rFdobAeNhEogAeuicww9xoaTpdy9nvVJ5n7fjgt0iG8A7PuKL0QOitfaD2eOnIrD08GitVSZWXZpbw==","691f8ca61c6b4dcbb0aeb5f4","691fbe5b707d46e0749141fa","index1","<span style='color:red'>Fail,<span style='color:red'>Fail,<span style='color:green'>Lift,<span style='color:green'>Lift,<span style='color:red'>Fail,<span style='color:red'>Fail,<span style='color:red'>Fail,<span style='color:red'>Fail,<span style='color:green'>Lift,<span style='color:red'>Fail,<span style='color:green'>Lift,<span style='color:red'>Fail","<span style='color:red'>Fail,<span style='color:red'>Fail,<span style='color:green'>Lift,<span style='color:green'>Lift,<span style='color:green'>Lift,<span style='color:green'>Lift,<span style='color:red'>Fail,<span style='color:green'>Lift,<span style='color:green'>Lift,<span style='color:green'>Lift,<span style='color:green'>Lift,<span style='color:red'>Fail","<span style='color:red'>Fail,<span style='color:green'>Lift,<span style='color:green'>Lift,<span style='color:red'>Fail,<span style='color:green'>Lift,<span style='color:green'>Lift","0,0,1,1,0,0,0,0,1,0,1,0","0,0,1,1,1,1,0,1,1,1,1,0","0,1,1,0,1,1",10,20,20,"","","","","{""box1"":""55""}","",NA,5,"round3_ready",4,5,3,NA,NA,NA,NA,NA,NA,NA,NA,NA,NA,NA,NA,NA,NA,55,55,NA,NA,NA,NA,NA,NA,NA,NA,NA,55,55,NA,NA,NA,NA,NA,NA,NA,NA,NA,"",NA,NA,NA,NA,NA,NA,NA,NA,2025-11-21 01:39:47
"17899.20000001788","https://psyc-201.github.io/xiang2023/exp/index1.html?PROLIFIC_PID=REDACTED&STUDY_ID=691f8ca61c6b4dcbb0aeb5f4&SESSION_ID=691fbe5b707d46e0749141fa","survey-html-form",40,988598,"0.0-348.0-0.0","qozl7bm4nd45Eix4IzQ28V8YqiKJU820fUZEeYFG0WeBjsll9uywS11ZYGs4FA6tINWzrukupvxQrPC+x9lwLeyhZ6/fMxurHqBJ8EazEnRLIKRVeORk5gChFmjQCOvYpYU1SEx6FqVks35OaJhPOAee15Bqhq8F7C+m9PBaPm4xO0sMXn1o04luuJMOppljPQDw565MBBsyp82blki5zxm7xIb3q6Pfu5fAYReDiGmN6M8dHINWSx92IDyrd29J8vOodUe4rFdobAeNhEogAeuicww9xoaTpdy9nvVJ5n7fjgt0iG8A7PuKL0QOitfaD2eOnIrD08GitVSZWXZpbw==","691f8ca61c6b4dcbb0aeb5f4","691fbe5b707d46e0749141fa","index1","<span style='color:red'>Fail,<span style='color:red'>Fail,<span style='color:green'>Lift,<span style='color:green'>Lift,<span style='color:red'>Fail,<span style='color:red'>Fail,<span style='color:red'>Fail,<span style='color:red'>Fail,<span style='color:green'>Lift,<span style='color:red'>Fail,<span style='color:green'>Lift,<span style='color:red'>Fail","<span style='color:red'>Fail,<span style='color:red'>Fail,<span style='color:green'>Lift,<span style='color:green'>Lift,<span style='color:green'>Lift,<span style='color:green'>Lift,<span style='color:red'>Fail,<span style='color:green'>Lift,<span style='color:green'>Lift,<span style='color:green'>Lift,<span style='color:green'>Lift,<span style='color:red'>Fail","<span style='color:red'>Fail,<span style='color:green'>Lift,<span style='color:green'>Lift,<span style='color:red'>Fail,<span style='color:green'>Lift,<span style='color:green'>Lift","0,0,1,1,0,0,0,0,1,0,1,0","0,0,1,1,1,1,0,1,1,1,1,0","0,1,1,0,1,1",10,20,20,"","","","","{""box1"":""6"",""box2"":""2"",""box3"":""6"",""box4"":""2""}","",NA,6,"round3_lift",5,5,3,6,2,6,2,1,1,20,NA,NA,NA,NA,NA,NA,NA,NA,NA,NA,NA,NA,NA,NA,NA,NA,NA,NA,NA,NA,NA,NA,6,2,1,1,20,6,2,"",NA,NA,NA,NA,NA,NA,NA,NA,2025-11-21 01:39:47
"null","https://psyc-201.github.io/xiang2023/exp/index1.html?PROLIFIC_PID=REDACTED&STUDY_ID=691f8ca61c6b4dcbb0aeb5f4&SESSION_ID=691fbe5b707d46e0749141fa","html-keyboard-response",41,991606,"0.0-352.0","qozl7bm4nd45Eix4IzQ28V8YqiKJU820fUZEeYFG0WeBjsll9uywS11ZYGs4FA6tINWzrukupvxQrPC+x9lwLeyhZ6/fMxurHqBJ8EazEnRLIKRVeORk5gChFmjQCOvYpYU1SEx6FqVks35OaJhPOAee15Bqhq8F7C+m9PBaPm4xO0sMXn1o04luuJMOppljPQDw565MBBsyp82blki5zxm7xIb3q6Pfu5fAYReDiGmN6M8dHINWSx92IDyrd29J8vOodUe4rFdobAeNhEogAeuicww9xoaTpdy9nvVJ5n7fjgt0iG8A7PuKL0QOitfaD2eOnIrD08GitVSZWXZpbw==","691f8ca61c6b4dcbb0aeb5f4","691fbe5b707d46e0749141fa","index1","<span style='color:red'>Fail,<span style='color:red'>Fail,<span style='color:green'>Lift,<span style='color:green'>Lift,<span style='color:red'>Fail,<span style='color:red'>Fail,<span style='color:red'>Fail,<span style='color:red'>Fail,<span style='color:green'>Lift,<span style='color:red'>Fail,<span style='color:green'>Lift,<span style='color:red'>Fail","<span style='color:red'>Fail,<span style='color:red'>Fail,<span style='color:green'>Lift,<span style='color:green'>Lift,<span style='color:green'>Lift,<span style='color:green'>Lift,<span style='color:red'>Fail,<span style='color:green'>Lift,<span style='color:green'>Lift,<span style='color:green'>Lift,<span style='color:green'>Lift,<span style='color:red'>Fail","<span style='color:red'>Fail,<span style='color:green'>Lift,<span style='color:green'>Lift,<span style='color:red'>Fail,<span style='color:green'>Lift,<span style='color:green'>Lift","0,0,1,1,0,0,0,0,1,0,1,0","0,0,1,1,1,1,0,1,1,1,1,0","0,1,1,0,1,1",10,20,20,"","","<p style='font-size:30px'><b> New Contest! </b></p>","null","","",NA,6,"",NA,NA,NA,NA,NA,NA,NA,NA,NA,NA,NA,NA,NA,NA,NA,NA,NA,NA,NA,NA,NA,NA,NA,NA,NA,NA,NA,NA,NA,NA,NA,NA,NA,NA,NA,NA,NA,NA,NA,"",NA,NA,NA,NA,NA,NA,NA,NA,2025-11-21 01:39:47
"13419.09999999404","https://psyc-201.github.io/xiang2023/exp/index1.html?PROLIFIC_PID=REDACTED&STUDY_ID=691f8ca61c6b4dcbb0aeb5f4&SESSION_ID=691fbe5b707d46e0749141fa","survey-html-form",42,1005028,"0.0-353.0","qozl7bm4nd45Eix4IzQ28V8YqiKJU820fUZEeYFG0WeBjsll9uywS11ZYGs4FA6tINWzrukupvxQrPC+x9lwLeyhZ6/fMxurHqBJ8EazEnRLIKRVeORk5gChFmjQCOvYpYU1SEx6FqVks35OaJhPOAee15Bqhq8F7C+m9PBaPm4xO0sMXn1o04luuJMOppljPQDw565MBBsyp82blki5zxm7xIb3q6Pfu5fAYReDiGmN6M8dHINWSx92IDyrd29J8vOodUe4rFdobAeNhEogAeuicww9xoaTpdy9nvVJ5n7fjgt0iG8A7PuKL0QOitfaD2eOnIrD08GitVSZWXZpbw==","691f8ca61c6b4dcbb0aeb5f4","691fbe5b707d46e0749141fa","index1","<span style='color:red'>Fail,<span style='color:red'>Fail,<span style='color:green'>Lift,<span style='color:green'>Lift,<span style='color:red'>Fail,<span style='color:red'>Fail,<span style='color:red'>Fail,<span style='color:red'>Fail,<span style='color:green'>Lift,<span style='color:red'>Fail,<span style='color:green'>Lift,<span style='color:red'>Fail","<span style='color:red'>Fail,<span style='color:red'>Fail,<span style='color:green'>Lift,<span style='color:green'>Lift,<span style='color:green'>Lift,<span style='color:green'>Lift,<span style='color:red'>Fail,<span style='color:green'>Lift,<span style='color:green'>Lift,<span style='color:green'>Lift,<span style='color:green'>Lift,<span style='color:red'>Fail","<span style='color:red'>Fail,<span style='color:green'>Lift,<span style='color:green'>Lift,<span style='color:red'>Fail,<span style='color:green'>Lift,<span style='color:green'>Lift","0,0,1,1,0,0,0,0,1,0,1,0","0,0,1,1,1,1,0,1,1,1,1,0","0,1,1,0,1,1",10,20,20,"","","","","{""box1"":""3"",""box2"":""3""}","",NA,6,"round1_outcome",1,6,1,3,3,NA,NA,0,0,10,3,3,NA,NA,0,0,10,NA,NA,NA,NA,NA,NA,NA,NA,NA,NA,NA,NA,NA,NA,NA,NA,NA,NA,NA,NA,NA,NA,"",NA,NA,NA,NA,NA,NA,NA,NA,2025-11-21 01:39:47
"20747.30000001192","https://psyc-201.github.io/xiang2023/exp/index1.html?PROLIFIC_PID=REDACTED&STUDY_ID=691f8ca61c6b4dcbb0aeb5f4&SESSION_ID=691fbe5b707d46e0749141fa","survey-html-form",43,1025783,"0.0-354.0","qozl7bm4nd45Eix4IzQ28V8YqiKJU820fUZEeYFG0WeBjsll9uywS11ZYGs4FA6tINWzrukupvxQrPC+x9lwLeyhZ6/fMxurHqBJ8EazEnRLIKRVeORk5gChFmjQCOvYpYU1SEx6FqVks35OaJhPOAee15Bqhq8F7C+m9PBaPm4xO0sMXn1o04luuJMOppljPQDw565MBBsyp82blki5zxm7xIb3q6Pfu5fAYReDiGmN6M8dHINWSx92IDyrd29J8vOodUe4rFdobAeNhEogAeuicww9xoaTpdy9nvVJ5n7fjgt0iG8A7PuKL0QOitfaD2eOnIrD08GitVSZWXZpbw==","691f8ca61c6b4dcbb0aeb5f4","691fbe5b707d46e0749141fa","index1","<span style='color:red'>Fail,<span style='color:red'>Fail,<span style='color:green'>Lift,<span style='color:green'>Lift,<span style='color:red'>Fail,<span style='color:red'>Fail,<span style='color:red'>Fail,<span style='color:red'>Fail,<span style='color:green'>Lift,<span style='color:red'>Fail,<span style='color:green'>Lift,<span style='color:red'>Fail","<span style='color:red'>Fail,<span style='color:red'>Fail,<span style='color:green'>Lift,<span style='color:green'>Lift,<span style='color:green'>Lift,<span style='color:green'>Lift,<span style='color:red'>Fail,<span style='color:green'>Lift,<span style='color:green'>Lift,<span style='color:green'>Lift,<span style='color:green'>Lift,<span style='color:red'>Fail","<span style='color:red'>Fail,<span style='color:green'>Lift,<span style='color:green'>Lift,<span style='color:red'>Fail,<span style='color:green'>Lift,<span style='color:green'>Lift","0,0,1,1,0,0,0,0,1,0,1,0","0,0,1,1,1,1,0,1,1,1,1,0","0,1,1,0,1,1",10,20,20,"","","","","{""box1"":""60"",""box2"":""60""}","",NA,6,"round2_ready",2,6,2,NA,NA,NA,NA,NA,NA,NA,NA,NA,NA,NA,NA,NA,NA,60,60,60,60,NA,NA,NA,NA,NA,NA,NA,NA,NA,NA,NA,NA,NA,NA,NA,NA,NA,NA,"",NA,NA,NA,NA,NA,NA,NA,NA,2025-11-21 01:39:47
"20225.70000001788","https://psyc-201.github.io/xiang2023/exp/index1.html?PROLIFIC_PID=REDACTED&STUDY_ID=691f8ca61c6b4dcbb0aeb5f4&SESSION_ID=691fbe5b707d46e0749141fa","survey-html-form",44,1046014,"0.0-355.0","qozl7bm4nd45Eix4IzQ28V8YqiKJU820fUZEeYFG0WeBjsll9uywS11ZYGs4FA6tINWzrukupvxQrPC+x9lwLeyhZ6/fMxurHqBJ8EazEnRLIKRVeORk5gChFmjQCOvYpYU1SEx6FqVks35OaJhPOAee15Bqhq8F7C+m9PBaPm4xO0sMXn1o04luuJMOppljPQDw565MBBsyp82blki5zxm7xIb3q6Pfu5fAYReDiGmN6M8dHINWSx92IDyrd29J8vOodUe4rFdobAeNhEogAeuicww9xoaTpdy9nvVJ5n7fjgt0iG8A7PuKL0QOitfaD2eOnIrD08GitVSZWXZpbw==","691f8ca61c6b4dcbb0aeb5f4","691fbe5b707d46e0749141fa","index1","<span style='color:red'>Fail,<span style='color:red'>Fail,<span style='color:green'>Lift,<span style='color:green'>Lift,<span style='color:red'>Fail,<span style='color:red'>Fail,<span style='color:red'>Fail,<span style='color:red'>Fail,<span style='color:green'>Lift,<span style='color:red'>Fail,<span style='color:green'>Lift,<span style='color:red'>Fail","<span style='color:red'>Fail,<span style='color:red'>Fail,<span style='color:green'>Lift,<span style='color:green'>Lift,<span style='color:green'>Lift,<span style='color:green'>Lift,<span style='color:red'>Fail,<span style='color:green'>Lift,<span style='color:green'>Lift,<span style='color:green'>Lift,<span style='color:green'>Lift,<span style='color:red'>Fail","<span style='color:red'>Fail,<span style='color:green'>Lift,<span style='color:green'>Lift,<span style='color:red'>Fail,<span style='color:green'>Lift,<span style='color:green'>Lift","0,0,1,1,0,0,0,0,1,0,1,0","0,0,1,1,1,1,0,1,1,1,1,0","0,1,1,0,1,1",10,20,20,"","","","","{""box1"":""8"",""box2"":""8"",""box3"":""98"",""box4"":""98""}","",NA,6,"round2_outcome",3,6,2,8,8,98,98,1,1,20,NA,NA,NA,NA,NA,NA,NA,NA,NA,NA,NA,8,8,98,98,1,1,20,NA,NA,NA,NA,NA,NA,NA,NA,NA,NA,NA,"",NA,NA,NA,NA,NA,NA,NA,NA,2025-11-21 01:39:47
"8625.5","https://psyc-201.github.io/xiang2023/exp/index1.html?PROLIFIC_PID=REDACTED&STUDY_ID=691f8ca61c6b4dcbb0aeb5f4&SESSION_ID=691fbe5b707d46e0749141fa","survey-html-form",45,1054644,"0.0-356.0","qozl7bm4nd45Eix4IzQ28V8YqiKJU820fUZEeYFG0WeBjsll9uywS11ZYGs4FA6tINWzrukupvxQrPC+x9lwLeyhZ6/fMxurHqBJ8EazEnRLIKRVeORk5gChFmjQCOvYpYU1SEx6FqVks35OaJhPOAee15Bqhq8F7C+m9PBaPm4xO0sMXn1o04luuJMOppljPQDw565MBBsyp82blki5zxm7xIb3q6Pfu5fAYReDiGmN6M8dHINWSx92IDyrd29J8vOodUe4rFdobAeNhEogAeuicww9xoaTpdy9nvVJ5n7fjgt0iG8A7PuKL0QOitfaD2eOnIrD08GitVSZWXZpbw==","691f8ca61c6b4dcbb0aeb5f4","691fbe5b707d46e0749141fa","index1","<span style='color:red'>Fail,<span style='color:red'>Fail,<span style='color:green'>Lift,<span style='color:green'>Lift,<span style='color:red'>Fail,<span style='color:red'>Fail,<span style='color:red'>Fail,<span style='color:red'>Fail,<span style='color:green'>Lift,<span style='color:red'>Fail,<span style='color:green'>Lift,<span style='color:red'>Fail","<span style='color:red'>Fail,<span style='color:red'>Fail,<span style='color:green'>Lift,<span style='color:green'>Lift,<span style='color:green'>Lift,<span style='color:green'>Lift,<span style='color:red'>Fail,<span style='color:green'>Lift,<span style='color:green'>Lift,<span style='color:green'>Lift,<span style='color:green'>Lift,<span style='color:red'>Fail","<span style='color:red'>Fail,<span style='color:green'>Lift,<span style='color:green'>Lift,<span style='color:red'>Fail,<span style='color:green'>Lift,<span style='color:green'>Lift","0,0,1,1,0,0,0,0,1,0,1,0","0,0,1,1,1,1,0,1,1,1,1,0","0,1,1,0,1,1",10,20,20,"","","","","{""box1"":""98""}","",NA,6,"round3_ready",4,6,3,NA,NA,NA,NA,NA,NA,NA,NA,NA,NA,NA,NA,NA,NA,98,98,NA,NA,NA,NA,NA,NA,NA,NA,NA,98,98,NA,NA,NA,NA,NA,NA,NA,NA,NA,"",NA,NA,NA,NA,NA,NA,NA,NA,2025-11-21 01:39:47
"17266.80000001192","https://psyc-201.github.io/xiang2023/exp/index1.html?PROLIFIC_PID=REDACTED&STUDY_ID=691f8ca61c6b4dcbb0aeb5f4&SESSION_ID=691fbe5b707d46e0749141fa","survey-html-form",46,1071916,"0.0-357.0-0.0","qozl7bm4nd45Eix4IzQ28V8YqiKJU820fUZEeYFG0WeBjsll9uywS11ZYGs4FA6tINWzrukupvxQrPC+x9lwLeyhZ6/fMxurHqBJ8EazEnRLIKRVeORk5gChFmjQCOvYpYU1SEx6FqVks35OaJhPOAee15Bqhq8F7C+m9PBaPm4xO0sMXn1o04luuJMOppljPQDw565MBBsyp82blki5zxm7xIb3q6Pfu5fAYReDiGmN6M8dHINWSx92IDyrd29J8vOodUe4rFdobAeNhEogAeuicww9xoaTpdy9nvVJ5n7fjgt0iG8A7PuKL0QOitfaD2eOnIrD08GitVSZWXZpbw==","691f8ca61c6b4dcbb0aeb5f4","691fbe5b707d46e0749141fa","index1","<span style='color:red'>Fail,<span style='color:red'>Fail,<span style='color:green'>Lift,<span style='color:green'>Lift,<span style='color:red'>Fail,<span style='color:red'>Fail,<span style='color:red'>Fail,<span style='color:red'>Fail,<span style='color:green'>Lift,<span style='color:red'>Fail,<span style='color:green'>Lift,<span style='color:red'>Fail","<span style='color:red'>Fail,<span style='color:red'>Fail,<span style='color:green'>Lift,<span style='color:green'>Lift,<span style='color:green'>Lift,<span style='color:green'>Lift,<span style='color:red'>Fail,<span style='color:green'>Lift,<span style='color:green'>Lift,<span style='color:green'>Lift,<span style='color:green'>Lift,<span style='color:red'>Fail","<span style='color:red'>Fail,<span style='color:green'>Lift,<span style='color:green'>Lift,<span style='color:red'>Fail,<span style='color:green'>Lift,<span style='color:green'>Lift","0,0,1,1,0,0,0,0,1,0,1,0","0,0,1,1,1,1,0,1,1,1,1,0","0,1,1,0,1,1",10,20,20,"","","","","{""box1"":""8"",""box2"":""8"",""box3"":""98"",""box4"":""98""}","",NA,6,"round3_lift",5,6,3,8,8,98,98,1,1,20,NA,NA,NA,NA,NA,NA,NA,NA,NA,NA,NA,NA,NA,NA,NA,NA,NA,NA,NA,NA,NA,NA,8,8,1,1,20,98,98,"",NA,NA,NA,NA,NA,NA,NA,NA,2025-11-21 01:39:47
"59359","https://psyc-201.github.io/xiang2023/exp/index1.html?PROLIFIC_PID=REDACTED&STUDY_ID=691f8ca61c6b4dcbb0aeb5f4&SESSION_ID=691fbe5b707d46e0749141fa","survey-text",47,1131284,"0.0-361.0","qozl7bm4nd45Eix4IzQ28V8YqiKJU820fUZEeYFG0WeBjsll9uywS11ZYGs4FA6tINWzrukupvxQrPC+x9lwLeyhZ6/fMxurHqBJ8EazEnRLIKRVeORk5gChFmjQCOvYpYU1SEx6FqVks35OaJhPOAee15Bqhq8F7C+m9PBaPm4xO0sMXn1o04luuJMOppljPQDw565MBBsyp82blki5zxm7xIb3q6Pfu5fAYReDiGmN6M8dHINWSx92IDyrd29J8vOodUe4rFdobAeNhEogAeuicww9xoaTpdy9nvVJ5n7fjgt0iG8A7PuKL0QOitfaD2eOnIrD08GitVSZWXZpbw==","691f8ca61c6b4dcbb0aeb5f4","691fbe5b707d46e0749141fa","index1","<span style='color:red'>Fail,<span style='color:red'>Fail,<span style='color:green'>Lift,<span style='color:green'>Lift,<span style='color:red'>Fail,<span style='color:red'>Fail,<span style='color:red'>Fail,<span style='color:red'>Fail,<span style='color:green'>Lift,<span style='color:red'>Fail,<span style='color:green'>Lift,<span style='color:red'>Fail","<span style='color:red'>Fail,<span style='color:red'>Fail,<span style='color:green'>Lift,<span style='color:green'>Lift,<span style='color:green'>Lift,<span style='color:green'>Lift,<span style='color:red'>Fail,<span style='color:green'>Lift,<span style='color:green'>Lift,<span style='color:green'>Lift,<span style='color:green'>Lift,<span style='color:red'>Fail","<span style='color:red'>Fail,<span style='color:green'>Lift,<span style='color:green'>Lift,<span style='color:red'>Fail,<span style='color:green'>Lift,<span style='color:green'>Lift","0,0,1,1,0,0,0,0,1,0,1,0","0,0,1,1,1,1,0,1,1,1,1,0","0,1,1,0,1,1",10,20,20,"","","","","{""Q0"":""I had to determine what each of the two players were capable of lifting average was 5 and if they would actually exert themselves based on the award offered. ""}","",NA,NA,"",NA,NA,NA,NA,NA,NA,NA,NA,NA,NA,NA,NA,NA,NA,NA,NA,NA,NA,NA,NA,NA,NA,NA,NA,NA,NA,NA,NA,NA,NA,NA,NA,NA,NA,NA,NA,NA,NA,NA,"",NA,NA,NA,NA,NA,NA,NA,NA,2025-11-21 01:39:47
"7812.600000023842","https://psyc-201.github.io/xiang2023/exp/index1.html?PROLIFIC_PID=REDACTED&STUDY_ID=691f8ca61c6b4dcbb0aeb5f4&SESSION_ID=691fbe5b707d46e0749141fa","survey-text",48,1139109,"0.0-362.0","qozl7bm4nd45Eix4IzQ28V8YqiKJU820fUZEeYFG0WeBjsll9uywS11ZYGs4FA6tINWzrukupvxQrPC+x9lwLeyhZ6/fMxurHqBJ8EazEnRLIKRVeORk5gChFmjQCOvYpYU1SEx6FqVks35OaJhPOAee15Bqhq8F7C+m9PBaPm4xO0sMXn1o04luuJMOppljPQDw565MBBsyp82blki5zxm7xIb3q6Pfu5fAYReDiGmN6M8dHINWSx92IDyrd29J8vOodUe4rFdobAeNhEogAeuicww9xoaTpdy9nvVJ5n7fjgt0iG8A7PuKL0QOitfaD2eOnIrD08GitVSZWXZpbw==","691f8ca61c6b4dcbb0aeb5f4","691fbe5b707d46e0749141fa","index1","<span style='color:red'>Fail,<span style='color:red'>Fail,<span style='color:green'>Lift,<span style='color:green'>Lift,<span style='color:red'>Fail,<span style='color:red'>Fail,<span style='color:red'>Fail,<span style='color:red'>Fail,<span style='color:green'>Lift,<span style='color:red'>Fail,<span style='color:green'>Lift,<span style='color:red'>Fail","<span style='color:red'>Fail,<span style='color:red'>Fail,<span style='color:green'>Lift,<span style='color:green'>Lift,<span style='color:green'>Lift,<span style='color:green'>Lift,<span style='color:red'>Fail,<span style='color:green'>Lift,<span style='color:green'>Lift,<span style='color:green'>Lift,<span style='color:green'>Lift,<span style='color:red'>Fail","<span style='color:red'>Fail,<span style='color:green'>Lift,<span style='color:green'>Lift,<span style='color:red'>Fail,<span style='color:green'>Lift,<span style='color:green'>Lift","0,0,1,1,0,0,0,0,1,0,1,0","0,0,1,1,1,1,0,1,1,1,1,0","0,1,1,0,1,1",10,20,20,"","","","","{""Q0"":""""}","",NA,NA,"",NA,NA,NA,NA,NA,NA,NA,NA,NA,NA,NA,NA,NA,NA,NA,NA,NA,NA,NA,NA,NA,NA,NA,NA,NA,NA,NA,NA,NA,NA,NA,NA,NA,NA,NA,NA,NA,NA,NA,"[{""event"":""blur"",""trial"":0,""time"":29646},{""event"":""focus"",""trial"":0,""time"":52998},{""event"":""fullscreenenter"",""trial"":1,""time"":65969}]",1,3,NA,95,0,0.05,NA,NA,2025-11-21 01:39:47
"5601.5999999940395","https://psyc-201.github.io/xiang2023/exp/index1.html?PROLIFIC_PID=REDACTED&STUDY_ID=691f8ca61c6b4dcbb0aeb5f4&SESSION_ID=691fbe5b707d46e0749141fa","html-button-response",49,1144715,"0.0-363.0","qozl7bm4nd45Eix4IzQ28V8YqiKJU820fUZEeYFG0WeBjsll9uywS11ZYGs4FA6tINWzrukupvxQrPC+x9lwLeyhZ6/fMxurHqBJ8EazEnRLIKRVeORk5gChFmjQCOvYpYU1SEx6FqVks35OaJhPOAee15Bqhq8F7C+m9PBaPm4xO0sMXn1o04luuJMOppljPQDw565MBBsyp82blki5zxm7xIb3q6Pfu5fAYReDiGmN6M8dHINWSx92IDyrd29J8vOodUe4rFdobAeNhEogAeuicww9xoaTpdy9nvVJ5n7fjgt0iG8A7PuKL0QOitfaD2eOnIrD08GitVSZWXZpbw==","691f8ca61c6b4dcbb0aeb5f4","691fbe5b707d46e0749141fa","index1","<span style='color:red'>Fail,<span style='color:red'>Fail,<span style='color:green'>Lift,<span style='color:green'>Lift,<span style='color:red'>Fail,<span style='color:red'>Fail,<span style='color:red'>Fail,<span style='color:red'>Fail,<span style='color:green'>Lift,<span style='color:red'>Fail,<span style='color:green'>Lift,<span style='color:red'>Fail","<span style='color:red'>Fail,<span style='color:red'>Fail,<span style='color:green'>Lift,<span style='color:green'>Lift,<span style='color:green'>Lift,<span style='color:green'>Lift,<span style='color:red'>Fail,<span style='color:green'>Lift,<span style='color:green'>Lift,<span style='color:green'>Lift,<span style='color:green'>Lift,<span style='color:red'>Fail","<span style='color:red'>Fail,<span style='color:green'>Lift,<span style='color:green'>Lift,<span style='color:red'>Fail,<span style='color:green'>Lift,<span style='color:green'>Lift","0,0,1,1,0,0,0,0,1,0,1,0","0,0,1,1,1,1,0,1,1,1,1,0","0,1,1,0,1,1",10,20,20,"","","<p> We randomly picked <b>Contest 1, Round 3</b> to calculate your bonus. </p><p> The outcome of Contestant A and B on that round is <span style='color:red'>Fail</span>. </p><p> The probability you entered was 95. </p><p><b> You won a bonus of $0.05!</b></p><p> IMPORTANT: Please click 'Next' to complete the game. </p>","","","",0,NA,"",NA,NA,NA,NA,NA,NA,NA,NA,NA,NA,NA,NA,NA,NA,NA,NA,NA,NA,NA,NA,NA,NA,NA,NA,NA,NA,NA,NA,NA,NA,NA,NA,NA,NA,NA,NA,NA,NA,NA,"",NA,NA,NA,NA,NA,NA,2,1,2025-11-21 01:39:47
