"rt","url","trial_type","trial_index","time_elapsed","internal_node_id","encryptedProlificId","studyId","sessionId","expIndex","round1_outcomes","round2_outcomes","round3_outcomes","round1_o","round2_o","round3_o","round1_reward","round2_reward","round3_reward","success","view_history","stimulus","key_press","responses","question_order","button_pressed","j","Stage","stage","contest","round","strength_a","strength_b","effort_a","effort_b","outcome_a","outcome_b","reward","r1_strength_a","r1_strength_b","r1_effort_a","r1_effort_b","r1_outcome_a","r1_outcome_b","r1_reward","probability_a","probability_b","r2_prob_a","r2_prob_b","r2_strength_a","r2_strength_b","r2_effort_a","r2_effort_b","r2_outcome_a","r2_outcome_b","r2_reward","r3_prob_a","r3_prob_b","r3_strength_a","r3_strength_b","r3_effort_a","r3_effort_b","r3_outcome_a","r3_outcome_b","r3_reward","attention_check","count","screen","pick_contest","pick_round","pick_side","trial_probability","trial_outcome","bonus","attention_sum","attention","datapipe_meta.attributes.date_modified"
"7973.79999999702","https://psyc-201.github.io/xiang2023/exp/index1.html?PROLIFIC_PID=REDACTED&STUDY_ID=691f8ca61c6b4dcbb0aeb5f4&SESSION_ID=691fb4aca585db83fa79a983","external-html",0,8039,"0.0-0.0","rdzOKhu5ux3tKysdPmaAHRBjZ+0XsH9pRgxFXQ9m5Z06z0aRwT+yKhs9lYc3uUCCqz9a/TzDdpkUhPhmeWJlqbaNOZuPLvJ4oEDYFRUXOItZ2t9q7Q0fuLMNCqfoaKh41E3e5nm8ICGk+fv0/qEFluA+qkP9g5wAph9XP2yqamV4+XLQx0BalG45bU6Vy3eVBF0vJiITXbv1zgws1/h3eVSKWkNsESvCWpckkz7PcUnJLDL7QGkvva01DIrG1UoEl59m30Tv0qOFpWwtAiQ0g9coxFCrOXdu5Hbi6Xe3iRuM3ga2cruQvBuTZWGt9lRoGrhKi/1aGywJlEK/ToZeKg==","691f8ca61c6b4dcbb0aeb5f4","691fb4aca585db83fa79a983","index1","<span style='color:red'>Fail,<span style='color:red'>Fail,<span style='color:green'>Lift,<span style='color:green'>Lift,<span style='color:red'>Fail,<span style='color:red'>Fail,<span style='color:red'>Fail,<span style='color:red'>Fail,<span style='color:red'>Fail,<span style='color:green'>Lift,<span style='color:green'>Lift,<span style='color:red'>Fail","<span style='color:red'>Fail,<span style='color:red'>Fail,<span style='color:green'>Lift,<span style='color:green'>Lift,<span style='color:green'>Lift,<span style='color:green'>Lift,<span style='color:red'>Fail,<span style='color:green'>Lift,<span style='color:green'>Lift,<span style='color:green'>Lift,<span style='color:green'>Lift,<span style='color:red'>Fail","<span style='color:red'>Fail,<span style='color:green'>Lift,<span style='color:green'>Lift,<span style='color:red'>Fail,<span style='color:green'>Lift,<span style='color:green'>Lift","0,0,1,1,0,0,0,0,0,1,1,0","0,0,1,1,1,1,0,1,1,1,1,0","0,1,1,0,1,1",10,20,20,"","","","","","",NA,NA,"",NA,NA,NA,NA,NA,NA,NA,NA,NA,NA,NA,NA,NA,NA,NA,NA,NA,NA,NA,NA,NA,NA,NA,NA,NA,NA,NA,NA,NA,NA,NA,NA,NA,NA,NA,NA,NA,NA,NA,"",NA,NA,NA,NA,NA,NA,NA,NA,2025-11-21 00:52:23
"","https://psyc-201.github.io/xiang2023/exp/index1.html?PROLIFIC_PID=REDACTED&STUDY_ID=691f8ca61c6b4dcbb0aeb5f4&SESSION_ID=691fb4aca585db83fa79a983","fullscreen",1,11389,"0.0-1.0","rdzOKhu5ux3tKysdPmaAHRBjZ+0XsH9pRgxFXQ9m5Z06z0aRwT+yKhs9lYc3uUCCqz9a/TzDdpkUhPhmeWJlqbaNOZuPLvJ4oEDYFRUXOItZ2t9q7Q0fuLMNCqfoaKh41E3e5nm8ICGk+fv0/qEFluA+qkP9g5wAph9XP2yqamV4+XLQx0BalG45bU6Vy3eVBF0vJiITXbv1zgws1/h3eVSKWkNsESvCWpckkz7PcUnJLDL7QGkvva01DIrG1UoEl59m30Tv0qOFpWwtAiQ0g9coxFCrOXdu5Hbi6Xe3iRuM3ga2cruQvBuTZWGt9lRoGrhKi/1aGywJlEK/ToZeKg==","691f8ca61c6b4dcbb0aeb5f4","691fb4aca585db83fa79a983","index1","<span style='color:red'>Fail,<span style='color:red'>Fail,<span style='color:green'>Lift,<span style='color:green'>Lift,<span style='color:red'>Fail,<span style='color:red'>Fail,<span style='color:red'>Fail,<span style='color:red'>Fail,<span style='color:red'>Fail,<span style='color:green'>Lift,<span style='color:green'>Lift,<span style='color:red'>Fail","<span style='color:red'>Fail,<span style='color:red'>Fail,<span style='color:green'>Lift,<span style='color:green'>Lift,<span style='color:green'>Lift,<span style='color:green'>Lift,<span style='color:red'>Fail,<span style='color:green'>Lift,<span style='color:green'>Lift,<span style='color:green'>Lift,<span style='color:green'>Lift,<span style='color:red'>Fail","<span style='color:red'>Fail,<span style='color:green'>Lift,<span style='color:green'>Lift,<span style='color:red'>Fail,<span style='color:green'>Lift,<span style='color:green'>Lift","0,0,1,1,0,0,0,0,0,1,1,0","0,0,1,1,1,1,0,1,1,1,1,0","0,1,1,0,1,1",10,20,20,"true","","","","","",NA,NA,"",NA,NA,NA,NA,NA,NA,NA,NA,NA,NA,NA,NA,NA,NA,NA,NA,NA,NA,NA,NA,NA,NA,NA,NA,NA,NA,NA,NA,NA,NA,NA,NA,NA,NA,NA,NA,NA,NA,NA,"",NA,NA,NA,NA,NA,NA,NA,NA,2025-11-21 00:52:23
"107895.60000000149","https://psyc-201.github.io/xiang2023/exp/index1.html?PROLIFIC_PID=REDACTED&STUDY_ID=691f8ca61c6b4dcbb0aeb5f4&SESSION_ID=691fb4aca585db83fa79a983","instructions",2,119286,"0.0-2.0","rdzOKhu5ux3tKysdPmaAHRBjZ+0XsH9pRgxFXQ9m5Z06z0aRwT+yKhs9lYc3uUCCqz9a/TzDdpkUhPhmeWJlqbaNOZuPLvJ4oEDYFRUXOItZ2t9q7Q0fuLMNCqfoaKh41E3e5nm8ICGk+fv0/qEFluA+qkP9g5wAph9XP2yqamV4+XLQx0BalG45bU6Vy3eVBF0vJiITXbv1zgws1/h3eVSKWkNsESvCWpckkz7PcUnJLDL7QGkvva01DIrG1UoEl59m30Tv0qOFpWwtAiQ0g9coxFCrOXdu5Hbi6Xe3iRuM3ga2cruQvBuTZWGt9lRoGrhKi/1aGywJlEK/ToZeKg==","691f8ca61c6b4dcbb0aeb5f4","691fb4aca585db83fa79a983","index1","<span style='color:red'>Fail,<span style='color:red'>Fail,<span style='color:green'>Lift,<span style='color:green'>Lift,<span style='color:red'>Fail,<span style='color:red'>Fail,<span style='color:red'>Fail,<span style='color:red'>Fail,<span style='color:red'>Fail,<span style='color:green'>Lift,<span style='color:green'>Lift,<span style='color:red'>Fail","<span style='color:red'>Fail,<span style='color:red'>Fail,<span style='color:green'>Lift,<span style='color:green'>Lift,<span style='color:green'>Lift,<span style='color:green'>Lift,<span style='color:red'>Fail,<span style='color:green'>Lift,<span style='color:green'>Lift,<span style='color:green'>Lift,<span style='color:green'>Lift,<span style='color:red'>Fail","<span style='color:red'>Fail,<span style='color:green'>Lift,<span style='color:green'>Lift,<span style='color:red'>Fail,<span style='color:green'>Lift,<span style='color:green'>Lift","0,0,1,1,0,0,0,0,0,1,1,0","0,0,1,1,1,1,0,1,1,1,1,0","0,1,1,0,1,1",10,20,20,"","[{""page_index"":0,""viewing_time"":26581.90000000596},{""page_index"":1,""viewing_time"":13529},{""page_index"":2,""viewing_time"":12136.29999999702},{""page_index"":3,""viewing_time"":14013.39999999851},{""page_index"":4,""viewing_time"":7946.30000000447},{""page_index"":5,""viewing_time"":24735.89999999851},{""page_index"":6,""viewing_time"":8952.5}]","","","","",NA,NA,"",NA,NA,NA,NA,NA,NA,NA,NA,NA,NA,NA,NA,NA,NA,NA,NA,NA,NA,NA,NA,NA,NA,NA,NA,NA,NA,NA,NA,NA,NA,NA,NA,NA,NA,NA,NA,NA,NA,NA,"",NA,NA,NA,NA,NA,NA,NA,NA,2025-11-21 00:52:23
"null","https://psyc-201.github.io/xiang2023/exp/index1.html?PROLIFIC_PID=REDACTED&STUDY_ID=691f8ca61c6b4dcbb0aeb5f4&SESSION_ID=691fb4aca585db83fa79a983","html-keyboard-response",3,120294,"0.0-3.0","rdzOKhu5ux3tKysdPmaAHRBjZ+0XsH9pRgxFXQ9m5Z06z0aRwT+yKhs9lYc3uUCCqz9a/TzDdpkUhPhmeWJlqbaNOZuPLvJ4oEDYFRUXOItZ2t9q7Q0fuLMNCqfoaKh41E3e5nm8ICGk+fv0/qEFluA+qkP9g5wAph9XP2yqamV4+XLQx0BalG45bU6Vy3eVBF0vJiITXbv1zgws1/h3eVSKWkNsESvCWpckkz7PcUnJLDL7QGkvva01DIrG1UoEl59m30Tv0qOFpWwtAiQ0g9coxFCrOXdu5Hbi6Xe3iRuM3ga2cruQvBuTZWGt9lRoGrhKi/1aGywJlEK/ToZeKg==","691f8ca61c6b4dcbb0aeb5f4","691fb4aca585db83fa79a983","index1","<span style='color:red'>Fail,<span style='color:red'>Fail,<span style='color:green'>Lift,<span style='color:green'>Lift,<span style='color:red'>Fail,<span style='color:red'>Fail,<span style='color:red'>Fail,<span style='color:red'>Fail,<span style='color:red'>Fail,<span style='color:green'>Lift,<span style='color:green'>Lift,<span style='color:red'>Fail","<span style='color:red'>Fail,<span style='color:red'>Fail,<span style='color:green'>Lift,<span style='color:green'>Lift,<span style='color:green'>Lift,<span style='color:green'>Lift,<span style='color:red'>Fail,<span style='color:green'>Lift,<span style='color:green'>Lift,<span style='color:green'>Lift,<span style='color:green'>Lift,<span style='color:red'>Fail","<span style='color:red'>Fail,<span style='color:green'>Lift,<span style='color:green'>Lift,<span style='color:red'>Fail,<span style='color:green'>Lift,<span style='color:green'>Lift","0,0,1,1,0,0,0,0,0,1,1,0","0,0,1,1,1,1,0,1,1,1,1,0","0,1,1,0,1,1",10,20,20,"",""," ","null","","",NA,NA,"",NA,NA,NA,NA,NA,NA,NA,NA,NA,NA,NA,NA,NA,NA,NA,NA,NA,NA,NA,NA,NA,NA,NA,NA,NA,NA,NA,NA,NA,NA,NA,NA,NA,NA,NA,NA,NA,NA,NA,"",NA,NA,NA,NA,NA,NA,NA,NA,2025-11-21 00:52:23
"45329.5","https://psyc-201.github.io/xiang2023/exp/index1.html?PROLIFIC_PID=REDACTED&STUDY_ID=691f8ca61c6b4dcbb0aeb5f4&SESSION_ID=691fb4aca585db83fa79a983","survey-multi-choice",4,165626,"0.0-4.0","rdzOKhu5ux3tKysdPmaAHRBjZ+0XsH9pRgxFXQ9m5Z06z0aRwT+yKhs9lYc3uUCCqz9a/TzDdpkUhPhmeWJlqbaNOZuPLvJ4oEDYFRUXOItZ2t9q7Q0fuLMNCqfoaKh41E3e5nm8ICGk+fv0/qEFluA+qkP9g5wAph9XP2yqamV4+XLQx0BalG45bU6Vy3eVBF0vJiITXbv1zgws1/h3eVSKWkNsESvCWpckkz7PcUnJLDL7QGkvva01DIrG1UoEl59m30Tv0qOFpWwtAiQ0g9coxFCrOXdu5Hbi6Xe3iRuM3ga2cruQvBuTZWGt9lRoGrhKi/1aGywJlEK/ToZeKg==","691f8ca61c6b4dcbb0aeb5f4","691fb4aca585db83fa79a983","index1","<span style='color:red'>Fail,<span style='color:red'>Fail,<span style='color:green'>Lift,<span style='color:green'>Lift,<span style='color:red'>Fail,<span style='color:red'>Fail,<span style='color:red'>Fail,<span style='color:red'>Fail,<span style='color:red'>Fail,<span style='color:green'>Lift,<span style='color:green'>Lift,<span style='color:red'>Fail","<span style='color:red'>Fail,<span style='color:red'>Fail,<span style='color:green'>Lift,<span style='color:green'>Lift,<span style='color:green'>Lift,<span style='color:green'>Lift,<span style='color:red'>Fail,<span style='color:green'>Lift,<span style='color:green'>Lift,<span style='color:green'>Lift,<span style='color:green'>Lift,<span style='color:red'>Fail","<span style='color:red'>Fail,<span style='color:green'>Lift,<span style='color:green'>Lift,<span style='color:red'>Fail,<span style='color:green'>Lift,<span style='color:green'>Lift","0,0,1,1,0,0,0,0,0,1,1,0","0,0,1,1,1,1,0,1,1,1,1,0","0,1,1,0,1,1",10,20,20,"","","","","{""Q0"":""It consists of multiple contests, each contest with three rounds."",""Q1"":""When a new contest begins."",""Q2"":""The box weight always stays the same (equivalent to strength of 5)."",""Q3"":""They will split the $20, that is $10 for each."",""Q4"":""How close my guesses are to the actual outcome.""}","[0,1,2,3,4]",NA,NA,"",NA,NA,NA,NA,NA,NA,NA,NA,NA,NA,NA,NA,NA,NA,NA,NA,NA,NA,NA,NA,NA,NA,NA,NA,NA,NA,NA,NA,NA,NA,NA,NA,NA,NA,NA,NA,NA,NA,NA,"",NA,NA,NA,NA,NA,NA,NA,NA,2025-11-21 00:52:23
"2431.7999999970198","https://psyc-201.github.io/xiang2023/exp/index1.html?PROLIFIC_PID=REDACTED&STUDY_ID=691f8ca61c6b4dcbb0aeb5f4&SESSION_ID=691fb4aca585db83fa79a983","html-button-response",5,168060,"0.0-5.0-1.0","rdzOKhu5ux3tKysdPmaAHRBjZ+0XsH9pRgxFXQ9m5Z06z0aRwT+yKhs9lYc3uUCCqz9a/TzDdpkUhPhmeWJlqbaNOZuPLvJ4oEDYFRUXOItZ2t9q7Q0fuLMNCqfoaKh41E3e5nm8ICGk+fv0/qEFluA+qkP9g5wAph9XP2yqamV4+XLQx0BalG45bU6Vy3eVBF0vJiITXbv1zgws1/h3eVSKWkNsESvCWpckkz7PcUnJLDL7QGkvva01DIrG1UoEl59m30Tv0qOFpWwtAiQ0g9coxFCrOXdu5Hbi6Xe3iRuM3ga2cruQvBuTZWGt9lRoGrhKi/1aGywJlEK/ToZeKg==","691f8ca61c6b4dcbb0aeb5f4","691fb4aca585db83fa79a983","index1","<span style='color:red'>Fail,<span style='color:red'>Fail,<span style='color:green'>Lift,<span style='color:green'>Lift,<span style='color:red'>Fail,<span style='color:red'>Fail,<span style='color:red'>Fail,<span style='color:red'>Fail,<span style='color:red'>Fail,<span style='color:green'>Lift,<span style='color:green'>Lift,<span style='color:red'>Fail","<span style='color:red'>Fail,<span style='color:red'>Fail,<span style='color:green'>Lift,<span style='color:green'>Lift,<span style='color:green'>Lift,<span style='color:green'>Lift,<span style='color:red'>Fail,<span style='color:green'>Lift,<span style='color:green'>Lift,<span style='color:green'>Lift,<span style='color:green'>Lift,<span style='color:red'>Fail","<span style='color:red'>Fail,<span style='color:green'>Lift,<span style='color:green'>Lift,<span style='color:red'>Fail,<span style='color:green'>Lift,<span style='color:green'>Lift","0,0,1,1,0,0,0,0,0,1,1,0","0,0,1,1,1,1,0,1,1,1,1,0","0,1,1,0,1,1",10,20,20,"","","<p> Oops! You did not pass the comprehension check. <b>Please note that you have only 1 attempt(s) left.</b> </p>","","","",1,NA,"",NA,NA,NA,NA,NA,NA,NA,NA,NA,NA,NA,NA,NA,NA,NA,NA,NA,NA,NA,NA,NA,NA,NA,NA,NA,NA,NA,NA,NA,NA,NA,NA,NA,NA,NA,NA,NA,NA,NA,"",NA,NA,NA,NA,NA,NA,NA,NA,2025-11-21 00:52:23
"51909.19999999553","https://psyc-201.github.io/xiang2023/exp/index1.html?PROLIFIC_PID=REDACTED&STUDY_ID=691f8ca61c6b4dcbb0aeb5f4&SESSION_ID=691fb4aca585db83fa79a983","instructions",6,219969,"0.0-6.0-0.0","rdzOKhu5ux3tKysdPmaAHRBjZ+0XsH9pRgxFXQ9m5Z06z0aRwT+yKhs9lYc3uUCCqz9a/TzDdpkUhPhmeWJlqbaNOZuPLvJ4oEDYFRUXOItZ2t9q7Q0fuLMNCqfoaKh41E3e5nm8ICGk+fv0/qEFluA+qkP9g5wAph9XP2yqamV4+XLQx0BalG45bU6Vy3eVBF0vJiITXbv1zgws1/h3eVSKWkNsESvCWpckkz7PcUnJLDL7QGkvva01DIrG1UoEl59m30Tv0qOFpWwtAiQ0g9coxFCrOXdu5Hbi6Xe3iRuM3ga2cruQvBuTZWGt9lRoGrhKi/1aGywJlEK/ToZeKg==","691f8ca61c6b4dcbb0aeb5f4","691fb4aca585db83fa79a983","index1","<span style='color:red'>Fail,<span style='color:red'>Fail,<span style='color:green'>Lift,<span style='color:green'>Lift,<span style='color:red'>Fail,<span style='color:red'>Fail,<span style='color:red'>Fail,<span style='color:red'>Fail,<span style='color:red'>Fail,<span style='color:green'>Lift,<span style='color:green'>Lift,<span style='color:red'>Fail","<span style='color:red'>Fail,<span style='color:red'>Fail,<span style='color:green'>Lift,<span style='color:green'>Lift,<span style='color:green'>Lift,<span style='color:green'>Lift,<span style='color:red'>Fail,<span style='color:green'>Lift,<span style='color:green'>Lift,<span style='color:green'>Lift,<span style='color:green'>Lift,<span style='color:red'>Fail","<span style='color:red'>Fail,<span style='color:green'>Lift,<span style='color:green'>Lift,<span style='color:red'>Fail,<span style='color:green'>Lift,<span style='color:green'>Lift","0,0,1,1,0,0,0,0,0,1,1,0","0,0,1,1,1,1,0,1,1,1,1,0","0,1,1,0,1,1",10,20,20,"","[{""page_index"":0,""viewing_time"":14637.29999999702},{""page_index"":1,""viewing_time"":2397.7000000029802},{""page_index"":2,""viewing_time"":7480},{""page_index"":3,""viewing_time"":1427.8999999985099},{""page_index"":2,""viewing_time"":1330.3999999985099},{""page_index"":3,""viewing_time"":17270.10000000149},{""page_index"":4,""viewing_time"":2755.89999999851},{""page_index"":5,""viewing_time"":3348},{""page_index"":6,""viewing_time"":1261.7000000029802}]","","","","",NA,NA,"",NA,NA,NA,NA,NA,NA,NA,NA,NA,NA,NA,NA,NA,NA,NA,NA,NA,NA,NA,NA,NA,NA,NA,NA,NA,NA,NA,NA,NA,NA,NA,NA,NA,NA,NA,NA,NA,NA,NA,"",NA,NA,NA,NA,NA,NA,NA,NA,2025-11-21 00:52:23
"null","https://psyc-201.github.io/xiang2023/exp/index1.html?PROLIFIC_PID=REDACTED&STUDY_ID=691f8ca61c6b4dcbb0aeb5f4&SESSION_ID=691fb4aca585db83fa79a983","html-keyboard-response",7,220978,"0.0-6.0-1.0","rdzOKhu5ux3tKysdPmaAHRBjZ+0XsH9pRgxFXQ9m5Z06z0aRwT+yKhs9lYc3uUCCqz9a/TzDdpkUhPhmeWJlqbaNOZuPLvJ4oEDYFRUXOItZ2t9q7Q0fuLMNCqfoaKh41E3e5nm8ICGk+fv0/qEFluA+qkP9g5wAph9XP2yqamV4+XLQx0BalG45bU6Vy3eVBF0vJiITXbv1zgws1/h3eVSKWkNsESvCWpckkz7PcUnJLDL7QGkvva01DIrG1UoEl59m30Tv0qOFpWwtAiQ0g9coxFCrOXdu5Hbi6Xe3iRuM3ga2cruQvBuTZWGt9lRoGrhKi/1aGywJlEK/ToZeKg==","691f8ca61c6b4dcbb0aeb5f4","691fb4aca585db83fa79a983","index1","<span style='color:red'>Fail,<span style='color:red'>Fail,<span style='color:green'>Lift,<span style='color:green'>Lift,<span style='color:red'>Fail,<span style='color:red'>Fail,<span style='color:red'>Fail,<span style='color:red'>Fail,<span style='color:red'>Fail,<span style='color:green'>Lift,<span style='color:green'>Lift,<span style='color:red'>Fail","<span style='color:red'>Fail,<span style='color:red'>Fail,<span style='color:green'>Lift,<span style='color:green'>Lift,<span style='color:green'>Lift,<span style='color:green'>Lift,<span style='color:red'>Fail,<span style='color:green'>Lift,<span style='color:green'>Lift,<span style='color:green'>Lift,<span style='color:green'>Lift,<span style='color:red'>Fail","<span style='color:red'>Fail,<span style='color:green'>Lift,<span style='color:green'>Lift,<span style='color:red'>Fail,<span style='color:green'>Lift,<span style='color:green'>Lift","0,0,1,1,0,0,0,0,0,1,1,0","0,0,1,1,1,1,0,1,1,1,1,0","0,1,1,0,1,1",10,20,20,"",""," ","null","","",NA,NA,"",NA,NA,NA,NA,NA,NA,NA,NA,NA,NA,NA,NA,NA,NA,NA,NA,NA,NA,NA,NA,NA,NA,NA,NA,NA,NA,NA,NA,NA,NA,NA,NA,NA,NA,NA,NA,NA,NA,NA,"",NA,NA,NA,NA,NA,NA,NA,NA,2025-11-21 00:52:23
"27796.40000000596","https://psyc-201.github.io/xiang2023/exp/index1.html?PROLIFIC_PID=REDACTED&STUDY_ID=691f8ca61c6b4dcbb0aeb5f4&SESSION_ID=691fb4aca585db83fa79a983","survey-multi-choice",8,248777,"0.0-7.0-0.0","rdzOKhu5ux3tKysdPmaAHRBjZ+0XsH9pRgxFXQ9m5Z06z0aRwT+yKhs9lYc3uUCCqz9a/TzDdpkUhPhmeWJlqbaNOZuPLvJ4oEDYFRUXOItZ2t9q7Q0fuLMNCqfoaKh41E3e5nm8ICGk+fv0/qEFluA+qkP9g5wAph9XP2yqamV4+XLQx0BalG45bU6Vy3eVBF0vJiITXbv1zgws1/h3eVSKWkNsESvCWpckkz7PcUnJLDL7QGkvva01DIrG1UoEl59m30Tv0qOFpWwtAiQ0g9coxFCrOXdu5Hbi6Xe3iRuM3ga2cruQvBuTZWGt9lRoGrhKi/1aGywJlEK/ToZeKg==","691f8ca61c6b4dcbb0aeb5f4","691fb4aca585db83fa79a983","index1","<span style='color:red'>Fail,<span style='color:red'>Fail,<span style='color:green'>Lift,<span style='color:green'>Lift,<span style='color:red'>Fail,<span style='color:red'>Fail,<span style='color:red'>Fail,<span style='color:red'>Fail,<span style='color:red'>Fail,<span style='color:green'>Lift,<span style='color:green'>Lift,<span style='color:red'>Fail","<span style='color:red'>Fail,<span style='color:red'>Fail,<span style='color:green'>Lift,<span style='color:green'>Lift,<span style='color:green'>Lift,<span style='color:green'>Lift,<span style='color:red'>Fail,<span style='color:green'>Lift,<span style='color:green'>Lift,<span style='color:green'>Lift,<span style='color:green'>Lift,<span style='color:red'>Fail","<span style='color:red'>Fail,<span style='color:green'>Lift,<span style='color:green'>Lift,<span style='color:red'>Fail,<span style='color:green'>Lift,<span style='color:green'>Lift","0,0,1,1,0,0,0,0,0,1,1,0","0,0,1,1,1,1,0,1,1,1,1,0","0,1,1,0,1,1",10,20,20,"","","","","{""Q0"":""It consists of multiple contests, each contest with three rounds."",""Q1"":""When a new contest begins."",""Q2"":""The box weight always stays the same (equivalent to strength of 5)."",""Q3"":""Each will get $20."",""Q4"":""How close my guesses are to the actual outcome.""}","[0,1,2,3,4]",NA,NA,"",NA,NA,NA,NA,NA,NA,NA,NA,NA,NA,NA,NA,NA,NA,NA,NA,NA,NA,NA,NA,NA,NA,NA,NA,NA,NA,NA,NA,NA,NA,NA,NA,NA,NA,NA,NA,NA,NA,NA,"",NA,NA,NA,NA,NA,NA,NA,NA,2025-11-21 00:52:23
"16022.89999999851","https://psyc-201.github.io/xiang2023/exp/index1.html?PROLIFIC_PID=REDACTED&STUDY_ID=691f8ca61c6b4dcbb0aeb5f4&SESSION_ID=691fb4aca585db83fa79a983","instructions",9,264804,"0.0-305.0","rdzOKhu5ux3tKysdPmaAHRBjZ+0XsH9pRgxFXQ9m5Z06z0aRwT+yKhs9lYc3uUCCqz9a/TzDdpkUhPhmeWJlqbaNOZuPLvJ4oEDYFRUXOItZ2t9q7Q0fuLMNCqfoaKh41E3e5nm8ICGk+fv0/qEFluA+qkP9g5wAph9XP2yqamV4+XLQx0BalG45bU6Vy3eVBF0vJiITXbv1zgws1/h3eVSKWkNsESvCWpckkz7PcUnJLDL7QGkvva01DIrG1UoEl59m30Tv0qOFpWwtAiQ0g9coxFCrOXdu5Hbi6Xe3iRuM3ga2cruQvBuTZWGt9lRoGrhKi/1aGywJlEK/ToZeKg==","691f8ca61c6b4dcbb0aeb5f4","691fb4aca585db83fa79a983","index1","<span style='color:red'>Fail,<span style='color:red'>Fail,<span style='color:green'>Lift,<span style='color:green'>Lift,<span style='color:red'>Fail,<span style='color:red'>Fail,<span style='color:red'>Fail,<span style='color:red'>Fail,<span style='color:red'>Fail,<span style='color:green'>Lift,<span style='color:green'>Lift,<span style='color:red'>Fail","<span style='color:red'>Fail,<span style='color:red'>Fail,<span style='color:green'>Lift,<span style='color:green'>Lift,<span style='color:green'>Lift,<span style='color:green'>Lift,<span style='color:red'>Fail,<span style='color:green'>Lift,<span style='color:green'>Lift,<span style='color:green'>Lift,<span style='color:green'>Lift,<span style='color:red'>Fail","<span style='color:red'>Fail,<span style='color:green'>Lift,<span style='color:green'>Lift,<span style='color:red'>Fail,<span style='color:green'>Lift,<span style='color:green'>Lift","0,0,1,1,0,0,0,0,0,1,1,0","0,0,1,1,1,1,0,1,1,1,1,0","0,1,1,0,1,1",10,20,20,"","[{""page_index"":0,""viewing_time"":13120},{""page_index"":1,""viewing_time"":2902.6999999955297}]","","","","",NA,NA,"",NA,NA,NA,NA,NA,NA,NA,NA,NA,NA,NA,NA,NA,NA,NA,NA,NA,NA,NA,NA,NA,NA,NA,NA,NA,NA,NA,NA,NA,NA,NA,NA,NA,NA,NA,NA,NA,NA,NA,"",NA,NA,NA,NA,NA,NA,NA,NA,2025-11-21 00:52:23
"null","https://psyc-201.github.io/xiang2023/exp/index1.html?PROLIFIC_PID=REDACTED&STUDY_ID=691f8ca61c6b4dcbb0aeb5f4&SESSION_ID=691fb4aca585db83fa79a983","html-keyboard-response",10,265807,"0.0-306.0","rdzOKhu5ux3tKysdPmaAHRBjZ+0XsH9pRgxFXQ9m5Z06z0aRwT+yKhs9lYc3uUCCqz9a/TzDdpkUhPhmeWJlqbaNOZuPLvJ4oEDYFRUXOItZ2t9q7Q0fuLMNCqfoaKh41E3e5nm8ICGk+fv0/qEFluA+qkP9g5wAph9XP2yqamV4+XLQx0BalG45bU6Vy3eVBF0vJiITXbv1zgws1/h3eVSKWkNsESvCWpckkz7PcUnJLDL7QGkvva01DIrG1UoEl59m30Tv0qOFpWwtAiQ0g9coxFCrOXdu5Hbi6Xe3iRuM3ga2cruQvBuTZWGt9lRoGrhKi/1aGywJlEK/ToZeKg==","691f8ca61c6b4dcbb0aeb5f4","691fb4aca585db83fa79a983","index1","<span style='color:red'>Fail,<span style='color:red'>Fail,<span style='color:green'>Lift,<span style='color:green'>Lift,<span style='color:red'>Fail,<span style='color:red'>Fail,<span style='color:red'>Fail,<span style='color:red'>Fail,<span style='color:red'>Fail,<span style='color:green'>Lift,<span style='color:green'>Lift,<span style='color:red'>Fail","<span style='color:red'>Fail,<span style='color:red'>Fail,<span style='color:green'>Lift,<span style='color:green'>Lift,<span style='color:green'>Lift,<span style='color:green'>Lift,<span style='color:red'>Fail,<span style='color:green'>Lift,<span style='color:green'>Lift,<span style='color:green'>Lift,<span style='color:green'>Lift,<span style='color:red'>Fail","<span style='color:red'>Fail,<span style='color:green'>Lift,<span style='color:green'>Lift,<span style='color:red'>Fail,<span style='color:green'>Lift,<span style='color:green'>Lift","0,0,1,1,0,0,0,0,0,1,1,0","0,0,1,1,1,1,0,1,1,1,1,0","0,1,1,0,1,1",10,20,20,"",""," ","null","","",NA,1,"",NA,NA,NA,NA,NA,NA,NA,NA,NA,NA,NA,NA,NA,NA,NA,NA,NA,NA,NA,NA,NA,NA,NA,NA,NA,NA,NA,NA,NA,NA,NA,NA,NA,NA,NA,NA,NA,NA,NA,"",NA,NA,NA,NA,NA,NA,NA,NA,2025-11-21 00:52:23
"null","https://psyc-201.github.io/xiang2023/exp/index1.html?PROLIFIC_PID=REDACTED&STUDY_ID=691f8ca61c6b4dcbb0aeb5f4&SESSION_ID=691fb4aca585db83fa79a983","html-keyboard-response",11,268818,"0.0-307.0","rdzOKhu5ux3tKysdPmaAHRBjZ+0XsH9pRgxFXQ9m5Z06z0aRwT+yKhs9lYc3uUCCqz9a/TzDdpkUhPhmeWJlqbaNOZuPLvJ4oEDYFRUXOItZ2t9q7Q0fuLMNCqfoaKh41E3e5nm8ICGk+fv0/qEFluA+qkP9g5wAph9XP2yqamV4+XLQx0BalG45bU6Vy3eVBF0vJiITXbv1zgws1/h3eVSKWkNsESvCWpckkz7PcUnJLDL7QGkvva01DIrG1UoEl59m30Tv0qOFpWwtAiQ0g9coxFCrOXdu5Hbi6Xe3iRuM3ga2cruQvBuTZWGt9lRoGrhKi/1aGywJlEK/ToZeKg==","691f8ca61c6b4dcbb0aeb5f4","691fb4aca585db83fa79a983","index1","<span style='color:red'>Fail,<span style='color:red'>Fail,<span style='color:green'>Lift,<span style='color:green'>Lift,<span style='color:red'>Fail,<span style='color:red'>Fail,<span style='color:red'>Fail,<span style='color:red'>Fail,<span style='color:red'>Fail,<span style='color:green'>Lift,<span style='color:green'>Lift,<span style='color:red'>Fail","<span style='color:red'>Fail,<span style='color:red'>Fail,<span style='color:green'>Lift,<span style='color:green'>Lift,<span style='color:green'>Lift,<span style='color:green'>Lift,<span style='color:red'>Fail,<span style='color:green'>Lift,<span style='color:green'>Lift,<span style='color:green'>Lift,<span style='color:green'>Lift,<span style='color:red'>Fail","<span style='color:red'>Fail,<span style='color:green'>Lift,<span style='color:green'>Lift,<span style='color:red'>Fail,<span style='color:green'>Lift,<span style='color:green'>Lift","0,0,1,1,0,0,0,0,0,1,1,0","0,0,1,1,1,1,0,1,1,1,1,0","0,1,1,0,1,1",10,20,20,"","","<p style='font-size:30px'><b> New Contest! </b></p>","null","","",NA,1,"",NA,NA,NA,NA,NA,NA,NA,NA,NA,NA,NA,NA,NA,NA,NA,NA,NA,NA,NA,NA,NA,NA,NA,NA,NA,NA,NA,NA,NA,NA,NA,NA,NA,NA,NA,NA,NA,NA,NA,"",NA,NA,NA,NA,NA,NA,NA,NA,2025-11-21 00:52:23
"54268.89999999851","https://psyc-201.github.io/xiang2023/exp/index1.html?PROLIFIC_PID=REDACTED&STUDY_ID=691f8ca61c6b4dcbb0aeb5f4&SESSION_ID=691fb4aca585db83fa79a983","survey-html-form",12,323092,"0.0-308.0","rdzOKhu5ux3tKysdPmaAHRBjZ+0XsH9pRgxFXQ9m5Z06z0aRwT+yKhs9lYc3uUCCqz9a/TzDdpkUhPhmeWJlqbaNOZuPLvJ4oEDYFRUXOItZ2t9q7Q0fuLMNCqfoaKh41E3e5nm8ICGk+fv0/qEFluA+qkP9g5wAph9XP2yqamV4+XLQx0BalG45bU6Vy3eVBF0vJiITXbv1zgws1/h3eVSKWkNsESvCWpckkz7PcUnJLDL7QGkvva01DIrG1UoEl59m30Tv0qOFpWwtAiQ0g9coxFCrOXdu5Hbi6Xe3iRuM3ga2cruQvBuTZWGt9lRoGrhKi/1aGywJlEK/ToZeKg==","691f8ca61c6b4dcbb0aeb5f4","691fb4aca585db83fa79a983","index1","<span style='color:red'>Fail,<span style='color:red'>Fail,<span style='color:green'>Lift,<span style='color:green'>Lift,<span style='color:red'>Fail,<span style='color:red'>Fail,<span style='color:red'>Fail,<span style='color:red'>Fail,<span style='color:red'>Fail,<span style='color:green'>Lift,<span style='color:green'>Lift,<span style='color:red'>Fail","<span style='color:red'>Fail,<span style='color:red'>Fail,<span style='color:green'>Lift,<span style='color:green'>Lift,<span style='color:green'>Lift,<span style='color:green'>Lift,<span style='color:red'>Fail,<span style='color:green'>Lift,<span style='color:green'>Lift,<span style='color:green'>Lift,<span style='color:green'>Lift,<span style='color:red'>Fail","<span style='color:red'>Fail,<span style='color:green'>Lift,<span style='color:green'>Lift,<span style='color:red'>Fail,<span style='color:green'>Lift,<span style='color:green'>Lift","0,0,1,1,0,0,0,0,0,1,1,0","0,0,1,1,1,1,0,1,1,1,1,0","0,1,1,0,1,1",10,20,20,"","","","","{""box1"":""6"",""box2"":""7"",""box3"":""80"",""box4"":""70""}","",NA,1,"round1_outcome",1,1,1,6,7,80,70,1,1,10,6,7,80,70,1,1,10,NA,NA,NA,NA,NA,NA,NA,NA,NA,NA,NA,NA,NA,NA,NA,NA,NA,NA,NA,NA,NA,NA,"",NA,NA,NA,NA,NA,NA,NA,NA,2025-11-21 00:52:23
"11953","https://psyc-201.github.io/xiang2023/exp/index1.html?PROLIFIC_PID=REDACTED&STUDY_ID=691f8ca61c6b4dcbb0aeb5f4&SESSION_ID=691fb4aca585db83fa79a983","survey-html-form",13,335046,"0.0-309.0","rdzOKhu5ux3tKysdPmaAHRBjZ+0XsH9pRgxFXQ9m5Z06z0aRwT+yKhs9lYc3uUCCqz9a/TzDdpkUhPhmeWJlqbaNOZuPLvJ4oEDYFRUXOItZ2t9q7Q0fuLMNCqfoaKh41E3e5nm8ICGk+fv0/qEFluA+qkP9g5wAph9XP2yqamV4+XLQx0BalG45bU6Vy3eVBF0vJiITXbv1zgws1/h3eVSKWkNsESvCWpckkz7PcUnJLDL7QGkvva01DIrG1UoEl59m30Tv0qOFpWwtAiQ0g9coxFCrOXdu5Hbi6Xe3iRuM3ga2cruQvBuTZWGt9lRoGrhKi/1aGywJlEK/ToZeKg==","691f8ca61c6b4dcbb0aeb5f4","691fb4aca585db83fa79a983","index1","<span style='color:red'>Fail,<span style='color:red'>Fail,<span style='color:green'>Lift,<span style='color:green'>Lift,<span style='color:red'>Fail,<span style='color:red'>Fail,<span style='color:red'>Fail,<span style='color:red'>Fail,<span style='color:red'>Fail,<span style='color:green'>Lift,<span style='color:green'>Lift,<span style='color:red'>Fail","<span style='color:red'>Fail,<span style='color:red'>Fail,<span style='color:green'>Lift,<span style='color:green'>Lift,<span style='color:green'>Lift,<span style='color:green'>Lift,<span style='color:red'>Fail,<span style='color:green'>Lift,<span style='color:green'>Lift,<span style='color:green'>Lift,<span style='color:green'>Lift,<span style='color:red'>Fail","<span style='color:red'>Fail,<span style='color:green'>Lift,<span style='color:green'>Lift,<span style='color:red'>Fail,<span style='color:green'>Lift,<span style='color:green'>Lift","0,0,1,1,0,0,0,0,0,1,1,0","0,0,1,1,1,1,0,1,1,1,1,0","0,1,1,0,1,1",10,20,20,"","","","","{""box1"":""98"",""box2"":""100""}","",NA,1,"round2_ready",2,1,2,NA,NA,NA,NA,NA,NA,NA,NA,NA,NA,NA,NA,NA,NA,98,100,98,100,NA,NA,NA,NA,NA,NA,NA,NA,NA,NA,NA,NA,NA,NA,NA,NA,NA,NA,"",NA,NA,NA,NA,NA,NA,NA,NA,2025-11-21 00:52:23
"20215.70000000298","https://psyc-201.github.io/xiang2023/exp/index1.html?PROLIFIC_PID=REDACTED&STUDY_ID=691f8ca61c6b4dcbb0aeb5f4&SESSION_ID=691fb4aca585db83fa79a983","survey-html-form",14,355264,"0.0-310.0","rdzOKhu5ux3tKysdPmaAHRBjZ+0XsH9pRgxFXQ9m5Z06z0aRwT+yKhs9lYc3uUCCqz9a/TzDdpkUhPhmeWJlqbaNOZuPLvJ4oEDYFRUXOItZ2t9q7Q0fuLMNCqfoaKh41E3e5nm8ICGk+fv0/qEFluA+qkP9g5wAph9XP2yqamV4+XLQx0BalG45bU6Vy3eVBF0vJiITXbv1zgws1/h3eVSKWkNsESvCWpckkz7PcUnJLDL7QGkvva01DIrG1UoEl59m30Tv0qOFpWwtAiQ0g9coxFCrOXdu5Hbi6Xe3iRuM3ga2cruQvBuTZWGt9lRoGrhKi/1aGywJlEK/ToZeKg==","691f8ca61c6b4dcbb0aeb5f4","691fb4aca585db83fa79a983","index1","<span style='color:red'>Fail,<span style='color:red'>Fail,<span style='color:green'>Lift,<span style='color:green'>Lift,<span style='color:red'>Fail,<span style='color:red'>Fail,<span style='color:red'>Fail,<span style='color:red'>Fail,<span style='color:red'>Fail,<span style='color:green'>Lift,<span style='color:green'>Lift,<span style='color:red'>Fail","<span style='color:red'>Fail,<span style='color:red'>Fail,<span style='color:green'>Lift,<span style='color:green'>Lift,<span style='color:green'>Lift,<span style='color:green'>Lift,<span style='color:red'>Fail,<span style='color:green'>Lift,<span style='color:green'>Lift,<span style='color:green'>Lift,<span style='color:green'>Lift,<span style='color:red'>Fail","<span style='color:red'>Fail,<span style='color:green'>Lift,<span style='color:green'>Lift,<span style='color:red'>Fail,<span style='color:green'>Lift,<span style='color:green'>Lift","0,0,1,1,0,0,0,0,0,1,1,0","0,0,1,1,1,1,0,1,1,1,1,0","0,1,1,0,1,1",10,20,20,"","","","","{""box1"":""7"",""box2"":""8"",""box3"":""75"",""box4"":""60""}","",NA,1,"round2_outcome",3,1,2,7,8,75,60,1,1,20,NA,NA,NA,NA,NA,NA,NA,NA,NA,NA,NA,7,8,75,60,1,1,20,NA,NA,NA,NA,NA,NA,NA,NA,NA,NA,NA,"",NA,NA,NA,NA,NA,NA,NA,NA,2025-11-21 00:52:23
"9067.89999999851","https://psyc-201.github.io/xiang2023/exp/index1.html?PROLIFIC_PID=REDACTED&STUDY_ID=691f8ca61c6b4dcbb0aeb5f4&SESSION_ID=691fb4aca585db83fa79a983","survey-html-form",15,364334,"0.0-311.0","rdzOKhu5ux3tKysdPmaAHRBjZ+0XsH9pRgxFXQ9m5Z06z0aRwT+yKhs9lYc3uUCCqz9a/TzDdpkUhPhmeWJlqbaNOZuPLvJ4oEDYFRUXOItZ2t9q7Q0fuLMNCqfoaKh41E3e5nm8ICGk+fv0/qEFluA+qkP9g5wAph9XP2yqamV4+XLQx0BalG45bU6Vy3eVBF0vJiITXbv1zgws1/h3eVSKWkNsESvCWpckkz7PcUnJLDL7QGkvva01DIrG1UoEl59m30Tv0qOFpWwtAiQ0g9coxFCrOXdu5Hbi6Xe3iRuM3ga2cruQvBuTZWGt9lRoGrhKi/1aGywJlEK/ToZeKg==","691f8ca61c6b4dcbb0aeb5f4","691fb4aca585db83fa79a983","index1","<span style='color:red'>Fail,<span style='color:red'>Fail,<span style='color:green'>Lift,<span style='color:green'>Lift,<span style='color:red'>Fail,<span style='color:red'>Fail,<span style='color:red'>Fail,<span style='color:red'>Fail,<span style='color:red'>Fail,<span style='color:green'>Lift,<span style='color:green'>Lift,<span style='color:red'>Fail","<span style='color:red'>Fail,<span style='color:red'>Fail,<span style='color:green'>Lift,<span style='color:green'>Lift,<span style='color:green'>Lift,<span style='color:green'>Lift,<span style='color:red'>Fail,<span style='color:green'>Lift,<span style='color:green'>Lift,<span style='color:green'>Lift,<span style='color:green'>Lift,<span style='color:red'>Fail","<span style='color:red'>Fail,<span style='color:green'>Lift,<span style='color:green'>Lift,<span style='color:red'>Fail,<span style='color:green'>Lift,<span style='color:green'>Lift","0,0,1,1,0,0,0,0,0,1,1,0","0,0,1,1,1,1,0,1,1,1,1,0","0,1,1,0,1,1",10,20,20,"","","","","{""box1"":""100""}","",NA,1,"round3_ready",4,1,3,NA,NA,NA,NA,NA,NA,NA,NA,NA,NA,NA,NA,NA,NA,100,100,NA,NA,NA,NA,NA,NA,NA,NA,NA,100,100,NA,NA,NA,NA,NA,NA,NA,NA,NA,"",NA,NA,NA,NA,NA,NA,NA,NA,2025-11-21 00:52:23
"16026.5","https://psyc-201.github.io/xiang2023/exp/index1.html?PROLIFIC_PID=REDACTED&STUDY_ID=691f8ca61c6b4dcbb0aeb5f4&SESSION_ID=691fb4aca585db83fa79a983","survey-html-form",16,380362,"0.0-312.0-0.0","rdzOKhu5ux3tKysdPmaAHRBjZ+0XsH9pRgxFXQ9m5Z06z0aRwT+yKhs9lYc3uUCCqz9a/TzDdpkUhPhmeWJlqbaNOZuPLvJ4oEDYFRUXOItZ2t9q7Q0fuLMNCqfoaKh41E3e5nm8ICGk+fv0/qEFluA+qkP9g5wAph9XP2yqamV4+XLQx0BalG45bU6Vy3eVBF0vJiITXbv1zgws1/h3eVSKWkNsESvCWpckkz7PcUnJLDL7QGkvva01DIrG1UoEl59m30Tv0qOFpWwtAiQ0g9coxFCrOXdu5Hbi6Xe3iRuM3ga2cruQvBuTZWGt9lRoGrhKi/1aGywJlEK/ToZeKg==","691f8ca61c6b4dcbb0aeb5f4","691fb4aca585db83fa79a983","index1","<span style='color:red'>Fail,<span style='color:red'>Fail,<span style='color:green'>Lift,<span style='color:green'>Lift,<span style='color:red'>Fail,<span style='color:red'>Fail,<span style='color:red'>Fail,<span style='color:red'>Fail,<span style='color:red'>Fail,<span style='color:green'>Lift,<span style='color:green'>Lift,<span style='color:red'>Fail","<span style='color:red'>Fail,<span style='color:red'>Fail,<span style='color:green'>Lift,<span style='color:green'>Lift,<span style='color:green'>Lift,<span style='color:green'>Lift,<span style='color:red'>Fail,<span style='color:green'>Lift,<span style='color:green'>Lift,<span style='color:green'>Lift,<span style='color:green'>Lift,<span style='color:red'>Fail","<span style='color:red'>Fail,<span style='color:green'>Lift,<span style='color:green'>Lift,<span style='color:red'>Fail,<span style='color:green'>Lift,<span style='color:green'>Lift","0,0,1,1,0,0,0,0,0,1,1,0","0,0,1,1,1,1,0,1,1,1,1,0","0,1,1,0,1,1",10,20,20,"","","","","{""box1"":""7"",""box2"":""8"",""box3"":""50"",""box4"":""50""}","",NA,2,"round3_lift",5,1,3,7,8,50,50,1,1,20,NA,NA,NA,NA,NA,NA,NA,NA,NA,NA,NA,NA,NA,NA,NA,NA,NA,NA,NA,NA,7,8,50,50,1,1,20,NA,NA,"",NA,NA,NA,NA,NA,NA,NA,NA,2025-11-21 00:52:23
"null","https://psyc-201.github.io/xiang2023/exp/index1.html?PROLIFIC_PID=REDACTED&STUDY_ID=691f8ca61c6b4dcbb0aeb5f4&SESSION_ID=691fb4aca585db83fa79a983","html-keyboard-response",17,383369,"0.0-316.0","rdzOKhu5ux3tKysdPmaAHRBjZ+0XsH9pRgxFXQ9m5Z06z0aRwT+yKhs9lYc3uUCCqz9a/TzDdpkUhPhmeWJlqbaNOZuPLvJ4oEDYFRUXOItZ2t9q7Q0fuLMNCqfoaKh41E3e5nm8ICGk+fv0/qEFluA+qkP9g5wAph9XP2yqamV4+XLQx0BalG45bU6Vy3eVBF0vJiITXbv1zgws1/h3eVSKWkNsESvCWpckkz7PcUnJLDL7QGkvva01DIrG1UoEl59m30Tv0qOFpWwtAiQ0g9coxFCrOXdu5Hbi6Xe3iRuM3ga2cruQvBuTZWGt9lRoGrhKi/1aGywJlEK/ToZeKg==","691f8ca61c6b4dcbb0aeb5f4","691fb4aca585db83fa79a983","index1","<span style='color:red'>Fail,<span style='color:red'>Fail,<span style='color:green'>Lift,<span style='color:green'>Lift,<span style='color:red'>Fail,<span style='color:red'>Fail,<span style='color:red'>Fail,<span style='color:red'>Fail,<span style='color:red'>Fail,<span style='color:green'>Lift,<span style='color:green'>Lift,<span style='color:red'>Fail","<span style='color:red'>Fail,<span style='color:red'>Fail,<span style='color:green'>Lift,<span style='color:green'>Lift,<span style='color:green'>Lift,<span style='color:green'>Lift,<span style='color:red'>Fail,<span style='color:green'>Lift,<span style='color:green'>Lift,<span style='color:green'>Lift,<span style='color:green'>Lift,<span style='color:red'>Fail","<span style='color:red'>Fail,<span style='color:green'>Lift,<span style='color:green'>Lift,<span style='color:red'>Fail,<span style='color:green'>Lift,<span style='color:green'>Lift","0,0,1,1,0,0,0,0,0,1,1,0","0,0,1,1,1,1,0,1,1,1,1,0","0,1,1,0,1,1",10,20,20,"","","<p style='font-size:30px'><b> New Contest! </b></p>","null","","",NA,2,"",NA,NA,NA,NA,NA,NA,NA,NA,NA,NA,NA,NA,NA,NA,NA,NA,NA,NA,NA,NA,NA,NA,NA,NA,NA,NA,NA,NA,NA,NA,NA,NA,NA,NA,NA,NA,NA,NA,NA,"",NA,NA,NA,NA,NA,NA,NA,NA,2025-11-21 00:52:23
"9692.89999999851","https://psyc-201.github.io/xiang2023/exp/index1.html?PROLIFIC_PID=REDACTED&STUDY_ID=691f8ca61c6b4dcbb0aeb5f4&SESSION_ID=691fb4aca585db83fa79a983","survey-html-form",18,393064,"0.0-317.0","rdzOKhu5ux3tKysdPmaAHRBjZ+0XsH9pRgxFXQ9m5Z06z0aRwT+yKhs9lYc3uUCCqz9a/TzDdpkUhPhmeWJlqbaNOZuPLvJ4oEDYFRUXOItZ2t9q7Q0fuLMNCqfoaKh41E3e5nm8ICGk+fv0/qEFluA+qkP9g5wAph9XP2yqamV4+XLQx0BalG45bU6Vy3eVBF0vJiITXbv1zgws1/h3eVSKWkNsESvCWpckkz7PcUnJLDL7QGkvva01DIrG1UoEl59m30Tv0qOFpWwtAiQ0g9coxFCrOXdu5Hbi6Xe3iRuM3ga2cruQvBuTZWGt9lRoGrhKi/1aGywJlEK/ToZeKg==","691f8ca61c6b4dcbb0aeb5f4","691fb4aca585db83fa79a983","index1","<span style='color:red'>Fail,<span style='color:red'>Fail,<span style='color:green'>Lift,<span style='color:green'>Lift,<span style='color:red'>Fail,<span style='color:red'>Fail,<span style='color:red'>Fail,<span style='color:red'>Fail,<span style='color:red'>Fail,<span style='color:green'>Lift,<span style='color:green'>Lift,<span style='color:red'>Fail","<span style='color:red'>Fail,<span style='color:red'>Fail,<span style='color:green'>Lift,<span style='color:green'>Lift,<span style='color:green'>Lift,<span style='color:green'>Lift,<span style='color:red'>Fail,<span style='color:green'>Lift,<span style='color:green'>Lift,<span style='color:green'>Lift,<span style='color:green'>Lift,<span style='color:red'>Fail","<span style='color:red'>Fail,<span style='color:green'>Lift,<span style='color:green'>Lift,<span style='color:red'>Fail,<span style='color:green'>Lift,<span style='color:green'>Lift","0,0,1,1,0,0,0,0,0,1,1,0","0,0,1,1,1,1,0,1,1,1,1,0","0,1,1,0,1,1",10,20,20,"","","","","{""box1"":""3"",""box2"":""2""}","",NA,2,"round1_outcome",1,2,1,3,2,NA,NA,0,0,10,3,2,NA,NA,0,0,10,NA,NA,NA,NA,NA,NA,NA,NA,NA,NA,NA,NA,NA,NA,NA,NA,NA,NA,NA,NA,NA,NA,"",NA,NA,NA,NA,NA,NA,NA,NA,2025-11-21 00:52:23
"14555","https://psyc-201.github.io/xiang2023/exp/index1.html?PROLIFIC_PID=REDACTED&STUDY_ID=691f8ca61c6b4dcbb0aeb5f4&SESSION_ID=691fb4aca585db83fa79a983","survey-html-form",19,407620,"0.0-318.0","rdzOKhu5ux3tKysdPmaAHRBjZ+0XsH9pRgxFXQ9m5Z06z0aRwT+yKhs9lYc3uUCCqz9a/TzDdpkUhPhmeWJlqbaNOZuPLvJ4oEDYFRUXOItZ2t9q7Q0fuLMNCqfoaKh41E3e5nm8ICGk+fv0/qEFluA+qkP9g5wAph9XP2yqamV4+XLQx0BalG45bU6Vy3eVBF0vJiITXbv1zgws1/h3eVSKWkNsESvCWpckkz7PcUnJLDL7QGkvva01DIrG1UoEl59m30Tv0qOFpWwtAiQ0g9coxFCrOXdu5Hbi6Xe3iRuM3ga2cruQvBuTZWGt9lRoGrhKi/1aGywJlEK/ToZeKg==","691f8ca61c6b4dcbb0aeb5f4","691fb4aca585db83fa79a983","index1","<span style='color:red'>Fail,<span style='color:red'>Fail,<span style='color:green'>Lift,<span style='color:green'>Lift,<span style='color:red'>Fail,<span style='color:red'>Fail,<span style='color:red'>Fail,<span style='color:red'>Fail,<span style='color:red'>Fail,<span style='color:green'>Lift,<span style='color:green'>Lift,<span style='color:red'>Fail","<span style='color:red'>Fail,<span style='color:red'>Fail,<span style='color:green'>Lift,<span style='color:green'>Lift,<span style='color:green'>Lift,<span style='color:green'>Lift,<span style='color:red'>Fail,<span style='color:green'>Lift,<span style='color:green'>Lift,<span style='color:green'>Lift,<span style='color:green'>Lift,<span style='color:red'>Fail","<span style='color:red'>Fail,<span style='color:green'>Lift,<span style='color:green'>Lift,<span style='color:red'>Fail,<span style='color:green'>Lift,<span style='color:green'>Lift","0,0,1,1,0,0,0,0,0,1,1,0","0,0,1,1,1,1,0,1,1,1,1,0","0,1,1,0,1,1",10,20,20,"","","","","{""box1"":""60"",""box2"":""50""}","",NA,2,"round2_ready",2,2,2,NA,NA,NA,NA,NA,NA,NA,NA,NA,NA,NA,NA,NA,NA,60,50,60,50,NA,NA,NA,NA,NA,NA,NA,NA,NA,NA,NA,NA,NA,NA,NA,NA,NA,NA,"",NA,NA,NA,NA,NA,NA,NA,NA,2025-11-21 00:52:23
"15890","https://psyc-201.github.io/xiang2023/exp/index1.html?PROLIFIC_PID=REDACTED&STUDY_ID=691f8ca61c6b4dcbb0aeb5f4&SESSION_ID=691fb4aca585db83fa79a983","survey-html-form",20,423512,"0.0-319.0","rdzOKhu5ux3tKysdPmaAHRBjZ+0XsH9pRgxFXQ9m5Z06z0aRwT+yKhs9lYc3uUCCqz9a/TzDdpkUhPhmeWJlqbaNOZuPLvJ4oEDYFRUXOItZ2t9q7Q0fuLMNCqfoaKh41E3e5nm8ICGk+fv0/qEFluA+qkP9g5wAph9XP2yqamV4+XLQx0BalG45bU6Vy3eVBF0vJiITXbv1zgws1/h3eVSKWkNsESvCWpckkz7PcUnJLDL7QGkvva01DIrG1UoEl59m30Tv0qOFpWwtAiQ0g9coxFCrOXdu5Hbi6Xe3iRuM3ga2cruQvBuTZWGt9lRoGrhKi/1aGywJlEK/ToZeKg==","691f8ca61c6b4dcbb0aeb5f4","691fb4aca585db83fa79a983","index1","<span style='color:red'>Fail,<span style='color:red'>Fail,<span style='color:green'>Lift,<span style='color:green'>Lift,<span style='color:red'>Fail,<span style='color:red'>Fail,<span style='color:red'>Fail,<span style='color:red'>Fail,<span style='color:red'>Fail,<span style='color:green'>Lift,<span style='color:green'>Lift,<span style='color:red'>Fail","<span style='color:red'>Fail,<span style='color:red'>Fail,<span style='color:green'>Lift,<span style='color:green'>Lift,<span style='color:green'>Lift,<span style='color:green'>Lift,<span style='color:red'>Fail,<span style='color:green'>Lift,<span style='color:green'>Lift,<span style='color:green'>Lift,<span style='color:green'>Lift,<span style='color:red'>Fail","<span style='color:red'>Fail,<span style='color:green'>Lift,<span style='color:green'>Lift,<span style='color:red'>Fail,<span style='color:green'>Lift,<span style='color:green'>Lift","0,0,1,1,0,0,0,0,0,1,1,0","0,0,1,1,1,1,0,1,1,1,1,0","0,1,1,0,1,1",10,20,20,"","","","","{""box1"":""3"",""box2"":""5"",""box4"":""98""}","",NA,2,"round2_outcome",3,2,2,3,5,NA,98,0,1,20,NA,NA,NA,NA,NA,NA,NA,NA,NA,NA,NA,3,5,NA,98,0,1,20,NA,NA,NA,NA,NA,NA,NA,NA,NA,NA,NA,"",NA,NA,NA,NA,NA,NA,NA,NA,2025-11-21 00:52:23
"6284.89999999851","https://psyc-201.github.io/xiang2023/exp/index1.html?PROLIFIC_PID=REDACTED&STUDY_ID=691f8ca61c6b4dcbb0aeb5f4&SESSION_ID=691fb4aca585db83fa79a983","survey-html-form",21,429798,"0.0-320.0","rdzOKhu5ux3tKysdPmaAHRBjZ+0XsH9pRgxFXQ9m5Z06z0aRwT+yKhs9lYc3uUCCqz9a/TzDdpkUhPhmeWJlqbaNOZuPLvJ4oEDYFRUXOItZ2t9q7Q0fuLMNCqfoaKh41E3e5nm8ICGk+fv0/qEFluA+qkP9g5wAph9XP2yqamV4+XLQx0BalG45bU6Vy3eVBF0vJiITXbv1zgws1/h3eVSKWkNsESvCWpckkz7PcUnJLDL7QGkvva01DIrG1UoEl59m30Tv0qOFpWwtAiQ0g9coxFCrOXdu5Hbi6Xe3iRuM3ga2cruQvBuTZWGt9lRoGrhKi/1aGywJlEK/ToZeKg==","691f8ca61c6b4dcbb0aeb5f4","691fb4aca585db83fa79a983","index1","<span style='color:red'>Fail,<span style='color:red'>Fail,<span style='color:green'>Lift,<span style='color:green'>Lift,<span style='color:red'>Fail,<span style='color:red'>Fail,<span style='color:red'>Fail,<span style='color:red'>Fail,<span style='color:red'>Fail,<span style='color:green'>Lift,<span style='color:green'>Lift,<span style='color:red'>Fail","<span style='color:red'>Fail,<span style='color:red'>Fail,<span style='color:green'>Lift,<span style='color:green'>Lift,<span style='color:green'>Lift,<span style='color:green'>Lift,<span style='color:red'>Fail,<span style='color:green'>Lift,<span style='color:green'>Lift,<span style='color:green'>Lift,<span style='color:green'>Lift,<span style='color:red'>Fail","<span style='color:red'>Fail,<span style='color:green'>Lift,<span style='color:green'>Lift,<span style='color:red'>Fail,<span style='color:green'>Lift,<span style='color:green'>Lift","0,0,1,1,0,0,0,0,0,1,1,0","0,0,1,1,1,1,0,1,1,1,1,0","0,1,1,0,1,1",10,20,20,"","","","","{""box1"":""62""}","",NA,2,"round3_ready",4,2,3,NA,NA,NA,NA,NA,NA,NA,NA,NA,NA,NA,NA,NA,NA,62,62,NA,NA,NA,NA,NA,NA,NA,NA,NA,62,62,NA,NA,NA,NA,NA,NA,NA,NA,NA,"",NA,NA,NA,NA,NA,NA,NA,NA,2025-11-21 00:52:23
"19802.29999999702","https://psyc-201.github.io/xiang2023/exp/index1.html?PROLIFIC_PID=REDACTED&STUDY_ID=691f8ca61c6b4dcbb0aeb5f4&SESSION_ID=691fb4aca585db83fa79a983","survey-html-form",22,449604,"0.0-322.0-0.0","rdzOKhu5ux3tKysdPmaAHRBjZ+0XsH9pRgxFXQ9m5Z06z0aRwT+yKhs9lYc3uUCCqz9a/TzDdpkUhPhmeWJlqbaNOZuPLvJ4oEDYFRUXOItZ2t9q7Q0fuLMNCqfoaKh41E3e5nm8ICGk+fv0/qEFluA+qkP9g5wAph9XP2yqamV4+XLQx0BalG45bU6Vy3eVBF0vJiITXbv1zgws1/h3eVSKWkNsESvCWpckkz7PcUnJLDL7QGkvva01DIrG1UoEl59m30Tv0qOFpWwtAiQ0g9coxFCrOXdu5Hbi6Xe3iRuM3ga2cruQvBuTZWGt9lRoGrhKi/1aGywJlEK/ToZeKg==","691f8ca61c6b4dcbb0aeb5f4","691fb4aca585db83fa79a983","index1","<span style='color:red'>Fail,<span style='color:red'>Fail,<span style='color:green'>Lift,<span style='color:green'>Lift,<span style='color:red'>Fail,<span style='color:red'>Fail,<span style='color:red'>Fail,<span style='color:red'>Fail,<span style='color:red'>Fail,<span style='color:green'>Lift,<span style='color:green'>Lift,<span style='color:red'>Fail","<span style='color:red'>Fail,<span style='color:red'>Fail,<span style='color:green'>Lift,<span style='color:green'>Lift,<span style='color:green'>Lift,<span style='color:green'>Lift,<span style='color:red'>Fail,<span style='color:green'>Lift,<span style='color:green'>Lift,<span style='color:green'>Lift,<span style='color:green'>Lift,<span style='color:red'>Fail","<span style='color:red'>Fail,<span style='color:green'>Lift,<span style='color:green'>Lift,<span style='color:red'>Fail,<span style='color:green'>Lift,<span style='color:green'>Lift","0,0,1,1,0,0,0,0,0,1,1,0","0,0,1,1,1,1,0,1,1,1,1,0","0,1,1,0,1,1",10,20,20,"","","","","{""box1"":""3"",""box2"":""4"",""box3"":""999"",""box4"":""999""}","",NA,3,"round3_fail",5,2,3,3,4,NA,NA,0,0,20,NA,NA,NA,NA,NA,NA,NA,NA,NA,NA,NA,NA,NA,NA,NA,NA,NA,NA,NA,NA,3,4,NA,NA,0,0,20,1,1,"",NA,NA,NA,NA,NA,NA,NA,NA,2025-11-21 00:52:23
"null","https://psyc-201.github.io/xiang2023/exp/index1.html?PROLIFIC_PID=REDACTED&STUDY_ID=691f8ca61c6b4dcbb0aeb5f4&SESSION_ID=691fb4aca585db83fa79a983","html-keyboard-response",23,452609,"0.0-325.0","rdzOKhu5ux3tKysdPmaAHRBjZ+0XsH9pRgxFXQ9m5Z06z0aRwT+yKhs9lYc3uUCCqz9a/TzDdpkUhPhmeWJlqbaNOZuPLvJ4oEDYFRUXOItZ2t9q7Q0fuLMNCqfoaKh41E3e5nm8ICGk+fv0/qEFluA+qkP9g5wAph9XP2yqamV4+XLQx0BalG45bU6Vy3eVBF0vJiITXbv1zgws1/h3eVSKWkNsESvCWpckkz7PcUnJLDL7QGkvva01DIrG1UoEl59m30Tv0qOFpWwtAiQ0g9coxFCrOXdu5Hbi6Xe3iRuM3ga2cruQvBuTZWGt9lRoGrhKi/1aGywJlEK/ToZeKg==","691f8ca61c6b4dcbb0aeb5f4","691fb4aca585db83fa79a983","index1","<span style='color:red'>Fail,<span style='color:red'>Fail,<span style='color:green'>Lift,<span style='color:green'>Lift,<span style='color:red'>Fail,<span style='color:red'>Fail,<span style='color:red'>Fail,<span style='color:red'>Fail,<span style='color:red'>Fail,<span style='color:green'>Lift,<span style='color:green'>Lift,<span style='color:red'>Fail","<span style='color:red'>Fail,<span style='color:red'>Fail,<span style='color:green'>Lift,<span style='color:green'>Lift,<span style='color:green'>Lift,<span style='color:green'>Lift,<span style='color:red'>Fail,<span style='color:green'>Lift,<span style='color:green'>Lift,<span style='color:green'>Lift,<span style='color:green'>Lift,<span style='color:red'>Fail","<span style='color:red'>Fail,<span style='color:green'>Lift,<span style='color:green'>Lift,<span style='color:red'>Fail,<span style='color:green'>Lift,<span style='color:green'>Lift","0,0,1,1,0,0,0,0,0,1,1,0","0,0,1,1,1,1,0,1,1,1,1,0","0,1,1,0,1,1",10,20,20,"","","<p style='font-size:30px'><b> New Contest! </b></p>","null","","",NA,3,"",NA,NA,NA,NA,NA,NA,NA,NA,NA,NA,NA,NA,NA,NA,NA,NA,NA,NA,NA,NA,NA,NA,NA,NA,NA,NA,NA,NA,NA,NA,NA,NA,NA,NA,NA,NA,NA,NA,NA,"",NA,NA,NA,NA,NA,NA,NA,NA,2025-11-21 00:52:23
"6540.80000000447","https://psyc-201.github.io/xiang2023/exp/index1.html?PROLIFIC_PID=REDACTED&STUDY_ID=691f8ca61c6b4dcbb0aeb5f4&SESSION_ID=691fb4aca585db83fa79a983","survey-html-form",24,459152,"0.0-326.0","rdzOKhu5ux3tKysdPmaAHRBjZ+0XsH9pRgxFXQ9m5Z06z0aRwT+yKhs9lYc3uUCCqz9a/TzDdpkUhPhmeWJlqbaNOZuPLvJ4oEDYFRUXOItZ2t9q7Q0fuLMNCqfoaKh41E3e5nm8ICGk+fv0/qEFluA+qkP9g5wAph9XP2yqamV4+XLQx0BalG45bU6Vy3eVBF0vJiITXbv1zgws1/h3eVSKWkNsESvCWpckkz7PcUnJLDL7QGkvva01DIrG1UoEl59m30Tv0qOFpWwtAiQ0g9coxFCrOXdu5Hbi6Xe3iRuM3ga2cruQvBuTZWGt9lRoGrhKi/1aGywJlEK/ToZeKg==","691f8ca61c6b4dcbb0aeb5f4","691fb4aca585db83fa79a983","index1","<span style='color:red'>Fail,<span style='color:red'>Fail,<span style='color:green'>Lift,<span style='color:green'>Lift,<span style='color:red'>Fail,<span style='color:red'>Fail,<span style='color:red'>Fail,<span style='color:red'>Fail,<span style='color:red'>Fail,<span style='color:green'>Lift,<span style='color:green'>Lift,<span style='color:red'>Fail","<span style='color:red'>Fail,<span style='color:red'>Fail,<span style='color:green'>Lift,<span style='color:green'>Lift,<span style='color:green'>Lift,<span style='color:green'>Lift,<span style='color:red'>Fail,<span style='color:green'>Lift,<span style='color:green'>Lift,<span style='color:green'>Lift,<span style='color:green'>Lift,<span style='color:red'>Fail","<span style='color:red'>Fail,<span style='color:green'>Lift,<span style='color:green'>Lift,<span style='color:red'>Fail,<span style='color:green'>Lift,<span style='color:green'>Lift","0,0,1,1,0,0,0,0,0,1,1,0","0,0,1,1,1,1,0,1,1,1,1,0","0,1,1,0,1,1",10,20,20,"","","","","{""box1"":""2"",""box2"":""3""}","",NA,3,"round1_outcome",1,3,1,2,3,NA,NA,0,0,10,2,3,NA,NA,0,0,10,NA,NA,NA,NA,NA,NA,NA,NA,NA,NA,NA,NA,NA,NA,NA,NA,NA,NA,NA,NA,NA,NA,"",NA,NA,NA,NA,NA,NA,NA,NA,2025-11-21 00:52:23
"11689.60000000149","https://psyc-201.github.io/xiang2023/exp/index1.html?PROLIFIC_PID=REDACTED&STUDY_ID=691f8ca61c6b4dcbb0aeb5f4&SESSION_ID=691fb4aca585db83fa79a983","survey-html-form",25,470843,"0.0-327.0","rdzOKhu5ux3tKysdPmaAHRBjZ+0XsH9pRgxFXQ9m5Z06z0aRwT+yKhs9lYc3uUCCqz9a/TzDdpkUhPhmeWJlqbaNOZuPLvJ4oEDYFRUXOItZ2t9q7Q0fuLMNCqfoaKh41E3e5nm8ICGk+fv0/qEFluA+qkP9g5wAph9XP2yqamV4+XLQx0BalG45bU6Vy3eVBF0vJiITXbv1zgws1/h3eVSKWkNsESvCWpckkz7PcUnJLDL7QGkvva01DIrG1UoEl59m30Tv0qOFpWwtAiQ0g9coxFCrOXdu5Hbi6Xe3iRuM3ga2cruQvBuTZWGt9lRoGrhKi/1aGywJlEK/ToZeKg==","691f8ca61c6b4dcbb0aeb5f4","691fb4aca585db83fa79a983","index1","<span style='color:red'>Fail,<span style='color:red'>Fail,<span style='color:green'>Lift,<span style='color:green'>Lift,<span style='color:red'>Fail,<span style='color:red'>Fail,<span style='color:red'>Fail,<span style='color:red'>Fail,<span style='color:red'>Fail,<span style='color:green'>Lift,<span style='color:green'>Lift,<span style='color:red'>Fail","<span style='color:red'>Fail,<span style='color:red'>Fail,<span style='color:green'>Lift,<span style='color:green'>Lift,<span style='color:green'>Lift,<span style='color:green'>Lift,<span style='color:red'>Fail,<span style='color:green'>Lift,<span style='color:green'>Lift,<span style='color:green'>Lift,<span style='color:green'>Lift,<span style='color:red'>Fail","<span style='color:red'>Fail,<span style='color:green'>Lift,<span style='color:green'>Lift,<span style='color:red'>Fail,<span style='color:green'>Lift,<span style='color:green'>Lift","0,0,1,1,0,0,0,0,0,1,1,0","0,0,1,1,1,1,0,1,1,1,1,0","0,1,1,0,1,1",10,20,20,"","","","","{""box1"":""30"",""box2"":""80""}","",NA,3,"round2_ready",2,3,2,NA,NA,NA,NA,NA,NA,NA,NA,NA,NA,NA,NA,NA,NA,30,80,30,80,NA,NA,NA,NA,NA,NA,NA,NA,NA,NA,NA,NA,NA,NA,NA,NA,NA,NA,"",NA,NA,NA,NA,NA,NA,NA,NA,2025-11-21 00:52:23
"7879.39999999851","https://psyc-201.github.io/xiang2023/exp/index1.html?PROLIFIC_PID=REDACTED&STUDY_ID=691f8ca61c6b4dcbb0aeb5f4&SESSION_ID=691fb4aca585db83fa79a983","survey-html-form",26,478724,"0.0-328.0","rdzOKhu5ux3tKysdPmaAHRBjZ+0XsH9pRgxFXQ9m5Z06z0aRwT+yKhs9lYc3uUCCqz9a/TzDdpkUhPhmeWJlqbaNOZuPLvJ4oEDYFRUXOItZ2t9q7Q0fuLMNCqfoaKh41E3e5nm8ICGk+fv0/qEFluA+qkP9g5wAph9XP2yqamV4+XLQx0BalG45bU6Vy3eVBF0vJiITXbv1zgws1/h3eVSKWkNsESvCWpckkz7PcUnJLDL7QGkvva01DIrG1UoEl59m30Tv0qOFpWwtAiQ0g9coxFCrOXdu5Hbi6Xe3iRuM3ga2cruQvBuTZWGt9lRoGrhKi/1aGywJlEK/ToZeKg==","691f8ca61c6b4dcbb0aeb5f4","691fb4aca585db83fa79a983","index1","<span style='color:red'>Fail,<span style='color:red'>Fail,<span style='color:green'>Lift,<span style='color:green'>Lift,<span style='color:red'>Fail,<span style='color:red'>Fail,<span style='color:red'>Fail,<span style='color:red'>Fail,<span style='color:red'>Fail,<span style='color:green'>Lift,<span style='color:green'>Lift,<span style='color:red'>Fail","<span style='color:red'>Fail,<span style='color:red'>Fail,<span style='color:green'>Lift,<span style='color:green'>Lift,<span style='color:green'>Lift,<span style='color:green'>Lift,<span style='color:red'>Fail,<span style='color:green'>Lift,<span style='color:green'>Lift,<span style='color:green'>Lift,<span style='color:green'>Lift,<span style='color:red'>Fail","<span style='color:red'>Fail,<span style='color:green'>Lift,<span style='color:green'>Lift,<span style='color:red'>Fail,<span style='color:green'>Lift,<span style='color:green'>Lift","0,0,1,1,0,0,0,0,0,1,1,0","0,0,1,1,1,1,0,1,1,1,1,0","0,1,1,0,1,1",10,20,20,"","","","","{""box1"":""2"",""box2"":""2""}","",NA,3,"round2_outcome",3,3,2,2,2,NA,NA,0,0,20,NA,NA,NA,NA,NA,NA,NA,NA,NA,NA,NA,2,2,NA,NA,0,0,20,NA,NA,NA,NA,NA,NA,NA,NA,NA,NA,NA,"",NA,NA,NA,NA,NA,NA,NA,NA,2025-11-21 00:52:23
"5702.19999999553","https://psyc-201.github.io/xiang2023/exp/index1.html?PROLIFIC_PID=REDACTED&STUDY_ID=691f8ca61c6b4dcbb0aeb5f4&SESSION_ID=691fb4aca585db83fa79a983","survey-html-form",27,484428,"0.0-329.0","rdzOKhu5ux3tKysdPmaAHRBjZ+0XsH9pRgxFXQ9m5Z06z0aRwT+yKhs9lYc3uUCCqz9a/TzDdpkUhPhmeWJlqbaNOZuPLvJ4oEDYFRUXOItZ2t9q7Q0fuLMNCqfoaKh41E3e5nm8ICGk+fv0/qEFluA+qkP9g5wAph9XP2yqamV4+XLQx0BalG45bU6Vy3eVBF0vJiITXbv1zgws1/h3eVSKWkNsESvCWpckkz7PcUnJLDL7QGkvva01DIrG1UoEl59m30Tv0qOFpWwtAiQ0g9coxFCrOXdu5Hbi6Xe3iRuM3ga2cruQvBuTZWGt9lRoGrhKi/1aGywJlEK/ToZeKg==","691f8ca61c6b4dcbb0aeb5f4","691fb4aca585db83fa79a983","index1","<span style='color:red'>Fail,<span style='color:red'>Fail,<span style='color:green'>Lift,<span style='color:green'>Lift,<span style='color:red'>Fail,<span style='color:red'>Fail,<span style='color:red'>Fail,<span style='color:red'>Fail,<span style='color:red'>Fail,<span style='color:green'>Lift,<span style='color:green'>Lift,<span style='color:red'>Fail","<span style='color:red'>Fail,<span style='color:red'>Fail,<span style='color:green'>Lift,<span style='color:green'>Lift,<span style='color:green'>Lift,<span style='color:green'>Lift,<span style='color:red'>Fail,<span style='color:green'>Lift,<span style='color:green'>Lift,<span style='color:green'>Lift,<span style='color:green'>Lift,<span style='color:red'>Fail","<span style='color:red'>Fail,<span style='color:green'>Lift,<span style='color:green'>Lift,<span style='color:red'>Fail,<span style='color:green'>Lift,<span style='color:green'>Lift","0,0,1,1,0,0,0,0,0,1,1,0","0,0,1,1,1,1,0,1,1,1,1,0","0,1,1,0,1,1",10,20,20,"","","","","{""box1"":""10""}","",NA,3,"round3_ready",4,3,3,NA,NA,NA,NA,NA,NA,NA,NA,NA,NA,NA,NA,NA,NA,10,10,NA,NA,NA,NA,NA,NA,NA,NA,NA,10,10,NA,NA,NA,NA,NA,NA,NA,NA,NA,"",NA,NA,NA,NA,NA,NA,NA,NA,2025-11-21 00:52:23
"12158.69999999553","https://psyc-201.github.io/xiang2023/exp/index1.html?PROLIFIC_PID=REDACTED&STUDY_ID=691f8ca61c6b4dcbb0aeb5f4&SESSION_ID=691fb4aca585db83fa79a983","survey-html-form",28,496588,"0.0-331.0-0.0","rdzOKhu5ux3tKysdPmaAHRBjZ+0XsH9pRgxFXQ9m5Z06z0aRwT+yKhs9lYc3uUCCqz9a/TzDdpkUhPhmeWJlqbaNOZuPLvJ4oEDYFRUXOItZ2t9q7Q0fuLMNCqfoaKh41E3e5nm8ICGk+fv0/qEFluA+qkP9g5wAph9XP2yqamV4+XLQx0BalG45bU6Vy3eVBF0vJiITXbv1zgws1/h3eVSKWkNsESvCWpckkz7PcUnJLDL7QGkvva01DIrG1UoEl59m30Tv0qOFpWwtAiQ0g9coxFCrOXdu5Hbi6Xe3iRuM3ga2cruQvBuTZWGt9lRoGrhKi/1aGywJlEK/ToZeKg==","691f8ca61c6b4dcbb0aeb5f4","691fb4aca585db83fa79a983","index1","<span style='color:red'>Fail,<span style='color:red'>Fail,<span style='color:green'>Lift,<span style='color:green'>Lift,<span style='color:red'>Fail,<span style='color:red'>Fail,<span style='color:red'>Fail,<span style='color:red'>Fail,<span style='color:red'>Fail,<span style='color:green'>Lift,<span style='color:green'>Lift,<span style='color:red'>Fail","<span style='color:red'>Fail,<span style='color:red'>Fail,<span style='color:green'>Lift,<span style='color:green'>Lift,<span style='color:green'>Lift,<span style='color:green'>Lift,<span style='color:red'>Fail,<span style='color:green'>Lift,<span style='color:green'>Lift,<span style='color:green'>Lift,<span style='color:green'>Lift,<span style='color:red'>Fail","<span style='color:red'>Fail,<span style='color:green'>Lift,<span style='color:green'>Lift,<span style='color:red'>Fail,<span style='color:green'>Lift,<span style='color:green'>Lift","0,0,1,1,0,0,0,0,0,1,1,0","0,0,1,1,1,1,0,1,1,1,1,0","0,1,1,0,1,1",10,20,20,"","","","","{""box1"":""2"",""box2"":""2"",""box3"":""999"",""box4"":""999""}","",NA,4,"round3_fail",5,3,3,2,2,NA,NA,0,0,20,NA,NA,NA,NA,NA,NA,NA,NA,NA,NA,NA,NA,NA,NA,NA,NA,NA,NA,NA,NA,2,2,NA,NA,0,0,20,1,1,"",NA,NA,NA,NA,NA,NA,NA,NA,2025-11-21 00:52:23
"null","https://psyc-201.github.io/xiang2023/exp/index1.html?PROLIFIC_PID=REDACTED&STUDY_ID=691f8ca61c6b4dcbb0aeb5f4&SESSION_ID=691fb4aca585db83fa79a983","html-keyboard-response",29,499593,"0.0-334.0","rdzOKhu5ux3tKysdPmaAHRBjZ+0XsH9pRgxFXQ9m5Z06z0aRwT+yKhs9lYc3uUCCqz9a/TzDdpkUhPhmeWJlqbaNOZuPLvJ4oEDYFRUXOItZ2t9q7Q0fuLMNCqfoaKh41E3e5nm8ICGk+fv0/qEFluA+qkP9g5wAph9XP2yqamV4+XLQx0BalG45bU6Vy3eVBF0vJiITXbv1zgws1/h3eVSKWkNsESvCWpckkz7PcUnJLDL7QGkvva01DIrG1UoEl59m30Tv0qOFpWwtAiQ0g9coxFCrOXdu5Hbi6Xe3iRuM3ga2cruQvBuTZWGt9lRoGrhKi/1aGywJlEK/ToZeKg==","691f8ca61c6b4dcbb0aeb5f4","691fb4aca585db83fa79a983","index1","<span style='color:red'>Fail,<span style='color:red'>Fail,<span style='color:green'>Lift,<span style='color:green'>Lift,<span style='color:red'>Fail,<span style='color:red'>Fail,<span style='color:red'>Fail,<span style='color:red'>Fail,<span style='color:red'>Fail,<span style='color:green'>Lift,<span style='color:green'>Lift,<span style='color:red'>Fail","<span style='color:red'>Fail,<span style='color:red'>Fail,<span style='color:green'>Lift,<span style='color:green'>Lift,<span style='color:green'>Lift,<span style='color:green'>Lift,<span style='color:red'>Fail,<span style='color:green'>Lift,<span style='color:green'>Lift,<span style='color:green'>Lift,<span style='color:green'>Lift,<span style='color:red'>Fail","<span style='color:red'>Fail,<span style='color:green'>Lift,<span style='color:green'>Lift,<span style='color:red'>Fail,<span style='color:green'>Lift,<span style='color:green'>Lift","0,0,1,1,0,0,0,0,0,1,1,0","0,0,1,1,1,1,0,1,1,1,1,0","0,1,1,0,1,1",10,20,20,"","","<p style='font-size:30px'><b> New Contest! </b></p>","null","","",NA,4,"",NA,NA,NA,NA,NA,NA,NA,NA,NA,NA,NA,NA,NA,NA,NA,NA,NA,NA,NA,NA,NA,NA,NA,NA,NA,NA,NA,NA,NA,NA,NA,NA,NA,NA,NA,NA,NA,NA,NA,"",NA,NA,NA,NA,NA,NA,NA,NA,2025-11-21 00:52:23
"16469.69999999553","https://psyc-201.github.io/xiang2023/exp/index1.html?PROLIFIC_PID=REDACTED&STUDY_ID=691f8ca61c6b4dcbb0aeb5f4&SESSION_ID=691fb4aca585db83fa79a983","survey-html-form",30,516064,"0.0-335.0","rdzOKhu5ux3tKysdPmaAHRBjZ+0XsH9pRgxFXQ9m5Z06z0aRwT+yKhs9lYc3uUCCqz9a/TzDdpkUhPhmeWJlqbaNOZuPLvJ4oEDYFRUXOItZ2t9q7Q0fuLMNCqfoaKh41E3e5nm8ICGk+fv0/qEFluA+qkP9g5wAph9XP2yqamV4+XLQx0BalG45bU6Vy3eVBF0vJiITXbv1zgws1/h3eVSKWkNsESvCWpckkz7PcUnJLDL7QGkvva01DIrG1UoEl59m30Tv0qOFpWwtAiQ0g9coxFCrOXdu5Hbi6Xe3iRuM3ga2cruQvBuTZWGt9lRoGrhKi/1aGywJlEK/ToZeKg==","691f8ca61c6b4dcbb0aeb5f4","691fb4aca585db83fa79a983","index1","<span style='color:red'>Fail,<span style='color:red'>Fail,<span style='color:green'>Lift,<span style='color:green'>Lift,<span style='color:red'>Fail,<span style='color:red'>Fail,<span style='color:red'>Fail,<span style='color:red'>Fail,<span style='color:red'>Fail,<span style='color:green'>Lift,<span style='color:green'>Lift,<span style='color:red'>Fail","<span style='color:red'>Fail,<span style='color:red'>Fail,<span style='color:green'>Lift,<span style='color:green'>Lift,<span style='color:green'>Lift,<span style='color:green'>Lift,<span style='color:red'>Fail,<span style='color:green'>Lift,<span style='color:green'>Lift,<span style='color:green'>Lift,<span style='color:green'>Lift,<span style='color:red'>Fail","<span style='color:red'>Fail,<span style='color:green'>Lift,<span style='color:green'>Lift,<span style='color:red'>Fail,<span style='color:green'>Lift,<span style='color:green'>Lift","0,0,1,1,0,0,0,0,0,1,1,0","0,0,1,1,1,1,0,1,1,1,1,0","0,1,1,0,1,1",10,20,20,"","","","","{""box1"":""9"",""box2"":""2"",""box3"":""40""}","",NA,4,"round1_outcome",1,4,1,9,2,40,NA,1,0,10,9,2,40,NA,1,0,10,NA,NA,NA,NA,NA,NA,NA,NA,NA,NA,NA,NA,NA,NA,NA,NA,NA,NA,NA,NA,NA,NA,"",NA,NA,NA,NA,NA,NA,NA,NA,2025-11-21 00:52:23
"16993.79999999702","https://psyc-201.github.io/xiang2023/exp/index1.html?PROLIFIC_PID=REDACTED&STUDY_ID=691f8ca61c6b4dcbb0aeb5f4&SESSION_ID=691fb4aca585db83fa79a983","survey-html-form",31,533059,"0.0-336.0","rdzOKhu5ux3tKysdPmaAHRBjZ+0XsH9pRgxFXQ9m5Z06z0aRwT+yKhs9lYc3uUCCqz9a/TzDdpkUhPhmeWJlqbaNOZuPLvJ4oEDYFRUXOItZ2t9q7Q0fuLMNCqfoaKh41E3e5nm8ICGk+fv0/qEFluA+qkP9g5wAph9XP2yqamV4+XLQx0BalG45bU6Vy3eVBF0vJiITXbv1zgws1/h3eVSKWkNsESvCWpckkz7PcUnJLDL7QGkvva01DIrG1UoEl59m30Tv0qOFpWwtAiQ0g9coxFCrOXdu5Hbi6Xe3iRuM3ga2cruQvBuTZWGt9lRoGrhKi/1aGywJlEK/ToZeKg==","691f8ca61c6b4dcbb0aeb5f4","691fb4aca585db83fa79a983","index1","<span style='color:red'>Fail,<span style='color:red'>Fail,<span style='color:green'>Lift,<span style='color:green'>Lift,<span style='color:red'>Fail,<span style='color:red'>Fail,<span style='color:red'>Fail,<span style='color:red'>Fail,<span style='color:red'>Fail,<span style='color:green'>Lift,<span style='color:green'>Lift,<span style='color:red'>Fail","<span style='color:red'>Fail,<span style='color:red'>Fail,<span style='color:green'>Lift,<span style='color:green'>Lift,<span style='color:green'>Lift,<span style='color:green'>Lift,<span style='color:red'>Fail,<span style='color:green'>Lift,<span style='color:green'>Lift,<span style='color:green'>Lift,<span style='color:green'>Lift,<span style='color:red'>Fail","<span style='color:red'>Fail,<span style='color:green'>Lift,<span style='color:green'>Lift,<span style='color:red'>Fail,<span style='color:green'>Lift,<span style='color:green'>Lift","0,0,1,1,0,0,0,0,0,1,1,0","0,0,1,1,1,1,0,1,1,1,1,0","0,1,1,0,1,1",10,20,20,"","","","","{""box1"":""90"",""box2"":""40""}","",NA,4,"round2_ready",2,4,2,NA,NA,NA,NA,NA,NA,NA,NA,NA,NA,NA,NA,NA,NA,90,40,90,40,NA,NA,NA,NA,NA,NA,NA,NA,NA,NA,NA,NA,NA,NA,NA,NA,NA,NA,"",NA,NA,NA,NA,NA,NA,NA,NA,2025-11-21 00:52:23
"11169.09999999404","https://psyc-201.github.io/xiang2023/exp/index1.html?PROLIFIC_PID=REDACTED&STUDY_ID=691f8ca61c6b4dcbb0aeb5f4&SESSION_ID=691fb4aca585db83fa79a983","survey-html-form",32,544230,"0.0-337.0","rdzOKhu5ux3tKysdPmaAHRBjZ+0XsH9pRgxFXQ9m5Z06z0aRwT+yKhs9lYc3uUCCqz9a/TzDdpkUhPhmeWJlqbaNOZuPLvJ4oEDYFRUXOItZ2t9q7Q0fuLMNCqfoaKh41E3e5nm8ICGk+fv0/qEFluA+qkP9g5wAph9XP2yqamV4+XLQx0BalG45bU6Vy3eVBF0vJiITXbv1zgws1/h3eVSKWkNsESvCWpckkz7PcUnJLDL7QGkvva01DIrG1UoEl59m30Tv0qOFpWwtAiQ0g9coxFCrOXdu5Hbi6Xe3iRuM3ga2cruQvBuTZWGt9lRoGrhKi/1aGywJlEK/ToZeKg==","691f8ca61c6b4dcbb0aeb5f4","691fb4aca585db83fa79a983","index1","<span style='color:red'>Fail,<span style='color:red'>Fail,<span style='color:green'>Lift,<span style='color:green'>Lift,<span style='color:red'>Fail,<span style='color:red'>Fail,<span style='color:red'>Fail,<span style='color:red'>Fail,<span style='color:red'>Fail,<span style='color:green'>Lift,<span style='color:green'>Lift,<span style='color:red'>Fail","<span style='color:red'>Fail,<span style='color:red'>Fail,<span style='color:green'>Lift,<span style='color:green'>Lift,<span style='color:green'>Lift,<span style='color:green'>Lift,<span style='color:red'>Fail,<span style='color:green'>Lift,<span style='color:green'>Lift,<span style='color:green'>Lift,<span style='color:green'>Lift,<span style='color:red'>Fail","<span style='color:red'>Fail,<span style='color:green'>Lift,<span style='color:green'>Lift,<span style='color:red'>Fail,<span style='color:green'>Lift,<span style='color:green'>Lift","0,0,1,1,0,0,0,0,0,1,1,0","0,0,1,1,1,1,0,1,1,1,1,0","0,1,1,0,1,1",10,20,20,"","","","","{""box1"":""9"",""box2"":""2"",""box3"":""40""}","",NA,4,"round2_outcome",3,4,2,9,2,40,NA,1,0,20,NA,NA,NA,NA,NA,NA,NA,NA,NA,NA,NA,9,2,40,NA,1,0,20,NA,NA,NA,NA,NA,NA,NA,NA,NA,NA,NA,"",NA,NA,NA,NA,NA,NA,NA,NA,2025-11-21 00:52:23
"6136.20000000298","https://psyc-201.github.io/xiang2023/exp/index1.html?PROLIFIC_PID=REDACTED&STUDY_ID=691f8ca61c6b4dcbb0aeb5f4&SESSION_ID=691fb4aca585db83fa79a983","survey-html-form",33,550368,"0.0-338.0","rdzOKhu5ux3tKysdPmaAHRBjZ+0XsH9pRgxFXQ9m5Z06z0aRwT+yKhs9lYc3uUCCqz9a/TzDdpkUhPhmeWJlqbaNOZuPLvJ4oEDYFRUXOItZ2t9q7Q0fuLMNCqfoaKh41E3e5nm8ICGk+fv0/qEFluA+qkP9g5wAph9XP2yqamV4+XLQx0BalG45bU6Vy3eVBF0vJiITXbv1zgws1/h3eVSKWkNsESvCWpckkz7PcUnJLDL7QGkvva01DIrG1UoEl59m30Tv0qOFpWwtAiQ0g9coxFCrOXdu5Hbi6Xe3iRuM3ga2cruQvBuTZWGt9lRoGrhKi/1aGywJlEK/ToZeKg==","691f8ca61c6b4dcbb0aeb5f4","691fb4aca585db83fa79a983","index1","<span style='color:red'>Fail,<span style='color:red'>Fail,<span style='color:green'>Lift,<span style='color:green'>Lift,<span style='color:red'>Fail,<span style='color:red'>Fail,<span style='color:red'>Fail,<span style='color:red'>Fail,<span style='color:red'>Fail,<span style='color:green'>Lift,<span style='color:green'>Lift,<span style='color:red'>Fail","<span style='color:red'>Fail,<span style='color:red'>Fail,<span style='color:green'>Lift,<span style='color:green'>Lift,<span style='color:green'>Lift,<span style='color:green'>Lift,<span style='color:red'>Fail,<span style='color:green'>Lift,<span style='color:green'>Lift,<span style='color:green'>Lift,<span style='color:green'>Lift,<span style='color:red'>Fail","<span style='color:red'>Fail,<span style='color:green'>Lift,<span style='color:green'>Lift,<span style='color:red'>Fail,<span style='color:green'>Lift,<span style='color:green'>Lift","0,0,1,1,0,0,0,0,0,1,1,0","0,0,1,1,1,1,0,1,1,1,1,0","0,1,1,0,1,1",10,20,20,"","","","","{""box1"":""60""}","",NA,4,"round3_ready",4,4,3,NA,NA,NA,NA,NA,NA,NA,NA,NA,NA,NA,NA,NA,NA,60,60,NA,NA,NA,NA,NA,NA,NA,NA,NA,60,60,NA,NA,NA,NA,NA,NA,NA,NA,NA,"",NA,NA,NA,NA,NA,NA,NA,NA,2025-11-21 00:52:23
"17988.70000000298","https://psyc-201.github.io/xiang2023/exp/index1.html?PROLIFIC_PID=REDACTED&STUDY_ID=691f8ca61c6b4dcbb0aeb5f4&SESSION_ID=691fb4aca585db83fa79a983","survey-html-form",34,568358,"0.0-339.0-0.0","rdzOKhu5ux3tKysdPmaAHRBjZ+0XsH9pRgxFXQ9m5Z06z0aRwT+yKhs9lYc3uUCCqz9a/TzDdpkUhPhmeWJlqbaNOZuPLvJ4oEDYFRUXOItZ2t9q7Q0fuLMNCqfoaKh41E3e5nm8ICGk+fv0/qEFluA+qkP9g5wAph9XP2yqamV4+XLQx0BalG45bU6Vy3eVBF0vJiITXbv1zgws1/h3eVSKWkNsESvCWpckkz7PcUnJLDL7QGkvva01DIrG1UoEl59m30Tv0qOFpWwtAiQ0g9coxFCrOXdu5Hbi6Xe3iRuM3ga2cruQvBuTZWGt9lRoGrhKi/1aGywJlEK/ToZeKg==","691f8ca61c6b4dcbb0aeb5f4","691fb4aca585db83fa79a983","index1","<span style='color:red'>Fail,<span style='color:red'>Fail,<span style='color:green'>Lift,<span style='color:green'>Lift,<span style='color:red'>Fail,<span style='color:red'>Fail,<span style='color:red'>Fail,<span style='color:red'>Fail,<span style='color:red'>Fail,<span style='color:green'>Lift,<span style='color:green'>Lift,<span style='color:red'>Fail","<span style='color:red'>Fail,<span style='color:red'>Fail,<span style='color:green'>Lift,<span style='color:green'>Lift,<span style='color:green'>Lift,<span style='color:green'>Lift,<span style='color:red'>Fail,<span style='color:green'>Lift,<span style='color:green'>Lift,<span style='color:green'>Lift,<span style='color:green'>Lift,<span style='color:red'>Fail","<span style='color:red'>Fail,<span style='color:green'>Lift,<span style='color:green'>Lift,<span style='color:red'>Fail,<span style='color:green'>Lift,<span style='color:green'>Lift","0,0,1,1,0,0,0,0,0,1,1,0","0,0,1,1,1,1,0,1,1,1,1,0","0,1,1,0,1,1",10,20,20,"","","","","{""box1"":""9"",""box2"":""5"",""box3"":""40"",""box4"":""100""}","",NA,5,"round3_lift",5,4,3,9,5,40,100,1,1,20,NA,NA,NA,NA,NA,NA,NA,NA,NA,NA,NA,NA,NA,NA,NA,NA,NA,NA,NA,NA,9,5,40,100,1,1,20,NA,NA,"",NA,NA,NA,NA,NA,NA,NA,NA,2025-11-21 00:52:23
"null","https://psyc-201.github.io/xiang2023/exp/index1.html?PROLIFIC_PID=REDACTED&STUDY_ID=691f8ca61c6b4dcbb0aeb5f4&SESSION_ID=691fb4aca585db83fa79a983","html-keyboard-response",35,571373,"0.0-343.0","rdzOKhu5ux3tKysdPmaAHRBjZ+0XsH9pRgxFXQ9m5Z06z0aRwT+yKhs9lYc3uUCCqz9a/TzDdpkUhPhmeWJlqbaNOZuPLvJ4oEDYFRUXOItZ2t9q7Q0fuLMNCqfoaKh41E3e5nm8ICGk+fv0/qEFluA+qkP9g5wAph9XP2yqamV4+XLQx0BalG45bU6Vy3eVBF0vJiITXbv1zgws1/h3eVSKWkNsESvCWpckkz7PcUnJLDL7QGkvva01DIrG1UoEl59m30Tv0qOFpWwtAiQ0g9coxFCrOXdu5Hbi6Xe3iRuM3ga2cruQvBuTZWGt9lRoGrhKi/1aGywJlEK/ToZeKg==","691f8ca61c6b4dcbb0aeb5f4","691fb4aca585db83fa79a983","index1","<span style='color:red'>Fail,<span style='color:red'>Fail,<span style='color:green'>Lift,<span style='color:green'>Lift,<span style='color:red'>Fail,<span style='color:red'>Fail,<span style='color:red'>Fail,<span style='color:red'>Fail,<span style='color:red'>Fail,<span style='color:green'>Lift,<span style='color:green'>Lift,<span style='color:red'>Fail","<span style='color:red'>Fail,<span style='color:red'>Fail,<span style='color:green'>Lift,<span style='color:green'>Lift,<span style='color:green'>Lift,<span style='color:green'>Lift,<span style='color:red'>Fail,<span style='color:green'>Lift,<span style='color:green'>Lift,<span style='color:green'>Lift,<span style='color:green'>Lift,<span style='color:red'>Fail","<span style='color:red'>Fail,<span style='color:green'>Lift,<span style='color:green'>Lift,<span style='color:red'>Fail,<span style='color:green'>Lift,<span style='color:green'>Lift","0,0,1,1,0,0,0,0,0,1,1,0","0,0,1,1,1,1,0,1,1,1,1,0","0,1,1,0,1,1",10,20,20,"","","<p style='font-size:30px'><b> New Contest! </b></p>","null","","",NA,5,"",NA,NA,NA,NA,NA,NA,NA,NA,NA,NA,NA,NA,NA,NA,NA,NA,NA,NA,NA,NA,NA,NA,NA,NA,NA,NA,NA,NA,NA,NA,NA,NA,NA,NA,NA,NA,NA,NA,NA,"",NA,NA,NA,NA,NA,NA,NA,NA,2025-11-21 00:52:23
"16243.10000000149","https://psyc-201.github.io/xiang2023/exp/index1.html?PROLIFIC_PID=REDACTED&STUDY_ID=691f8ca61c6b4dcbb0aeb5f4&SESSION_ID=691fb4aca585db83fa79a983","survey-html-form",36,587618,"0.0-344.0","rdzOKhu5ux3tKysdPmaAHRBjZ+0XsH9pRgxFXQ9m5Z06z0aRwT+yKhs9lYc3uUCCqz9a/TzDdpkUhPhmeWJlqbaNOZuPLvJ4oEDYFRUXOItZ2t9q7Q0fuLMNCqfoaKh41E3e5nm8ICGk+fv0/qEFluA+qkP9g5wAph9XP2yqamV4+XLQx0BalG45bU6Vy3eVBF0vJiITXbv1zgws1/h3eVSKWkNsESvCWpckkz7PcUnJLDL7QGkvva01DIrG1UoEl59m30Tv0qOFpWwtAiQ0g9coxFCrOXdu5Hbi6Xe3iRuM3ga2cruQvBuTZWGt9lRoGrhKi/1aGywJlEK/ToZeKg==","691f8ca61c6b4dcbb0aeb5f4","691fb4aca585db83fa79a983","index1","<span style='color:red'>Fail,<span style='color:red'>Fail,<span style='color:green'>Lift,<span style='color:green'>Lift,<span style='color:red'>Fail,<span style='color:red'>Fail,<span style='color:red'>Fail,<span style='color:red'>Fail,<span style='color:red'>Fail,<span style='color:green'>Lift,<span style='color:green'>Lift,<span style='color:red'>Fail","<span style='color:red'>Fail,<span style='color:red'>Fail,<span style='color:green'>Lift,<span style='color:green'>Lift,<span style='color:green'>Lift,<span style='color:green'>Lift,<span style='color:red'>Fail,<span style='color:green'>Lift,<span style='color:green'>Lift,<span style='color:green'>Lift,<span style='color:green'>Lift,<span style='color:red'>Fail","<span style='color:red'>Fail,<span style='color:green'>Lift,<span style='color:green'>Lift,<span style='color:red'>Fail,<span style='color:green'>Lift,<span style='color:green'>Lift","0,0,1,1,0,0,0,0,0,1,1,0","0,0,1,1,1,1,0,1,1,1,1,0","0,1,1,0,1,1",10,20,20,"","","","","{""box1"":""3"",""box2"":""6"",""box4"":""80""}","",NA,5,"round1_outcome",1,5,1,3,6,NA,80,0,1,10,3,6,NA,80,0,1,10,NA,NA,NA,NA,NA,NA,NA,NA,NA,NA,NA,NA,NA,NA,NA,NA,NA,NA,NA,NA,NA,NA,"",NA,NA,NA,NA,NA,NA,NA,NA,2025-11-21 00:52:23
"10450.39999999851","https://psyc-201.github.io/xiang2023/exp/index1.html?PROLIFIC_PID=REDACTED&STUDY_ID=691f8ca61c6b4dcbb0aeb5f4&SESSION_ID=691fb4aca585db83fa79a983","survey-html-form",37,598070,"0.0-345.0","rdzOKhu5ux3tKysdPmaAHRBjZ+0XsH9pRgxFXQ9m5Z06z0aRwT+yKhs9lYc3uUCCqz9a/TzDdpkUhPhmeWJlqbaNOZuPLvJ4oEDYFRUXOItZ2t9q7Q0fuLMNCqfoaKh41E3e5nm8ICGk+fv0/qEFluA+qkP9g5wAph9XP2yqamV4+XLQx0BalG45bU6Vy3eVBF0vJiITXbv1zgws1/h3eVSKWkNsESvCWpckkz7PcUnJLDL7QGkvva01DIrG1UoEl59m30Tv0qOFpWwtAiQ0g9coxFCrOXdu5Hbi6Xe3iRuM3ga2cruQvBuTZWGt9lRoGrhKi/1aGywJlEK/ToZeKg==","691f8ca61c6b4dcbb0aeb5f4","691fb4aca585db83fa79a983","index1","<span style='color:red'>Fail,<span style='color:red'>Fail,<span style='color:green'>Lift,<span style='color:green'>Lift,<span style='color:red'>Fail,<span style='color:red'>Fail,<span style='color:red'>Fail,<span style='color:red'>Fail,<span style='color:red'>Fail,<span style='color:green'>Lift,<span style='color:green'>Lift,<span style='color:red'>Fail","<span style='color:red'>Fail,<span style='color:red'>Fail,<span style='color:green'>Lift,<span style='color:green'>Lift,<span style='color:green'>Lift,<span style='color:green'>Lift,<span style='color:red'>Fail,<span style='color:green'>Lift,<span style='color:green'>Lift,<span style='color:green'>Lift,<span style='color:green'>Lift,<span style='color:red'>Fail","<span style='color:red'>Fail,<span style='color:green'>Lift,<span style='color:green'>Lift,<span style='color:red'>Fail,<span style='color:green'>Lift,<span style='color:green'>Lift","0,0,1,1,0,0,0,0,0,1,1,0","0,0,1,1,1,1,0,1,1,1,1,0","0,1,1,0,1,1",10,20,20,"","","","","{""box1"":""30"",""box2"":""70""}","",NA,5,"round2_ready",2,5,2,NA,NA,NA,NA,NA,NA,NA,NA,NA,NA,NA,NA,NA,NA,30,70,30,70,NA,NA,NA,NA,NA,NA,NA,NA,NA,NA,NA,NA,NA,NA,NA,NA,NA,NA,"",NA,NA,NA,NA,NA,NA,NA,NA,2025-11-21 00:52:23
"16872.79999999702","https://psyc-201.github.io/xiang2023/exp/index1.html?PROLIFIC_PID=REDACTED&STUDY_ID=691f8ca61c6b4dcbb0aeb5f4&SESSION_ID=691fb4aca585db83fa79a983","survey-html-form",38,614944,"0.0-346.0","rdzOKhu5ux3tKysdPmaAHRBjZ+0XsH9pRgxFXQ9m5Z06z0aRwT+yKhs9lYc3uUCCqz9a/TzDdpkUhPhmeWJlqbaNOZuPLvJ4oEDYFRUXOItZ2t9q7Q0fuLMNCqfoaKh41E3e5nm8ICGk+fv0/qEFluA+qkP9g5wAph9XP2yqamV4+XLQx0BalG45bU6Vy3eVBF0vJiITXbv1zgws1/h3eVSKWkNsESvCWpckkz7PcUnJLDL7QGkvva01DIrG1UoEl59m30Tv0qOFpWwtAiQ0g9coxFCrOXdu5Hbi6Xe3iRuM3ga2cruQvBuTZWGt9lRoGrhKi/1aGywJlEK/ToZeKg==","691f8ca61c6b4dcbb0aeb5f4","691fb4aca585db83fa79a983","index1","<span style='color:red'>Fail,<span style='color:red'>Fail,<span style='color:green'>Lift,<span style='color:green'>Lift,<span style='color:red'>Fail,<span style='color:red'>Fail,<span style='color:red'>Fail,<span style='color:red'>Fail,<span style='color:red'>Fail,<span style='color:green'>Lift,<span style='color:green'>Lift,<span style='color:red'>Fail","<span style='color:red'>Fail,<span style='color:red'>Fail,<span style='color:green'>Lift,<span style='color:green'>Lift,<span style='color:green'>Lift,<span style='color:green'>Lift,<span style='color:red'>Fail,<span style='color:green'>Lift,<span style='color:green'>Lift,<span style='color:green'>Lift,<span style='color:green'>Lift,<span style='color:red'>Fail","<span style='color:red'>Fail,<span style='color:green'>Lift,<span style='color:green'>Lift,<span style='color:red'>Fail,<span style='color:green'>Lift,<span style='color:green'>Lift","0,0,1,1,0,0,0,0,0,1,1,0","0,0,1,1,1,1,0,1,1,1,1,0","0,1,1,0,1,1",10,20,20,"","","","","{""box1"":""5"",""box2"":""7"",""box3"":""98"",""box4"":""52""}","",NA,5,"round2_outcome",3,5,2,5,7,98,52,1,1,20,NA,NA,NA,NA,NA,NA,NA,NA,NA,NA,NA,5,7,98,52,1,1,20,NA,NA,NA,NA,NA,NA,NA,NA,NA,NA,NA,"",NA,NA,NA,NA,NA,NA,NA,NA,2025-11-21 00:52:23
"4369.70000000298","https://psyc-201.github.io/xiang2023/exp/index1.html?PROLIFIC_PID=REDACTED&STUDY_ID=691f8ca61c6b4dcbb0aeb5f4&SESSION_ID=691fb4aca585db83fa79a983","survey-html-form",39,619315,"0.0-347.0","rdzOKhu5ux3tKysdPmaAHRBjZ+0XsH9pRgxFXQ9m5Z06z0aRwT+yKhs9lYc3uUCCqz9a/TzDdpkUhPhmeWJlqbaNOZuPLvJ4oEDYFRUXOItZ2t9q7Q0fuLMNCqfoaKh41E3e5nm8ICGk+fv0/qEFluA+qkP9g5wAph9XP2yqamV4+XLQx0BalG45bU6Vy3eVBF0vJiITXbv1zgws1/h3eVSKWkNsESvCWpckkz7PcUnJLDL7QGkvva01DIrG1UoEl59m30Tv0qOFpWwtAiQ0g9coxFCrOXdu5Hbi6Xe3iRuM3ga2cruQvBuTZWGt9lRoGrhKi/1aGywJlEK/ToZeKg==","691f8ca61c6b4dcbb0aeb5f4","691fb4aca585db83fa79a983","index1","<span style='color:red'>Fail,<span style='color:red'>Fail,<span style='color:green'>Lift,<span style='color:green'>Lift,<span style='color:red'>Fail,<span style='color:red'>Fail,<span style='color:red'>Fail,<span style='color:red'>Fail,<span style='color:red'>Fail,<span style='color:green'>Lift,<span style='color:green'>Lift,<span style='color:red'>Fail","<span style='color:red'>Fail,<span style='color:red'>Fail,<span style='color:green'>Lift,<span style='color:green'>Lift,<span style='color:green'>Lift,<span style='color:green'>Lift,<span style='color:red'>Fail,<span style='color:green'>Lift,<span style='color:green'>Lift,<span style='color:green'>Lift,<span style='color:green'>Lift,<span style='color:red'>Fail","<span style='color:red'>Fail,<span style='color:green'>Lift,<span style='color:green'>Lift,<span style='color:red'>Fail,<span style='color:green'>Lift,<span style='color:green'>Lift","0,0,1,1,0,0,0,0,0,1,1,0","0,0,1,1,1,1,0,1,1,1,1,0","0,1,1,0,1,1",10,20,20,"","","","","{""box1"":""100""}","",NA,5,"round3_ready",4,5,3,NA,NA,NA,NA,NA,NA,NA,NA,NA,NA,NA,NA,NA,NA,100,100,NA,NA,NA,NA,NA,NA,NA,NA,NA,100,100,NA,NA,NA,NA,NA,NA,NA,NA,NA,"",NA,NA,NA,NA,NA,NA,NA,NA,2025-11-21 00:52:23
"21749.60000000149","https://psyc-201.github.io/xiang2023/exp/index1.html?PROLIFIC_PID=REDACTED&STUDY_ID=691f8ca61c6b4dcbb0aeb5f4&SESSION_ID=691fb4aca585db83fa79a983","survey-html-form",40,641066,"0.0-348.0-0.0","rdzOKhu5ux3tKysdPmaAHRBjZ+0XsH9pRgxFXQ9m5Z06z0aRwT+yKhs9lYc3uUCCqz9a/TzDdpkUhPhmeWJlqbaNOZuPLvJ4oEDYFRUXOItZ2t9q7Q0fuLMNCqfoaKh41E3e5nm8ICGk+fv0/qEFluA+qkP9g5wAph9XP2yqamV4+XLQx0BalG45bU6Vy3eVBF0vJiITXbv1zgws1/h3eVSKWkNsESvCWpckkz7PcUnJLDL7QGkvva01DIrG1UoEl59m30Tv0qOFpWwtAiQ0g9coxFCrOXdu5Hbi6Xe3iRuM3ga2cruQvBuTZWGt9lRoGrhKi/1aGywJlEK/ToZeKg==","691f8ca61c6b4dcbb0aeb5f4","691fb4aca585db83fa79a983","index1","<span style='color:red'>Fail,<span style='color:red'>Fail,<span style='color:green'>Lift,<span style='color:green'>Lift,<span style='color:red'>Fail,<span style='color:red'>Fail,<span style='color:red'>Fail,<span style='color:red'>Fail,<span style='color:red'>Fail,<span style='color:green'>Lift,<span style='color:green'>Lift,<span style='color:red'>Fail","<span style='color:red'>Fail,<span style='color:red'>Fail,<span style='color:green'>Lift,<span style='color:green'>Lift,<span style='color:green'>Lift,<span style='color:green'>Lift,<span style='color:red'>Fail,<span style='color:green'>Lift,<span style='color:green'>Lift,<span style='color:green'>Lift,<span style='color:green'>Lift,<span style='color:red'>Fail","<span style='color:red'>Fail,<span style='color:green'>Lift,<span style='color:green'>Lift,<span style='color:red'>Fail,<span style='color:green'>Lift,<span style='color:green'>Lift","0,0,1,1,0,0,0,0,0,1,1,0","0,0,1,1,1,1,0,1,1,1,1,0","0,1,1,0,1,1",10,20,20,"","","","","{""box1"":""5"",""box2"":""7"",""box3"":""97"",""box4"":""10""}","",NA,6,"round3_lift",5,5,3,5,7,97,10,1,1,20,NA,NA,NA,NA,NA,NA,NA,NA,NA,NA,NA,NA,NA,NA,NA,NA,NA,NA,NA,NA,5,7,97,10,1,1,20,NA,NA,"",NA,NA,NA,NA,NA,NA,NA,NA,2025-11-21 00:52:23
"null","https://psyc-201.github.io/xiang2023/exp/index1.html?PROLIFIC_PID=REDACTED&STUDY_ID=691f8ca61c6b4dcbb0aeb5f4&SESSION_ID=691fb4aca585db83fa79a983","html-keyboard-response",41,644068,"0.0-352.0","rdzOKhu5ux3tKysdPmaAHRBjZ+0XsH9pRgxFXQ9m5Z06z0aRwT+yKhs9lYc3uUCCqz9a/TzDdpkUhPhmeWJlqbaNOZuPLvJ4oEDYFRUXOItZ2t9q7Q0fuLMNCqfoaKh41E3e5nm8ICGk+fv0/qEFluA+qkP9g5wAph9XP2yqamV4+XLQx0BalG45bU6Vy3eVBF0vJiITXbv1zgws1/h3eVSKWkNsESvCWpckkz7PcUnJLDL7QGkvva01DIrG1UoEl59m30Tv0qOFpWwtAiQ0g9coxFCrOXdu5Hbi6Xe3iRuM3ga2cruQvBuTZWGt9lRoGrhKi/1aGywJlEK/ToZeKg==","691f8ca61c6b4dcbb0aeb5f4","691fb4aca585db83fa79a983","index1","<span style='color:red'>Fail,<span style='color:red'>Fail,<span style='color:green'>Lift,<span style='color:green'>Lift,<span style='color:red'>Fail,<span style='color:red'>Fail,<span style='color:red'>Fail,<span style='color:red'>Fail,<span style='color:red'>Fail,<span style='color:green'>Lift,<span style='color:green'>Lift,<span style='color:red'>Fail","<span style='color:red'>Fail,<span style='color:red'>Fail,<span style='color:green'>Lift,<span style='color:green'>Lift,<span style='color:green'>Lift,<span style='color:green'>Lift,<span style='color:red'>Fail,<span style='color:green'>Lift,<span style='color:green'>Lift,<span style='color:green'>Lift,<span style='color:green'>Lift,<span style='color:red'>Fail","<span style='color:red'>Fail,<span style='color:green'>Lift,<span style='color:green'>Lift,<span style='color:red'>Fail,<span style='color:green'>Lift,<span style='color:green'>Lift","0,0,1,1,0,0,0,0,0,1,1,0","0,0,1,1,1,1,0,1,1,1,1,0","0,1,1,0,1,1",10,20,20,"","","<p style='font-size:30px'><b> New Contest! </b></p>","null","","",NA,6,"",NA,NA,NA,NA,NA,NA,NA,NA,NA,NA,NA,NA,NA,NA,NA,NA,NA,NA,NA,NA,NA,NA,NA,NA,NA,NA,NA,NA,NA,NA,NA,NA,NA,NA,NA,NA,NA,NA,NA,"",NA,NA,NA,NA,NA,NA,NA,NA,2025-11-21 00:52:23
"8690.60000000149","https://psyc-201.github.io/xiang2023/exp/index1.html?PROLIFIC_PID=REDACTED&STUDY_ID=691f8ca61c6b4dcbb0aeb5f4&SESSION_ID=691fb4aca585db83fa79a983","survey-html-form",42,652760,"0.0-353.0","rdzOKhu5ux3tKysdPmaAHRBjZ+0XsH9pRgxFXQ9m5Z06z0aRwT+yKhs9lYc3uUCCqz9a/TzDdpkUhPhmeWJlqbaNOZuPLvJ4oEDYFRUXOItZ2t9q7Q0fuLMNCqfoaKh41E3e5nm8ICGk+fv0/qEFluA+qkP9g5wAph9XP2yqamV4+XLQx0BalG45bU6Vy3eVBF0vJiITXbv1zgws1/h3eVSKWkNsESvCWpckkz7PcUnJLDL7QGkvva01DIrG1UoEl59m30Tv0qOFpWwtAiQ0g9coxFCrOXdu5Hbi6Xe3iRuM3ga2cruQvBuTZWGt9lRoGrhKi/1aGywJlEK/ToZeKg==","691f8ca61c6b4dcbb0aeb5f4","691fb4aca585db83fa79a983","index1","<span style='color:red'>Fail,<span style='color:red'>Fail,<span style='color:green'>Lift,<span style='color:green'>Lift,<span style='color:red'>Fail,<span style='color:red'>Fail,<span style='color:red'>Fail,<span style='color:red'>Fail,<span style='color:red'>Fail,<span style='color:green'>Lift,<span style='color:green'>Lift,<span style='color:red'>Fail","<span style='color:red'>Fail,<span style='color:red'>Fail,<span style='color:green'>Lift,<span style='color:green'>Lift,<span style='color:green'>Lift,<span style='color:green'>Lift,<span style='color:red'>Fail,<span style='color:green'>Lift,<span style='color:green'>Lift,<span style='color:green'>Lift,<span style='color:green'>Lift,<span style='color:red'>Fail","<span style='color:red'>Fail,<span style='color:green'>Lift,<span style='color:green'>Lift,<span style='color:red'>Fail,<span style='color:green'>Lift,<span style='color:green'>Lift","0,0,1,1,0,0,0,0,0,1,1,0","0,0,1,1,1,1,0,1,1,1,1,0","0,1,1,0,1,1",10,20,20,"","","","","{""box1"":""2"",""box2"":""4""}","",NA,6,"round1_outcome",1,6,1,2,4,NA,NA,0,0,10,2,4,NA,NA,0,0,10,NA,NA,NA,NA,NA,NA,NA,NA,NA,NA,NA,NA,NA,NA,NA,NA,NA,NA,NA,NA,NA,NA,"",NA,NA,NA,NA,NA,NA,NA,NA,2025-11-21 00:52:23
"9789.10000000149","https://psyc-201.github.io/xiang2023/exp/index1.html?PROLIFIC_PID=REDACTED&STUDY_ID=691f8ca61c6b4dcbb0aeb5f4&SESSION_ID=691fb4aca585db83fa79a983","survey-html-form",43,662550,"0.0-354.0","rdzOKhu5ux3tKysdPmaAHRBjZ+0XsH9pRgxFXQ9m5Z06z0aRwT+yKhs9lYc3uUCCqz9a/TzDdpkUhPhmeWJlqbaNOZuPLvJ4oEDYFRUXOItZ2t9q7Q0fuLMNCqfoaKh41E3e5nm8ICGk+fv0/qEFluA+qkP9g5wAph9XP2yqamV4+XLQx0BalG45bU6Vy3eVBF0vJiITXbv1zgws1/h3eVSKWkNsESvCWpckkz7PcUnJLDL7QGkvva01DIrG1UoEl59m30Tv0qOFpWwtAiQ0g9coxFCrOXdu5Hbi6Xe3iRuM3ga2cruQvBuTZWGt9lRoGrhKi/1aGywJlEK/ToZeKg==","691f8ca61c6b4dcbb0aeb5f4","691fb4aca585db83fa79a983","index1","<span style='color:red'>Fail,<span style='color:red'>Fail,<span style='color:green'>Lift,<span style='color:green'>Lift,<span style='color:red'>Fail,<span style='color:red'>Fail,<span style='color:red'>Fail,<span style='color:red'>Fail,<span style='color:red'>Fail,<span style='color:green'>Lift,<span style='color:green'>Lift,<span style='color:red'>Fail","<span style='color:red'>Fail,<span style='color:red'>Fail,<span style='color:green'>Lift,<span style='color:green'>Lift,<span style='color:green'>Lift,<span style='color:green'>Lift,<span style='color:red'>Fail,<span style='color:green'>Lift,<span style='color:green'>Lift,<span style='color:green'>Lift,<span style='color:green'>Lift,<span style='color:red'>Fail","<span style='color:red'>Fail,<span style='color:green'>Lift,<span style='color:green'>Lift,<span style='color:red'>Fail,<span style='color:green'>Lift,<span style='color:green'>Lift","0,0,1,1,0,0,0,0,0,1,1,0","0,0,1,1,1,1,0,1,1,1,1,0","0,1,1,0,1,1",10,20,20,"","","","","{""box1"":""50"",""box2"":""20""}","",NA,6,"round2_ready",2,6,2,NA,NA,NA,NA,NA,NA,NA,NA,NA,NA,NA,NA,NA,NA,50,20,50,20,NA,NA,NA,NA,NA,NA,NA,NA,NA,NA,NA,NA,NA,NA,NA,NA,NA,NA,"",NA,NA,NA,NA,NA,NA,NA,NA,2025-11-21 00:52:23
"20472.70000000298","https://psyc-201.github.io/xiang2023/exp/index1.html?PROLIFIC_PID=REDACTED&STUDY_ID=691f8ca61c6b4dcbb0aeb5f4&SESSION_ID=691fb4aca585db83fa79a983","survey-html-form",44,683024,"0.0-355.0","rdzOKhu5ux3tKysdPmaAHRBjZ+0XsH9pRgxFXQ9m5Z06z0aRwT+yKhs9lYc3uUCCqz9a/TzDdpkUhPhmeWJlqbaNOZuPLvJ4oEDYFRUXOItZ2t9q7Q0fuLMNCqfoaKh41E3e5nm8ICGk+fv0/qEFluA+qkP9g5wAph9XP2yqamV4+XLQx0BalG45bU6Vy3eVBF0vJiITXbv1zgws1/h3eVSKWkNsESvCWpckkz7PcUnJLDL7QGkvva01DIrG1UoEl59m30Tv0qOFpWwtAiQ0g9coxFCrOXdu5Hbi6Xe3iRuM3ga2cruQvBuTZWGt9lRoGrhKi/1aGywJlEK/ToZeKg==","691f8ca61c6b4dcbb0aeb5f4","691fb4aca585db83fa79a983","index1","<span style='color:red'>Fail,<span style='color:red'>Fail,<span style='color:green'>Lift,<span style='color:green'>Lift,<span style='color:red'>Fail,<span style='color:red'>Fail,<span style='color:red'>Fail,<span style='color:red'>Fail,<span style='color:red'>Fail,<span style='color:green'>Lift,<span style='color:green'>Lift,<span style='color:red'>Fail","<span style='color:red'>Fail,<span style='color:red'>Fail,<span style='color:green'>Lift,<span style='color:green'>Lift,<span style='color:green'>Lift,<span style='color:green'>Lift,<span style='color:red'>Fail,<span style='color:green'>Lift,<span style='color:green'>Lift,<span style='color:green'>Lift,<span style='color:green'>Lift,<span style='color:red'>Fail","<span style='color:red'>Fail,<span style='color:green'>Lift,<span style='color:green'>Lift,<span style='color:red'>Fail,<span style='color:green'>Lift,<span style='color:green'>Lift","0,0,1,1,0,0,0,0,0,1,1,0","0,0,1,1,1,1,0,1,1,1,1,0","0,1,1,0,1,1",10,20,20,"","","","","{""box1"":""5"",""box2"":""5"",""box3"":""85"",""box4"":""80""}","",NA,6,"round2_outcome",3,6,2,5,5,85,80,1,1,20,NA,NA,NA,NA,NA,NA,NA,NA,NA,NA,NA,5,5,85,80,1,1,20,NA,NA,NA,NA,NA,NA,NA,NA,NA,NA,NA,"",NA,NA,NA,NA,NA,NA,NA,NA,2025-11-21 00:52:23
"4586.5","https://psyc-201.github.io/xiang2023/exp/index1.html?PROLIFIC_PID=REDACTED&STUDY_ID=691f8ca61c6b4dcbb0aeb5f4&SESSION_ID=691fb4aca585db83fa79a983","survey-html-form",45,687612,"0.0-356.0","rdzOKhu5ux3tKysdPmaAHRBjZ+0XsH9pRgxFXQ9m5Z06z0aRwT+yKhs9lYc3uUCCqz9a/TzDdpkUhPhmeWJlqbaNOZuPLvJ4oEDYFRUXOItZ2t9q7Q0fuLMNCqfoaKh41E3e5nm8ICGk+fv0/qEFluA+qkP9g5wAph9XP2yqamV4+XLQx0BalG45bU6Vy3eVBF0vJiITXbv1zgws1/h3eVSKWkNsESvCWpckkz7PcUnJLDL7QGkvva01DIrG1UoEl59m30Tv0qOFpWwtAiQ0g9coxFCrOXdu5Hbi6Xe3iRuM3ga2cruQvBuTZWGt9lRoGrhKi/1aGywJlEK/ToZeKg==","691f8ca61c6b4dcbb0aeb5f4","691fb4aca585db83fa79a983","index1","<span style='color:red'>Fail,<span style='color:red'>Fail,<span style='color:green'>Lift,<span style='color:green'>Lift,<span style='color:red'>Fail,<span style='color:red'>Fail,<span style='color:red'>Fail,<span style='color:red'>Fail,<span style='color:red'>Fail,<span style='color:green'>Lift,<span style='color:green'>Lift,<span style='color:red'>Fail","<span style='color:red'>Fail,<span style='color:red'>Fail,<span style='color:green'>Lift,<span style='color:green'>Lift,<span style='color:green'>Lift,<span style='color:green'>Lift,<span style='color:red'>Fail,<span style='color:green'>Lift,<span style='color:green'>Lift,<span style='color:green'>Lift,<span style='color:green'>Lift,<span style='color:red'>Fail","<span style='color:red'>Fail,<span style='color:green'>Lift,<span style='color:green'>Lift,<span style='color:red'>Fail,<span style='color:green'>Lift,<span style='color:green'>Lift","0,0,1,1,0,0,0,0,0,1,1,0","0,0,1,1,1,1,0,1,1,1,1,0","0,1,1,0,1,1",10,20,20,"","","","","{""box1"":""98""}","",NA,6,"round3_ready",4,6,3,NA,NA,NA,NA,NA,NA,NA,NA,NA,NA,NA,NA,NA,NA,98,98,NA,NA,NA,NA,NA,NA,NA,NA,NA,98,98,NA,NA,NA,NA,NA,NA,NA,NA,NA,"",NA,NA,NA,NA,NA,NA,NA,NA,2025-11-21 00:52:23
"13614.89999999851","https://psyc-201.github.io/xiang2023/exp/index1.html?PROLIFIC_PID=REDACTED&STUDY_ID=691f8ca61c6b4dcbb0aeb5f4&SESSION_ID=691fb4aca585db83fa79a983","survey-html-form",46,701228,"0.0-357.0-0.0","rdzOKhu5ux3tKysdPmaAHRBjZ+0XsH9pRgxFXQ9m5Z06z0aRwT+yKhs9lYc3uUCCqz9a/TzDdpkUhPhmeWJlqbaNOZuPLvJ4oEDYFRUXOItZ2t9q7Q0fuLMNCqfoaKh41E3e5nm8ICGk+fv0/qEFluA+qkP9g5wAph9XP2yqamV4+XLQx0BalG45bU6Vy3eVBF0vJiITXbv1zgws1/h3eVSKWkNsESvCWpckkz7PcUnJLDL7QGkvva01DIrG1UoEl59m30Tv0qOFpWwtAiQ0g9coxFCrOXdu5Hbi6Xe3iRuM3ga2cruQvBuTZWGt9lRoGrhKi/1aGywJlEK/ToZeKg==","691f8ca61c6b4dcbb0aeb5f4","691fb4aca585db83fa79a983","index1","<span style='color:red'>Fail,<span style='color:red'>Fail,<span style='color:green'>Lift,<span style='color:green'>Lift,<span style='color:red'>Fail,<span style='color:red'>Fail,<span style='color:red'>Fail,<span style='color:red'>Fail,<span style='color:red'>Fail,<span style='color:green'>Lift,<span style='color:green'>Lift,<span style='color:red'>Fail","<span style='color:red'>Fail,<span style='color:red'>Fail,<span style='color:green'>Lift,<span style='color:green'>Lift,<span style='color:green'>Lift,<span style='color:green'>Lift,<span style='color:red'>Fail,<span style='color:green'>Lift,<span style='color:green'>Lift,<span style='color:green'>Lift,<span style='color:green'>Lift,<span style='color:red'>Fail","<span style='color:red'>Fail,<span style='color:green'>Lift,<span style='color:green'>Lift,<span style='color:red'>Fail,<span style='color:green'>Lift,<span style='color:green'>Lift","0,0,1,1,0,0,0,0,0,1,1,0","0,0,1,1,1,1,0,1,1,1,1,0","0,1,1,0,1,1",10,20,20,"","","","","{""box1"":""5"",""box2"":""5"",""box3"":""100"",""box4"":""98""}","",NA,6,"round3_lift",5,6,3,5,5,100,98,1,1,20,NA,NA,NA,NA,NA,NA,NA,NA,NA,NA,NA,NA,NA,NA,NA,NA,NA,NA,NA,NA,5,5,100,98,1,1,20,NA,NA,"",NA,NA,NA,NA,NA,NA,NA,NA,2025-11-21 00:52:23
"70641.5","https://psyc-201.github.io/xiang2023/exp/index1.html?PROLIFIC_PID=REDACTED&STUDY_ID=691f8ca61c6b4dcbb0aeb5f4&SESSION_ID=691fb4aca585db83fa79a983","survey-text",47,771878,"0.0-361.0","rdzOKhu5ux3tKysdPmaAHRBjZ+0XsH9pRgxFXQ9m5Z06z0aRwT+yKhs9lYc3uUCCqz9a/TzDdpkUhPhmeWJlqbaNOZuPLvJ4oEDYFRUXOItZ2t9q7Q0fuLMNCqfoaKh41E3e5nm8ICGk+fv0/qEFluA+qkP9g5wAph9XP2yqamV4+XLQx0BalG45bU6Vy3eVBF0vJiITXbv1zgws1/h3eVSKWkNsESvCWpckkz7PcUnJLDL7QGkvva01DIrG1UoEl59m30Tv0qOFpWwtAiQ0g9coxFCrOXdu5Hbi6Xe3iRuM3ga2cruQvBuTZWGt9lRoGrhKi/1aGywJlEK/ToZeKg==","691f8ca61c6b4dcbb0aeb5f4","691fb4aca585db83fa79a983","index1","<span style='color:red'>Fail,<span style='color:red'>Fail,<span style='color:green'>Lift,<span style='color:green'>Lift,<span style='color:red'>Fail,<span style='color:red'>Fail,<span style='color:red'>Fail,<span style='color:red'>Fail,<span style='color:red'>Fail,<span style='color:green'>Lift,<span style='color:green'>Lift,<span style='color:red'>Fail","<span style='color:red'>Fail,<span style='color:red'>Fail,<span style='color:green'>Lift,<span style='color:green'>Lift,<span style='color:green'>Lift,<span style='color:green'>Lift,<span style='color:red'>Fail,<span style='color:green'>Lift,<span style='color:green'>Lift,<span style='color:green'>Lift,<span style='color:green'>Lift,<span style='color:red'>Fail","<span style='color:red'>Fail,<span style='color:green'>Lift,<span style='color:green'>Lift,<span style='color:red'>Fail,<span style='color:green'>Lift,<span style='color:green'>Lift","0,0,1,1,0,0,0,0,0,1,1,0","0,0,1,1,1,1,0,1,1,1,1,0","0,1,1,0,1,1",10,20,20,"","","","","{""Q0"":""Two people compete in 3 rounds to lift a box, with the third round being them lifting a box together""}","",NA,NA,"",NA,NA,NA,NA,NA,NA,NA,NA,NA,NA,NA,NA,NA,NA,NA,NA,NA,NA,NA,NA,NA,NA,NA,NA,NA,NA,NA,NA,NA,NA,NA,NA,NA,NA,NA,NA,NA,NA,NA,"",NA,NA,NA,NA,NA,NA,NA,NA,2025-11-21 00:52:23
"4392.60000000149","https://psyc-201.github.io/xiang2023/exp/index1.html?PROLIFIC_PID=REDACTED&STUDY_ID=691f8ca61c6b4dcbb0aeb5f4&SESSION_ID=691fb4aca585db83fa79a983","survey-text",48,776274,"0.0-362.0","rdzOKhu5ux3tKysdPmaAHRBjZ+0XsH9pRgxFXQ9m5Z06z0aRwT+yKhs9lYc3uUCCqz9a/TzDdpkUhPhmeWJlqbaNOZuPLvJ4oEDYFRUXOItZ2t9q7Q0fuLMNCqfoaKh41E3e5nm8ICGk+fv0/qEFluA+qkP9g5wAph9XP2yqamV4+XLQx0BalG45bU6Vy3eVBF0vJiITXbv1zgws1/h3eVSKWkNsESvCWpckkz7PcUnJLDL7QGkvva01DIrG1UoEl59m30Tv0qOFpWwtAiQ0g9coxFCrOXdu5Hbi6Xe3iRuM3ga2cruQvBuTZWGt9lRoGrhKi/1aGywJlEK/ToZeKg==","691f8ca61c6b4dcbb0aeb5f4","691fb4aca585db83fa79a983","index1","<span style='color:red'>Fail,<span style='color:red'>Fail,<span style='color:green'>Lift,<span style='color:green'>Lift,<span style='color:red'>Fail,<span style='color:red'>Fail,<span style='color:red'>Fail,<span style='color:red'>Fail,<span style='color:red'>Fail,<span style='color:green'>Lift,<span style='color:green'>Lift,<span style='color:red'>Fail","<span style='color:red'>Fail,<span style='color:red'>Fail,<span style='color:green'>Lift,<span style='color:green'>Lift,<span style='color:green'>Lift,<span style='color:green'>Lift,<span style='color:red'>Fail,<span style='color:green'>Lift,<span style='color:green'>Lift,<span style='color:green'>Lift,<span style='color:green'>Lift,<span style='color:red'>Fail","<span style='color:red'>Fail,<span style='color:green'>Lift,<span style='color:green'>Lift,<span style='color:red'>Fail,<span style='color:green'>Lift,<span style='color:green'>Lift","0,0,1,1,0,0,0,0,0,1,1,0","0,0,1,1,1,1,0,1,1,1,1,0","0,1,1,0,1,1",10,20,20,"","","","","{""Q0"":""""}","",NA,NA,"",NA,NA,NA,NA,NA,NA,NA,NA,NA,NA,NA,NA,NA,NA,NA,NA,NA,NA,NA,NA,NA,NA,NA,NA,NA,NA,NA,NA,NA,NA,NA,NA,NA,NA,NA,NA,NA,NA,NA,"[{""event"":""fullscreenenter"",""trial"":1,""time"":10438}]",3,3,NA,10,0,0.9,NA,NA,2025-11-21 00:52:23
"7608","https://psyc-201.github.io/xiang2023/exp/index1.html?PROLIFIC_PID=REDACTED&STUDY_ID=691f8ca61c6b4dcbb0aeb5f4&SESSION_ID=691fb4aca585db83fa79a983","html-button-response",49,783888,"0.0-363.0","rdzOKhu5ux3tKysdPmaAHRBjZ+0XsH9pRgxFXQ9m5Z06z0aRwT+yKhs9lYc3uUCCqz9a/TzDdpkUhPhmeWJlqbaNOZuPLvJ4oEDYFRUXOItZ2t9q7Q0fuLMNCqfoaKh41E3e5nm8ICGk+fv0/qEFluA+qkP9g5wAph9XP2yqamV4+XLQx0BalG45bU6Vy3eVBF0vJiITXbv1zgws1/h3eVSKWkNsESvCWpckkz7PcUnJLDL7QGkvva01DIrG1UoEl59m30Tv0qOFpWwtAiQ0g9coxFCrOXdu5Hbi6Xe3iRuM3ga2cruQvBuTZWGt9lRoGrhKi/1aGywJlEK/ToZeKg==","691f8ca61c6b4dcbb0aeb5f4","691fb4aca585db83fa79a983","index1","<span style='color:red'>Fail,<span style='color:red'>Fail,<span style='color:green'>Lift,<span style='color:green'>Lift,<span style='color:red'>Fail,<span style='color:red'>Fail,<span style='color:red'>Fail,<span style='color:red'>Fail,<span style='color:red'>Fail,<span style='color:green'>Lift,<span style='color:green'>Lift,<span style='color:red'>Fail","<span style='color:red'>Fail,<span style='color:red'>Fail,<span style='color:green'>Lift,<span style='color:green'>Lift,<span style='color:green'>Lift,<span style='color:green'>Lift,<span style='color:red'>Fail,<span style='color:green'>Lift,<span style='color:green'>Lift,<span style='color:green'>Lift,<span style='color:green'>Lift,<span style='color:red'>Fail","<span style='color:red'>Fail,<span style='color:green'>Lift,<span style='color:green'>Lift,<span style='color:red'>Fail,<span style='color:green'>Lift,<span style='color:green'>Lift","0,0,1,1,0,0,0,0,0,1,1,0","0,0,1,1,1,1,0,1,1,1,1,0","0,1,1,0,1,1",10,20,20,"","","<p> We randomly picked <b>Contest 3, Round 3</b> to calculate your bonus. </p><p> The outcome of Contestant E and F on that round is <span style='color:red'>Fail</span>. </p><p> The probability you entered was 10. </p><p><b> You won a bonus of $0.90!</b></p><p> IMPORTANT: Please click 'Next' to complete the game. </p>","","","",0,NA,"",NA,NA,NA,NA,NA,NA,NA,NA,NA,NA,NA,NA,NA,NA,NA,NA,NA,NA,NA,NA,NA,NA,NA,NA,NA,NA,NA,NA,NA,NA,NA,NA,NA,NA,NA,NA,NA,NA,NA,"",NA,NA,NA,NA,NA,NA,2,1,2025-11-21 00:52:23
