"rt","url","trial_type","trial_index","time_elapsed","internal_node_id","encryptedProlificId","studyId","sessionId","expIndex","round1_outcomes","round2_outcomes","round3_outcomes","round1_o","round2_o","round3_o","round1_reward","round2_reward","round3_reward","success","view_history","stimulus","key_press","responses","question_order","j","Stage","stage","contest","round","strength_a","strength_b","effort_a","effort_b","outcome_a","outcome_b","reward","r1_strength_a","r1_strength_b","r1_effort_a","r1_effort_b","r1_outcome_a","r1_outcome_b","r1_reward","probability_a","probability_b","r2_prob_a","r2_prob_b","r2_strength_a","r2_strength_b","r2_effort_a","r2_effort_b","r2_outcome_a","r2_outcome_b","r2_reward","r3_prob_a","r3_prob_b","attention_check","count","r3_strength_a","r3_strength_b","r3_outcome_a","r3_outcome_b","r3_reward","r3_effort_a","r3_effort_b","screen","pick_contest","pick_round","pick_side","trial_probability","trial_outcome","bonus","button_pressed","attention_sum","attention","datapipe_meta.attributes.date_modified"
"2983.89999999851","https://psyc-201.github.io/xiang2023/exp/index1.html?PROLIFIC_PID=REDACTED&STUDY_ID=69168b21477cff9ada6cb980&SESSION_ID=691d1deb9dc6f6d5d7681047","external-html",0,3123,"0.0-0.0","j+yQOpoVnrLFc46eKhMiQur5sMOuPmd35dPNszpf82GUxmqxCwlOPnb1MGn2DlA+TuX3a3E5DYkKKKfmiGlEY8f/1qCBlu1C0Y1gjtNLjdRc9WLcSXKlfLkybWsjwiw9BD821SmhbW/60LnzUCuPPkkb1LC++Mz4XT6IYvuawDU8YjThLLM9zH4i5HbusT+tzAj6+XMnUtt6vSLjoWxP7iBQ1eP/xVK7ZCOHorHlfbClDNEGow1pTip/7chOP2ElsJowPesUhbV+HxOT2W3w4AuB2b41cDleQo94OxKyfNKTwdCeDyytqgyNAj0yAZxddU3FqmS/oNGH5cTjzUgSLg==","69168b21477cff9ada6cb980","691d1deb9dc6f6d5d7681047","index1","<span style='color:red'>Fail,<span style='color:red'>Fail,<span style='color:green'>Lift,<span style='color:green'>Lift,<span style='color:red'>Fail,<span style='color:red'>Fail,<span style='color:red'>Fail,<span style='color:red'>Fail,<span style='color:red'>Fail,<span style='color:green'>Lift,<span style='color:green'>Lift,<span style='color:red'>Fail","<span style='color:red'>Fail,<span style='color:red'>Fail,<span style='color:green'>Lift,<span style='color:green'>Lift,<span style='color:green'>Lift,<span style='color:green'>Lift,<span style='color:green'>Lift,<span style='color:red'>Fail,<span style='color:green'>Lift,<span style='color:green'>Lift,<span style='color:green'>Lift,<span style='color:red'>Fail","<span style='color:red'>Fail,<span style='color:green'>Lift,<span style='color:green'>Lift,<span style='color:red'>Fail,<span style='color:green'>Lift,<span style='color:green'>Lift","0,0,1,1,0,0,0,0,0,1,1,0","0,0,1,1,1,1,1,0,1,1,1,0","0,1,1,0,1,1",10,20,20,"","","","","","",NA,"",NA,NA,NA,NA,NA,NA,NA,NA,NA,NA,NA,NA,NA,NA,NA,NA,NA,NA,NA,NA,NA,NA,NA,NA,NA,NA,NA,NA,NA,NA,NA,NA,NA,NA,NA,NA,NA,NA,NA,"",NA,NA,NA,NA,NA,NA,NA,NA,NA,2025-11-19 02:03:22
"","https://psyc-201.github.io/xiang2023/exp/index1.html?PROLIFIC_PID=REDACTED&STUDY_ID=69168b21477cff9ada6cb980&SESSION_ID=691d1deb9dc6f6d5d7681047","fullscreen",1,6048,"0.0-1.0","j+yQOpoVnrLFc46eKhMiQur5sMOuPmd35dPNszpf82GUxmqxCwlOPnb1MGn2DlA+TuX3a3E5DYkKKKfmiGlEY8f/1qCBlu1C0Y1gjtNLjdRc9WLcSXKlfLkybWsjwiw9BD821SmhbW/60LnzUCuPPkkb1LC++Mz4XT6IYvuawDU8YjThLLM9zH4i5HbusT+tzAj6+XMnUtt6vSLjoWxP7iBQ1eP/xVK7ZCOHorHlfbClDNEGow1pTip/7chOP2ElsJowPesUhbV+HxOT2W3w4AuB2b41cDleQo94OxKyfNKTwdCeDyytqgyNAj0yAZxddU3FqmS/oNGH5cTjzUgSLg==","69168b21477cff9ada6cb980","691d1deb9dc6f6d5d7681047","index1","<span style='color:red'>Fail,<span style='color:red'>Fail,<span style='color:green'>Lift,<span style='color:green'>Lift,<span style='color:red'>Fail,<span style='color:red'>Fail,<span style='color:red'>Fail,<span style='color:red'>Fail,<span style='color:red'>Fail,<span style='color:green'>Lift,<span style='color:green'>Lift,<span style='color:red'>Fail","<span style='color:red'>Fail,<span style='color:red'>Fail,<span style='color:green'>Lift,<span style='color:green'>Lift,<span style='color:green'>Lift,<span style='color:green'>Lift,<span style='color:green'>Lift,<span style='color:red'>Fail,<span style='color:green'>Lift,<span style='color:green'>Lift,<span style='color:green'>Lift,<span style='color:red'>Fail","<span style='color:red'>Fail,<span style='color:green'>Lift,<span style='color:green'>Lift,<span style='color:red'>Fail,<span style='color:green'>Lift,<span style='color:green'>Lift","0,0,1,1,0,0,0,0,0,1,1,0","0,0,1,1,1,1,1,0,1,1,1,0","0,1,1,0,1,1",10,20,20,"true","","","","","",NA,"",NA,NA,NA,NA,NA,NA,NA,NA,NA,NA,NA,NA,NA,NA,NA,NA,NA,NA,NA,NA,NA,NA,NA,NA,NA,NA,NA,NA,NA,NA,NA,NA,NA,NA,NA,NA,NA,NA,NA,"",NA,NA,NA,NA,NA,NA,NA,NA,NA,2025-11-19 02:03:22
"113058.79999999702","https://psyc-201.github.io/xiang2023/exp/index1.html?PROLIFIC_PID=REDACTED&STUDY_ID=69168b21477cff9ada6cb980&SESSION_ID=691d1deb9dc6f6d5d7681047","instructions",2,119108,"0.0-2.0","j+yQOpoVnrLFc46eKhMiQur5sMOuPmd35dPNszpf82GUxmqxCwlOPnb1MGn2DlA+TuX3a3E5DYkKKKfmiGlEY8f/1qCBlu1C0Y1gjtNLjdRc9WLcSXKlfLkybWsjwiw9BD821SmhbW/60LnzUCuPPkkb1LC++Mz4XT6IYvuawDU8YjThLLM9zH4i5HbusT+tzAj6+XMnUtt6vSLjoWxP7iBQ1eP/xVK7ZCOHorHlfbClDNEGow1pTip/7chOP2ElsJowPesUhbV+HxOT2W3w4AuB2b41cDleQo94OxKyfNKTwdCeDyytqgyNAj0yAZxddU3FqmS/oNGH5cTjzUgSLg==","69168b21477cff9ada6cb980","691d1deb9dc6f6d5d7681047","index1","<span style='color:red'>Fail,<span style='color:red'>Fail,<span style='color:green'>Lift,<span style='color:green'>Lift,<span style='color:red'>Fail,<span style='color:red'>Fail,<span style='color:red'>Fail,<span style='color:red'>Fail,<span style='color:red'>Fail,<span style='color:green'>Lift,<span style='color:green'>Lift,<span style='color:red'>Fail","<span style='color:red'>Fail,<span style='color:red'>Fail,<span style='color:green'>Lift,<span style='color:green'>Lift,<span style='color:green'>Lift,<span style='color:green'>Lift,<span style='color:green'>Lift,<span style='color:red'>Fail,<span style='color:green'>Lift,<span style='color:green'>Lift,<span style='color:green'>Lift,<span style='color:red'>Fail","<span style='color:red'>Fail,<span style='color:green'>Lift,<span style='color:green'>Lift,<span style='color:red'>Fail,<span style='color:green'>Lift,<span style='color:green'>Lift","0,0,1,1,0,0,0,0,0,1,1,0","0,0,1,1,1,1,1,0,1,1,1,0","0,1,1,0,1,1",10,20,20,"","[{""page_index"":0,""viewing_time"":21105.59999999404},{""page_index"":1,""viewing_time"":9425.90000000596},{""page_index"":2,""viewing_time"":12983.19999999553},{""page_index"":3,""viewing_time"":19495.20000000298},{""page_index"":4,""viewing_time"":10968.60000000149},{""page_index"":5,""viewing_time"":7421.0999999940395},{""page_index"":6,""viewing_time"":31658.90000000596}]","","","","",NA,"",NA,NA,NA,NA,NA,NA,NA,NA,NA,NA,NA,NA,NA,NA,NA,NA,NA,NA,NA,NA,NA,NA,NA,NA,NA,NA,NA,NA,NA,NA,NA,NA,NA,NA,NA,NA,NA,NA,NA,"",NA,NA,NA,NA,NA,NA,NA,NA,NA,2025-11-19 02:03:22
"null","https://psyc-201.github.io/xiang2023/exp/index1.html?PROLIFIC_PID=REDACTED&STUDY_ID=69168b21477cff9ada6cb980&SESSION_ID=691d1deb9dc6f6d5d7681047","html-keyboard-response",3,120116,"0.0-3.0","j+yQOpoVnrLFc46eKhMiQur5sMOuPmd35dPNszpf82GUxmqxCwlOPnb1MGn2DlA+TuX3a3E5DYkKKKfmiGlEY8f/1qCBlu1C0Y1gjtNLjdRc9WLcSXKlfLkybWsjwiw9BD821SmhbW/60LnzUCuPPkkb1LC++Mz4XT6IYvuawDU8YjThLLM9zH4i5HbusT+tzAj6+XMnUtt6vSLjoWxP7iBQ1eP/xVK7ZCOHorHlfbClDNEGow1pTip/7chOP2ElsJowPesUhbV+HxOT2W3w4AuB2b41cDleQo94OxKyfNKTwdCeDyytqgyNAj0yAZxddU3FqmS/oNGH5cTjzUgSLg==","69168b21477cff9ada6cb980","691d1deb9dc6f6d5d7681047","index1","<span style='color:red'>Fail,<span style='color:red'>Fail,<span style='color:green'>Lift,<span style='color:green'>Lift,<span style='color:red'>Fail,<span style='color:red'>Fail,<span style='color:red'>Fail,<span style='color:red'>Fail,<span style='color:red'>Fail,<span style='color:green'>Lift,<span style='color:green'>Lift,<span style='color:red'>Fail","<span style='color:red'>Fail,<span style='color:red'>Fail,<span style='color:green'>Lift,<span style='color:green'>Lift,<span style='color:green'>Lift,<span style='color:green'>Lift,<span style='color:green'>Lift,<span style='color:red'>Fail,<span style='color:green'>Lift,<span style='color:green'>Lift,<span style='color:green'>Lift,<span style='color:red'>Fail","<span style='color:red'>Fail,<span style='color:green'>Lift,<span style='color:green'>Lift,<span style='color:red'>Fail,<span style='color:green'>Lift,<span style='color:green'>Lift","0,0,1,1,0,0,0,0,0,1,1,0","0,0,1,1,1,1,1,0,1,1,1,0","0,1,1,0,1,1",10,20,20,"",""," ","null","","",NA,"",NA,NA,NA,NA,NA,NA,NA,NA,NA,NA,NA,NA,NA,NA,NA,NA,NA,NA,NA,NA,NA,NA,NA,NA,NA,NA,NA,NA,NA,NA,NA,NA,NA,NA,NA,NA,NA,NA,NA,"",NA,NA,NA,NA,NA,NA,NA,NA,NA,2025-11-19 02:03:22
"38225.20000000298","https://psyc-201.github.io/xiang2023/exp/index1.html?PROLIFIC_PID=REDACTED&STUDY_ID=69168b21477cff9ada6cb980&SESSION_ID=691d1deb9dc6f6d5d7681047","survey-multi-choice",4,158343,"0.0-4.0","j+yQOpoVnrLFc46eKhMiQur5sMOuPmd35dPNszpf82GUxmqxCwlOPnb1MGn2DlA+TuX3a3E5DYkKKKfmiGlEY8f/1qCBlu1C0Y1gjtNLjdRc9WLcSXKlfLkybWsjwiw9BD821SmhbW/60LnzUCuPPkkb1LC++Mz4XT6IYvuawDU8YjThLLM9zH4i5HbusT+tzAj6+XMnUtt6vSLjoWxP7iBQ1eP/xVK7ZCOHorHlfbClDNEGow1pTip/7chOP2ElsJowPesUhbV+HxOT2W3w4AuB2b41cDleQo94OxKyfNKTwdCeDyytqgyNAj0yAZxddU3FqmS/oNGH5cTjzUgSLg==","69168b21477cff9ada6cb980","691d1deb9dc6f6d5d7681047","index1","<span style='color:red'>Fail,<span style='color:red'>Fail,<span style='color:green'>Lift,<span style='color:green'>Lift,<span style='color:red'>Fail,<span style='color:red'>Fail,<span style='color:red'>Fail,<span style='color:red'>Fail,<span style='color:red'>Fail,<span style='color:green'>Lift,<span style='color:green'>Lift,<span style='color:red'>Fail","<span style='color:red'>Fail,<span style='color:red'>Fail,<span style='color:green'>Lift,<span style='color:green'>Lift,<span style='color:green'>Lift,<span style='color:green'>Lift,<span style='color:green'>Lift,<span style='color:red'>Fail,<span style='color:green'>Lift,<span style='color:green'>Lift,<span style='color:green'>Lift,<span style='color:red'>Fail","<span style='color:red'>Fail,<span style='color:green'>Lift,<span style='color:green'>Lift,<span style='color:red'>Fail,<span style='color:green'>Lift,<span style='color:green'>Lift","0,0,1,1,0,0,0,0,0,1,1,0","0,0,1,1,1,1,1,0,1,1,1,0","0,1,1,0,1,1",10,20,20,"","","","","{""Q0"":""It consists of multiple contests, each contest with three rounds."",""Q1"":""When a new contest begins."",""Q2"":""The box weight always stays the same (equivalent to strength of 5)."",""Q3"":""Each will get $20."",""Q4"":""How close my guesses are to the actual outcome.""}","[0,1,2,3,4]",NA,"",NA,NA,NA,NA,NA,NA,NA,NA,NA,NA,NA,NA,NA,NA,NA,NA,NA,NA,NA,NA,NA,NA,NA,NA,NA,NA,NA,NA,NA,NA,NA,NA,NA,NA,NA,NA,NA,NA,NA,"",NA,NA,NA,NA,NA,NA,NA,NA,NA,2025-11-19 02:03:22
"22916.5","https://psyc-201.github.io/xiang2023/exp/index1.html?PROLIFIC_PID=REDACTED&STUDY_ID=69168b21477cff9ada6cb980&SESSION_ID=691d1deb9dc6f6d5d7681047","instructions",5,181262,"0.0-305.0","j+yQOpoVnrLFc46eKhMiQur5sMOuPmd35dPNszpf82GUxmqxCwlOPnb1MGn2DlA+TuX3a3E5DYkKKKfmiGlEY8f/1qCBlu1C0Y1gjtNLjdRc9WLcSXKlfLkybWsjwiw9BD821SmhbW/60LnzUCuPPkkb1LC++Mz4XT6IYvuawDU8YjThLLM9zH4i5HbusT+tzAj6+XMnUtt6vSLjoWxP7iBQ1eP/xVK7ZCOHorHlfbClDNEGow1pTip/7chOP2ElsJowPesUhbV+HxOT2W3w4AuB2b41cDleQo94OxKyfNKTwdCeDyytqgyNAj0yAZxddU3FqmS/oNGH5cTjzUgSLg==","69168b21477cff9ada6cb980","691d1deb9dc6f6d5d7681047","index1","<span style='color:red'>Fail,<span style='color:red'>Fail,<span style='color:green'>Lift,<span style='color:green'>Lift,<span style='color:red'>Fail,<span style='color:red'>Fail,<span style='color:red'>Fail,<span style='color:red'>Fail,<span style='color:red'>Fail,<span style='color:green'>Lift,<span style='color:green'>Lift,<span style='color:red'>Fail","<span style='color:red'>Fail,<span style='color:red'>Fail,<span style='color:green'>Lift,<span style='color:green'>Lift,<span style='color:green'>Lift,<span style='color:green'>Lift,<span style='color:green'>Lift,<span style='color:red'>Fail,<span style='color:green'>Lift,<span style='color:green'>Lift,<span style='color:green'>Lift,<span style='color:red'>Fail","<span style='color:red'>Fail,<span style='color:green'>Lift,<span style='color:green'>Lift,<span style='color:red'>Fail,<span style='color:green'>Lift,<span style='color:green'>Lift","0,0,1,1,0,0,0,0,0,1,1,0","0,0,1,1,1,1,1,0,1,1,1,0","0,1,1,0,1,1",10,20,20,"","[{""page_index"":0,""viewing_time"":7247.30000000447},{""page_index"":1,""viewing_time"":15669.09999999404}]","","","","",NA,"",NA,NA,NA,NA,NA,NA,NA,NA,NA,NA,NA,NA,NA,NA,NA,NA,NA,NA,NA,NA,NA,NA,NA,NA,NA,NA,NA,NA,NA,NA,NA,NA,NA,NA,NA,NA,NA,NA,NA,"",NA,NA,NA,NA,NA,NA,NA,NA,NA,2025-11-19 02:03:22
"null","https://psyc-201.github.io/xiang2023/exp/index1.html?PROLIFIC_PID=REDACTED&STUDY_ID=69168b21477cff9ada6cb980&SESSION_ID=691d1deb9dc6f6d5d7681047","html-keyboard-response",6,182263,"0.0-306.0","j+yQOpoVnrLFc46eKhMiQur5sMOuPmd35dPNszpf82GUxmqxCwlOPnb1MGn2DlA+TuX3a3E5DYkKKKfmiGlEY8f/1qCBlu1C0Y1gjtNLjdRc9WLcSXKlfLkybWsjwiw9BD821SmhbW/60LnzUCuPPkkb1LC++Mz4XT6IYvuawDU8YjThLLM9zH4i5HbusT+tzAj6+XMnUtt6vSLjoWxP7iBQ1eP/xVK7ZCOHorHlfbClDNEGow1pTip/7chOP2ElsJowPesUhbV+HxOT2W3w4AuB2b41cDleQo94OxKyfNKTwdCeDyytqgyNAj0yAZxddU3FqmS/oNGH5cTjzUgSLg==","69168b21477cff9ada6cb980","691d1deb9dc6f6d5d7681047","index1","<span style='color:red'>Fail,<span style='color:red'>Fail,<span style='color:green'>Lift,<span style='color:green'>Lift,<span style='color:red'>Fail,<span style='color:red'>Fail,<span style='color:red'>Fail,<span style='color:red'>Fail,<span style='color:red'>Fail,<span style='color:green'>Lift,<span style='color:green'>Lift,<span style='color:red'>Fail","<span style='color:red'>Fail,<span style='color:red'>Fail,<span style='color:green'>Lift,<span style='color:green'>Lift,<span style='color:green'>Lift,<span style='color:green'>Lift,<span style='color:green'>Lift,<span style='color:red'>Fail,<span style='color:green'>Lift,<span style='color:green'>Lift,<span style='color:green'>Lift,<span style='color:red'>Fail","<span style='color:red'>Fail,<span style='color:green'>Lift,<span style='color:green'>Lift,<span style='color:red'>Fail,<span style='color:green'>Lift,<span style='color:green'>Lift","0,0,1,1,0,0,0,0,0,1,1,0","0,0,1,1,1,1,1,0,1,1,1,0","0,1,1,0,1,1",10,20,20,"",""," ","null","","",1,"",NA,NA,NA,NA,NA,NA,NA,NA,NA,NA,NA,NA,NA,NA,NA,NA,NA,NA,NA,NA,NA,NA,NA,NA,NA,NA,NA,NA,NA,NA,NA,NA,NA,NA,NA,NA,NA,NA,NA,"",NA,NA,NA,NA,NA,NA,NA,NA,NA,2025-11-19 02:03:22
"null","https://psyc-201.github.io/xiang2023/exp/index1.html?PROLIFIC_PID=REDACTED&STUDY_ID=69168b21477cff9ada6cb980&SESSION_ID=691d1deb9dc6f6d5d7681047","html-keyboard-response",7,185274,"0.0-307.0","j+yQOpoVnrLFc46eKhMiQur5sMOuPmd35dPNszpf82GUxmqxCwlOPnb1MGn2DlA+TuX3a3E5DYkKKKfmiGlEY8f/1qCBlu1C0Y1gjtNLjdRc9WLcSXKlfLkybWsjwiw9BD821SmhbW/60LnzUCuPPkkb1LC++Mz4XT6IYvuawDU8YjThLLM9zH4i5HbusT+tzAj6+XMnUtt6vSLjoWxP7iBQ1eP/xVK7ZCOHorHlfbClDNEGow1pTip/7chOP2ElsJowPesUhbV+HxOT2W3w4AuB2b41cDleQo94OxKyfNKTwdCeDyytqgyNAj0yAZxddU3FqmS/oNGH5cTjzUgSLg==","69168b21477cff9ada6cb980","691d1deb9dc6f6d5d7681047","index1","<span style='color:red'>Fail,<span style='color:red'>Fail,<span style='color:green'>Lift,<span style='color:green'>Lift,<span style='color:red'>Fail,<span style='color:red'>Fail,<span style='color:red'>Fail,<span style='color:red'>Fail,<span style='color:red'>Fail,<span style='color:green'>Lift,<span style='color:green'>Lift,<span style='color:red'>Fail","<span style='color:red'>Fail,<span style='color:red'>Fail,<span style='color:green'>Lift,<span style='color:green'>Lift,<span style='color:green'>Lift,<span style='color:green'>Lift,<span style='color:green'>Lift,<span style='color:red'>Fail,<span style='color:green'>Lift,<span style='color:green'>Lift,<span style='color:green'>Lift,<span style='color:red'>Fail","<span style='color:red'>Fail,<span style='color:green'>Lift,<span style='color:green'>Lift,<span style='color:red'>Fail,<span style='color:green'>Lift,<span style='color:green'>Lift","0,0,1,1,0,0,0,0,0,1,1,0","0,0,1,1,1,1,1,0,1,1,1,0","0,1,1,0,1,1",10,20,20,"","","<p style='font-size:30px'><b> New Contest! </b></p>","null","","",1,"",NA,NA,NA,NA,NA,NA,NA,NA,NA,NA,NA,NA,NA,NA,NA,NA,NA,NA,NA,NA,NA,NA,NA,NA,NA,NA,NA,NA,NA,NA,NA,NA,NA,NA,NA,NA,NA,NA,NA,"",NA,NA,NA,NA,NA,NA,NA,NA,NA,2025-11-19 02:03:22
"18085.29999999702","https://psyc-201.github.io/xiang2023/exp/index1.html?PROLIFIC_PID=REDACTED&STUDY_ID=69168b21477cff9ada6cb980&SESSION_ID=691d1deb9dc6f6d5d7681047","survey-html-form",8,203361,"0.0-308.0","j+yQOpoVnrLFc46eKhMiQur5sMOuPmd35dPNszpf82GUxmqxCwlOPnb1MGn2DlA+TuX3a3E5DYkKKKfmiGlEY8f/1qCBlu1C0Y1gjtNLjdRc9WLcSXKlfLkybWsjwiw9BD821SmhbW/60LnzUCuPPkkb1LC++Mz4XT6IYvuawDU8YjThLLM9zH4i5HbusT+tzAj6+XMnUtt6vSLjoWxP7iBQ1eP/xVK7ZCOHorHlfbClDNEGow1pTip/7chOP2ElsJowPesUhbV+HxOT2W3w4AuB2b41cDleQo94OxKyfNKTwdCeDyytqgyNAj0yAZxddU3FqmS/oNGH5cTjzUgSLg==","69168b21477cff9ada6cb980","691d1deb9dc6f6d5d7681047","index1","<span style='color:red'>Fail,<span style='color:red'>Fail,<span style='color:green'>Lift,<span style='color:green'>Lift,<span style='color:red'>Fail,<span style='color:red'>Fail,<span style='color:red'>Fail,<span style='color:red'>Fail,<span style='color:red'>Fail,<span style='color:green'>Lift,<span style='color:green'>Lift,<span style='color:red'>Fail","<span style='color:red'>Fail,<span style='color:red'>Fail,<span style='color:green'>Lift,<span style='color:green'>Lift,<span style='color:green'>Lift,<span style='color:green'>Lift,<span style='color:green'>Lift,<span style='color:red'>Fail,<span style='color:green'>Lift,<span style='color:green'>Lift,<span style='color:green'>Lift,<span style='color:red'>Fail","<span style='color:red'>Fail,<span style='color:green'>Lift,<span style='color:green'>Lift,<span style='color:red'>Fail,<span style='color:green'>Lift,<span style='color:green'>Lift","0,0,1,1,0,0,0,0,0,1,1,0","0,0,1,1,1,1,1,0,1,1,1,0","0,1,1,0,1,1",10,20,20,"","","","","{""box1"":""4"",""box2"":""4""}","",1,"round1_outcome",1,1,1,4,4,NA,NA,0,0,10,4,4,NA,NA,0,0,10,NA,NA,NA,NA,NA,NA,NA,NA,NA,NA,NA,NA,NA,NA,NA,NA,NA,NA,NA,NA,NA,NA,"",NA,NA,NA,NA,NA,NA,NA,NA,NA,2025-11-19 02:03:22
"16067","https://psyc-201.github.io/xiang2023/exp/index1.html?PROLIFIC_PID=REDACTED&STUDY_ID=69168b21477cff9ada6cb980&SESSION_ID=691d1deb9dc6f6d5d7681047","survey-html-form",9,219429,"0.0-309.0","j+yQOpoVnrLFc46eKhMiQur5sMOuPmd35dPNszpf82GUxmqxCwlOPnb1MGn2DlA+TuX3a3E5DYkKKKfmiGlEY8f/1qCBlu1C0Y1gjtNLjdRc9WLcSXKlfLkybWsjwiw9BD821SmhbW/60LnzUCuPPkkb1LC++Mz4XT6IYvuawDU8YjThLLM9zH4i5HbusT+tzAj6+XMnUtt6vSLjoWxP7iBQ1eP/xVK7ZCOHorHlfbClDNEGow1pTip/7chOP2ElsJowPesUhbV+HxOT2W3w4AuB2b41cDleQo94OxKyfNKTwdCeDyytqgyNAj0yAZxddU3FqmS/oNGH5cTjzUgSLg==","69168b21477cff9ada6cb980","691d1deb9dc6f6d5d7681047","index1","<span style='color:red'>Fail,<span style='color:red'>Fail,<span style='color:green'>Lift,<span style='color:green'>Lift,<span style='color:red'>Fail,<span style='color:red'>Fail,<span style='color:red'>Fail,<span style='color:red'>Fail,<span style='color:red'>Fail,<span style='color:green'>Lift,<span style='color:green'>Lift,<span style='color:red'>Fail","<span style='color:red'>Fail,<span style='color:red'>Fail,<span style='color:green'>Lift,<span style='color:green'>Lift,<span style='color:green'>Lift,<span style='color:green'>Lift,<span style='color:green'>Lift,<span style='color:red'>Fail,<span style='color:green'>Lift,<span style='color:green'>Lift,<span style='color:green'>Lift,<span style='color:red'>Fail","<span style='color:red'>Fail,<span style='color:green'>Lift,<span style='color:green'>Lift,<span style='color:red'>Fail,<span style='color:green'>Lift,<span style='color:green'>Lift","0,0,1,1,0,0,0,0,0,1,1,0","0,0,1,1,1,1,1,0,1,1,1,0","0,1,1,0,1,1",10,20,20,"","","","","{""box1"":""60"",""box2"":""60""}","",1,"round2_ready",2,1,2,NA,NA,NA,NA,NA,NA,NA,NA,NA,NA,NA,NA,NA,NA,60,60,60,60,NA,NA,NA,NA,NA,NA,NA,NA,NA,NA,NA,NA,NA,NA,NA,NA,NA,NA,"",NA,NA,NA,NA,NA,NA,NA,NA,NA,2025-11-19 02:03:22
"23708.10000000149","https://psyc-201.github.io/xiang2023/exp/index1.html?PROLIFIC_PID=REDACTED&STUDY_ID=69168b21477cff9ada6cb980&SESSION_ID=691d1deb9dc6f6d5d7681047","survey-html-form",10,243138,"0.0-310.0","j+yQOpoVnrLFc46eKhMiQur5sMOuPmd35dPNszpf82GUxmqxCwlOPnb1MGn2DlA+TuX3a3E5DYkKKKfmiGlEY8f/1qCBlu1C0Y1gjtNLjdRc9WLcSXKlfLkybWsjwiw9BD821SmhbW/60LnzUCuPPkkb1LC++Mz4XT6IYvuawDU8YjThLLM9zH4i5HbusT+tzAj6+XMnUtt6vSLjoWxP7iBQ1eP/xVK7ZCOHorHlfbClDNEGow1pTip/7chOP2ElsJowPesUhbV+HxOT2W3w4AuB2b41cDleQo94OxKyfNKTwdCeDyytqgyNAj0yAZxddU3FqmS/oNGH5cTjzUgSLg==","69168b21477cff9ada6cb980","691d1deb9dc6f6d5d7681047","index1","<span style='color:red'>Fail,<span style='color:red'>Fail,<span style='color:green'>Lift,<span style='color:green'>Lift,<span style='color:red'>Fail,<span style='color:red'>Fail,<span style='color:red'>Fail,<span style='color:red'>Fail,<span style='color:red'>Fail,<span style='color:green'>Lift,<span style='color:green'>Lift,<span style='color:red'>Fail","<span style='color:red'>Fail,<span style='color:red'>Fail,<span style='color:green'>Lift,<span style='color:green'>Lift,<span style='color:green'>Lift,<span style='color:green'>Lift,<span style='color:green'>Lift,<span style='color:red'>Fail,<span style='color:green'>Lift,<span style='color:green'>Lift,<span style='color:green'>Lift,<span style='color:red'>Fail","<span style='color:red'>Fail,<span style='color:green'>Lift,<span style='color:green'>Lift,<span style='color:red'>Fail,<span style='color:green'>Lift,<span style='color:green'>Lift","0,0,1,1,0,0,0,0,0,1,1,0","0,0,1,1,1,1,1,0,1,1,1,0","0,1,1,0,1,1",10,20,20,"","","","","{""box1"":""4"",""box2"":""4""}","",1,"round2_outcome",3,1,2,4,4,NA,NA,0,0,20,NA,NA,NA,NA,NA,NA,NA,NA,NA,NA,NA,4,4,NA,NA,0,0,20,NA,NA,NA,NA,NA,NA,NA,NA,NA,NA,NA,"",NA,NA,NA,NA,NA,NA,NA,NA,NA,2025-11-19 02:03:22
"19041.5","https://psyc-201.github.io/xiang2023/exp/index1.html?PROLIFIC_PID=REDACTED&STUDY_ID=69168b21477cff9ada6cb980&SESSION_ID=691d1deb9dc6f6d5d7681047","survey-html-form",11,262181,"0.0-311.0","j+yQOpoVnrLFc46eKhMiQur5sMOuPmd35dPNszpf82GUxmqxCwlOPnb1MGn2DlA+TuX3a3E5DYkKKKfmiGlEY8f/1qCBlu1C0Y1gjtNLjdRc9WLcSXKlfLkybWsjwiw9BD821SmhbW/60LnzUCuPPkkb1LC++Mz4XT6IYvuawDU8YjThLLM9zH4i5HbusT+tzAj6+XMnUtt6vSLjoWxP7iBQ1eP/xVK7ZCOHorHlfbClDNEGow1pTip/7chOP2ElsJowPesUhbV+HxOT2W3w4AuB2b41cDleQo94OxKyfNKTwdCeDyytqgyNAj0yAZxddU3FqmS/oNGH5cTjzUgSLg==","69168b21477cff9ada6cb980","691d1deb9dc6f6d5d7681047","index1","<span style='color:red'>Fail,<span style='color:red'>Fail,<span style='color:green'>Lift,<span style='color:green'>Lift,<span style='color:red'>Fail,<span style='color:red'>Fail,<span style='color:red'>Fail,<span style='color:red'>Fail,<span style='color:red'>Fail,<span style='color:green'>Lift,<span style='color:green'>Lift,<span style='color:red'>Fail","<span style='color:red'>Fail,<span style='color:red'>Fail,<span style='color:green'>Lift,<span style='color:green'>Lift,<span style='color:green'>Lift,<span style='color:green'>Lift,<span style='color:green'>Lift,<span style='color:red'>Fail,<span style='color:green'>Lift,<span style='color:green'>Lift,<span style='color:green'>Lift,<span style='color:red'>Fail","<span style='color:red'>Fail,<span style='color:green'>Lift,<span style='color:green'>Lift,<span style='color:red'>Fail,<span style='color:green'>Lift,<span style='color:green'>Lift","0,0,1,1,0,0,0,0,0,1,1,0","0,0,1,1,1,1,1,0,1,1,1,0","0,1,1,0,1,1",10,20,20,"","","","","{""box1"":""90""}","",1,"round3_ready",4,1,3,NA,NA,NA,NA,NA,NA,NA,NA,NA,NA,NA,NA,NA,NA,90,90,NA,NA,NA,NA,NA,NA,NA,NA,NA,90,90,NA,NA,NA,NA,NA,NA,NA,NA,NA,"",NA,NA,NA,NA,NA,NA,NA,NA,NA,2025-11-19 02:03:22
"78078","https://psyc-201.github.io/xiang2023/exp/index1.html?PROLIFIC_PID=REDACTED&STUDY_ID=69168b21477cff9ada6cb980&SESSION_ID=691d1deb9dc6f6d5d7681047","survey-html-form",12,340260,"0.0-313.0-0.0","j+yQOpoVnrLFc46eKhMiQur5sMOuPmd35dPNszpf82GUxmqxCwlOPnb1MGn2DlA+TuX3a3E5DYkKKKfmiGlEY8f/1qCBlu1C0Y1gjtNLjdRc9WLcSXKlfLkybWsjwiw9BD821SmhbW/60LnzUCuPPkkb1LC++Mz4XT6IYvuawDU8YjThLLM9zH4i5HbusT+tzAj6+XMnUtt6vSLjoWxP7iBQ1eP/xVK7ZCOHorHlfbClDNEGow1pTip/7chOP2ElsJowPesUhbV+HxOT2W3w4AuB2b41cDleQo94OxKyfNKTwdCeDyytqgyNAj0yAZxddU3FqmS/oNGH5cTjzUgSLg==","69168b21477cff9ada6cb980","691d1deb9dc6f6d5d7681047","index1","<span style='color:red'>Fail,<span style='color:red'>Fail,<span style='color:green'>Lift,<span style='color:green'>Lift,<span style='color:red'>Fail,<span style='color:red'>Fail,<span style='color:red'>Fail,<span style='color:red'>Fail,<span style='color:red'>Fail,<span style='color:green'>Lift,<span style='color:green'>Lift,<span style='color:red'>Fail","<span style='color:red'>Fail,<span style='color:red'>Fail,<span style='color:green'>Lift,<span style='color:green'>Lift,<span style='color:green'>Lift,<span style='color:green'>Lift,<span style='color:green'>Lift,<span style='color:red'>Fail,<span style='color:green'>Lift,<span style='color:green'>Lift,<span style='color:green'>Lift,<span style='color:red'>Fail","<span style='color:red'>Fail,<span style='color:green'>Lift,<span style='color:green'>Lift,<span style='color:red'>Fail,<span style='color:green'>Lift,<span style='color:green'>Lift","0,0,1,1,0,0,0,0,0,1,1,0","0,0,1,1,1,1,1,0,1,1,1,0","0,1,1,0,1,1",10,20,20,"","","","","{""box1"":""4"",""box2"":""4"",""box3"":""999"",""box4"":""999""}","",2,"round3_fail",5,1,3,4,4,NA,NA,0,0,20,NA,NA,NA,NA,NA,NA,NA,NA,NA,NA,NA,NA,NA,NA,NA,NA,NA,NA,NA,NA,1,1,4,4,0,0,20,NA,NA,"",NA,NA,NA,NA,NA,NA,NA,NA,NA,2025-11-19 02:03:22
"null","https://psyc-201.github.io/xiang2023/exp/index1.html?PROLIFIC_PID=REDACTED&STUDY_ID=69168b21477cff9ada6cb980&SESSION_ID=691d1deb9dc6f6d5d7681047","html-keyboard-response",13,343275,"0.0-316.0","j+yQOpoVnrLFc46eKhMiQur5sMOuPmd35dPNszpf82GUxmqxCwlOPnb1MGn2DlA+TuX3a3E5DYkKKKfmiGlEY8f/1qCBlu1C0Y1gjtNLjdRc9WLcSXKlfLkybWsjwiw9BD821SmhbW/60LnzUCuPPkkb1LC++Mz4XT6IYvuawDU8YjThLLM9zH4i5HbusT+tzAj6+XMnUtt6vSLjoWxP7iBQ1eP/xVK7ZCOHorHlfbClDNEGow1pTip/7chOP2ElsJowPesUhbV+HxOT2W3w4AuB2b41cDleQo94OxKyfNKTwdCeDyytqgyNAj0yAZxddU3FqmS/oNGH5cTjzUgSLg==","69168b21477cff9ada6cb980","691d1deb9dc6f6d5d7681047","index1","<span style='color:red'>Fail,<span style='color:red'>Fail,<span style='color:green'>Lift,<span style='color:green'>Lift,<span style='color:red'>Fail,<span style='color:red'>Fail,<span style='color:red'>Fail,<span style='color:red'>Fail,<span style='color:red'>Fail,<span style='color:green'>Lift,<span style='color:green'>Lift,<span style='color:red'>Fail","<span style='color:red'>Fail,<span style='color:red'>Fail,<span style='color:green'>Lift,<span style='color:green'>Lift,<span style='color:green'>Lift,<span style='color:green'>Lift,<span style='color:green'>Lift,<span style='color:red'>Fail,<span style='color:green'>Lift,<span style='color:green'>Lift,<span style='color:green'>Lift,<span style='color:red'>Fail","<span style='color:red'>Fail,<span style='color:green'>Lift,<span style='color:green'>Lift,<span style='color:red'>Fail,<span style='color:green'>Lift,<span style='color:green'>Lift","0,0,1,1,0,0,0,0,0,1,1,0","0,0,1,1,1,1,1,0,1,1,1,0","0,1,1,0,1,1",10,20,20,"","","<p style='font-size:30px'><b> New Contest! </b></p>","null","","",2,"",NA,NA,NA,NA,NA,NA,NA,NA,NA,NA,NA,NA,NA,NA,NA,NA,NA,NA,NA,NA,NA,NA,NA,NA,NA,NA,NA,NA,NA,NA,NA,NA,NA,NA,NA,NA,NA,NA,NA,"",NA,NA,NA,NA,NA,NA,NA,NA,NA,2025-11-19 02:03:22
"18930","https://psyc-201.github.io/xiang2023/exp/index1.html?PROLIFIC_PID=REDACTED&STUDY_ID=69168b21477cff9ada6cb980&SESSION_ID=691d1deb9dc6f6d5d7681047","survey-html-form",14,362206,"0.0-317.0","j+yQOpoVnrLFc46eKhMiQur5sMOuPmd35dPNszpf82GUxmqxCwlOPnb1MGn2DlA+TuX3a3E5DYkKKKfmiGlEY8f/1qCBlu1C0Y1gjtNLjdRc9WLcSXKlfLkybWsjwiw9BD821SmhbW/60LnzUCuPPkkb1LC++Mz4XT6IYvuawDU8YjThLLM9zH4i5HbusT+tzAj6+XMnUtt6vSLjoWxP7iBQ1eP/xVK7ZCOHorHlfbClDNEGow1pTip/7chOP2ElsJowPesUhbV+HxOT2W3w4AuB2b41cDleQo94OxKyfNKTwdCeDyytqgyNAj0yAZxddU3FqmS/oNGH5cTjzUgSLg==","69168b21477cff9ada6cb980","691d1deb9dc6f6d5d7681047","index1","<span style='color:red'>Fail,<span style='color:red'>Fail,<span style='color:green'>Lift,<span style='color:green'>Lift,<span style='color:red'>Fail,<span style='color:red'>Fail,<span style='color:red'>Fail,<span style='color:red'>Fail,<span style='color:red'>Fail,<span style='color:green'>Lift,<span style='color:green'>Lift,<span style='color:red'>Fail","<span style='color:red'>Fail,<span style='color:red'>Fail,<span style='color:green'>Lift,<span style='color:green'>Lift,<span style='color:green'>Lift,<span style='color:green'>Lift,<span style='color:green'>Lift,<span style='color:red'>Fail,<span style='color:green'>Lift,<span style='color:green'>Lift,<span style='color:green'>Lift,<span style='color:red'>Fail","<span style='color:red'>Fail,<span style='color:green'>Lift,<span style='color:green'>Lift,<span style='color:red'>Fail,<span style='color:green'>Lift,<span style='color:green'>Lift","0,0,1,1,0,0,0,0,0,1,1,0","0,0,1,1,1,1,1,0,1,1,1,0","0,1,1,0,1,1",10,20,20,"","","","","{""box1"":""4"",""box2"":""4"",""box3"":""70""}","",2,"round1_outcome",1,2,1,4,4,70,NA,1,0,10,4,4,70,NA,1,0,10,NA,NA,NA,NA,NA,NA,NA,NA,NA,NA,NA,NA,NA,NA,NA,NA,NA,NA,NA,NA,NA,NA,"",NA,NA,NA,NA,NA,NA,NA,NA,NA,2025-11-19 02:03:22
"17104.10000000149","https://psyc-201.github.io/xiang2023/exp/index1.html?PROLIFIC_PID=REDACTED&STUDY_ID=69168b21477cff9ada6cb980&SESSION_ID=691d1deb9dc6f6d5d7681047","survey-html-form",15,379312,"0.0-318.0","j+yQOpoVnrLFc46eKhMiQur5sMOuPmd35dPNszpf82GUxmqxCwlOPnb1MGn2DlA+TuX3a3E5DYkKKKfmiGlEY8f/1qCBlu1C0Y1gjtNLjdRc9WLcSXKlfLkybWsjwiw9BD821SmhbW/60LnzUCuPPkkb1LC++Mz4XT6IYvuawDU8YjThLLM9zH4i5HbusT+tzAj6+XMnUtt6vSLjoWxP7iBQ1eP/xVK7ZCOHorHlfbClDNEGow1pTip/7chOP2ElsJowPesUhbV+HxOT2W3w4AuB2b41cDleQo94OxKyfNKTwdCeDyytqgyNAj0yAZxddU3FqmS/oNGH5cTjzUgSLg==","69168b21477cff9ada6cb980","691d1deb9dc6f6d5d7681047","index1","<span style='color:red'>Fail,<span style='color:red'>Fail,<span style='color:green'>Lift,<span style='color:green'>Lift,<span style='color:red'>Fail,<span style='color:red'>Fail,<span style='color:red'>Fail,<span style='color:red'>Fail,<span style='color:red'>Fail,<span style='color:green'>Lift,<span style='color:green'>Lift,<span style='color:red'>Fail","<span style='color:red'>Fail,<span style='color:red'>Fail,<span style='color:green'>Lift,<span style='color:green'>Lift,<span style='color:green'>Lift,<span style='color:green'>Lift,<span style='color:green'>Lift,<span style='color:red'>Fail,<span style='color:green'>Lift,<span style='color:green'>Lift,<span style='color:green'>Lift,<span style='color:red'>Fail","<span style='color:red'>Fail,<span style='color:green'>Lift,<span style='color:green'>Lift,<span style='color:red'>Fail,<span style='color:green'>Lift,<span style='color:green'>Lift","0,0,1,1,0,0,0,0,0,1,1,0","0,0,1,1,1,1,1,0,1,1,1,0","0,1,1,0,1,1",10,20,20,"","","","","{""box1"":""95"",""box2"":""40""}","",2,"round2_ready",2,2,2,NA,NA,NA,NA,NA,NA,NA,NA,NA,NA,NA,NA,NA,NA,95,40,95,40,NA,NA,NA,NA,NA,NA,NA,NA,NA,NA,NA,NA,NA,NA,NA,NA,NA,NA,"",NA,NA,NA,NA,NA,NA,NA,NA,NA,2025-11-19 02:03:22
"100762.89999999851","https://psyc-201.github.io/xiang2023/exp/index1.html?PROLIFIC_PID=REDACTED&STUDY_ID=69168b21477cff9ada6cb980&SESSION_ID=691d1deb9dc6f6d5d7681047","survey-html-form",16,480076,"0.0-319.0","j+yQOpoVnrLFc46eKhMiQur5sMOuPmd35dPNszpf82GUxmqxCwlOPnb1MGn2DlA+TuX3a3E5DYkKKKfmiGlEY8f/1qCBlu1C0Y1gjtNLjdRc9WLcSXKlfLkybWsjwiw9BD821SmhbW/60LnzUCuPPkkb1LC++Mz4XT6IYvuawDU8YjThLLM9zH4i5HbusT+tzAj6+XMnUtt6vSLjoWxP7iBQ1eP/xVK7ZCOHorHlfbClDNEGow1pTip/7chOP2ElsJowPesUhbV+HxOT2W3w4AuB2b41cDleQo94OxKyfNKTwdCeDyytqgyNAj0yAZxddU3FqmS/oNGH5cTjzUgSLg==","69168b21477cff9ada6cb980","691d1deb9dc6f6d5d7681047","index1","<span style='color:red'>Fail,<span style='color:red'>Fail,<span style='color:green'>Lift,<span style='color:green'>Lift,<span style='color:red'>Fail,<span style='color:red'>Fail,<span style='color:red'>Fail,<span style='color:red'>Fail,<span style='color:red'>Fail,<span style='color:green'>Lift,<span style='color:green'>Lift,<span style='color:red'>Fail","<span style='color:red'>Fail,<span style='color:red'>Fail,<span style='color:green'>Lift,<span style='color:green'>Lift,<span style='color:green'>Lift,<span style='color:green'>Lift,<span style='color:green'>Lift,<span style='color:red'>Fail,<span style='color:green'>Lift,<span style='color:green'>Lift,<span style='color:green'>Lift,<span style='color:red'>Fail","<span style='color:red'>Fail,<span style='color:green'>Lift,<span style='color:green'>Lift,<span style='color:red'>Fail,<span style='color:green'>Lift,<span style='color:green'>Lift","0,0,1,1,0,0,0,0,0,1,1,0","0,0,1,1,1,1,1,0,1,1,1,0","0,1,1,0,1,1",10,20,20,"","","","","{""box1"":""4"",""box2"":""4"",""box3"":""60""}","",2,"round2_outcome",3,2,2,4,4,60,NA,1,0,20,NA,NA,NA,NA,NA,NA,NA,NA,NA,NA,NA,4,4,60,NA,1,0,20,NA,NA,NA,NA,NA,NA,NA,NA,NA,NA,NA,"",NA,NA,NA,NA,NA,NA,NA,NA,NA,2025-11-19 02:03:22
"371039.80000000447","https://psyc-201.github.io/xiang2023/exp/index1.html?PROLIFIC_PID=REDACTED&STUDY_ID=69168b21477cff9ada6cb980&SESSION_ID=691d1deb9dc6f6d5d7681047","survey-html-form",17,851116,"0.0-320.0","j+yQOpoVnrLFc46eKhMiQur5sMOuPmd35dPNszpf82GUxmqxCwlOPnb1MGn2DlA+TuX3a3E5DYkKKKfmiGlEY8f/1qCBlu1C0Y1gjtNLjdRc9WLcSXKlfLkybWsjwiw9BD821SmhbW/60LnzUCuPPkkb1LC++Mz4XT6IYvuawDU8YjThLLM9zH4i5HbusT+tzAj6+XMnUtt6vSLjoWxP7iBQ1eP/xVK7ZCOHorHlfbClDNEGow1pTip/7chOP2ElsJowPesUhbV+HxOT2W3w4AuB2b41cDleQo94OxKyfNKTwdCeDyytqgyNAj0yAZxddU3FqmS/oNGH5cTjzUgSLg==","69168b21477cff9ada6cb980","691d1deb9dc6f6d5d7681047","index1","<span style='color:red'>Fail,<span style='color:red'>Fail,<span style='color:green'>Lift,<span style='color:green'>Lift,<span style='color:red'>Fail,<span style='color:red'>Fail,<span style='color:red'>Fail,<span style='color:red'>Fail,<span style='color:red'>Fail,<span style='color:green'>Lift,<span style='color:green'>Lift,<span style='color:red'>Fail","<span style='color:red'>Fail,<span style='color:red'>Fail,<span style='color:green'>Lift,<span style='color:green'>Lift,<span style='color:green'>Lift,<span style='color:green'>Lift,<span style='color:green'>Lift,<span style='color:red'>Fail,<span style='color:green'>Lift,<span style='color:green'>Lift,<span style='color:green'>Lift,<span style='color:red'>Fail","<span style='color:red'>Fail,<span style='color:green'>Lift,<span style='color:green'>Lift,<span style='color:red'>Fail,<span style='color:green'>Lift,<span style='color:green'>Lift","0,0,1,1,0,0,0,0,0,1,1,0","0,0,1,1,1,1,1,0,1,1,1,0","0,1,1,0,1,1",10,20,20,"","","","","{""box1"":""95""}","",2,"round3_ready",4,2,3,NA,NA,NA,NA,NA,NA,NA,NA,NA,NA,NA,NA,NA,NA,95,95,NA,NA,NA,NA,NA,NA,NA,NA,NA,95,95,NA,NA,NA,NA,NA,NA,NA,NA,NA,"",NA,NA,NA,NA,NA,NA,NA,NA,NA,2025-11-19 02:03:22
"13838.10000000149","https://psyc-201.github.io/xiang2023/exp/index1.html?PROLIFIC_PID=REDACTED&STUDY_ID=69168b21477cff9ada6cb980&SESSION_ID=691d1deb9dc6f6d5d7681047","survey-html-form",18,864956,"0.0-321.0-0.0","j+yQOpoVnrLFc46eKhMiQur5sMOuPmd35dPNszpf82GUxmqxCwlOPnb1MGn2DlA+TuX3a3E5DYkKKKfmiGlEY8f/1qCBlu1C0Y1gjtNLjdRc9WLcSXKlfLkybWsjwiw9BD821SmhbW/60LnzUCuPPkkb1LC++Mz4XT6IYvuawDU8YjThLLM9zH4i5HbusT+tzAj6+XMnUtt6vSLjoWxP7iBQ1eP/xVK7ZCOHorHlfbClDNEGow1pTip/7chOP2ElsJowPesUhbV+HxOT2W3w4AuB2b41cDleQo94OxKyfNKTwdCeDyytqgyNAj0yAZxddU3FqmS/oNGH5cTjzUgSLg==","69168b21477cff9ada6cb980","691d1deb9dc6f6d5d7681047","index1","<span style='color:red'>Fail,<span style='color:red'>Fail,<span style='color:green'>Lift,<span style='color:green'>Lift,<span style='color:red'>Fail,<span style='color:red'>Fail,<span style='color:red'>Fail,<span style='color:red'>Fail,<span style='color:red'>Fail,<span style='color:green'>Lift,<span style='color:green'>Lift,<span style='color:red'>Fail","<span style='color:red'>Fail,<span style='color:red'>Fail,<span style='color:green'>Lift,<span style='color:green'>Lift,<span style='color:green'>Lift,<span style='color:green'>Lift,<span style='color:green'>Lift,<span style='color:red'>Fail,<span style='color:green'>Lift,<span style='color:green'>Lift,<span style='color:green'>Lift,<span style='color:red'>Fail","<span style='color:red'>Fail,<span style='color:green'>Lift,<span style='color:green'>Lift,<span style='color:red'>Fail,<span style='color:green'>Lift,<span style='color:green'>Lift","0,0,1,1,0,0,0,0,0,1,1,0","0,0,1,1,1,1,1,0,1,1,1,0","0,1,1,0,1,1",10,20,20,"","","","","{""box1"":""6"",""box2"":""6"",""box3"":""60"",""box4"":""100""}","",3,"round3_lift",5,2,3,6,6,60,100,1,1,20,NA,NA,NA,NA,NA,NA,NA,NA,NA,NA,NA,NA,NA,NA,NA,NA,NA,NA,NA,NA,NA,NA,6,6,1,1,20,60,100,"",NA,NA,NA,NA,NA,NA,NA,NA,NA,2025-11-19 02:03:22
"null","https://psyc-201.github.io/xiang2023/exp/index1.html?PROLIFIC_PID=REDACTED&STUDY_ID=69168b21477cff9ada6cb980&SESSION_ID=691d1deb9dc6f6d5d7681047","html-keyboard-response",19,867965,"0.0-325.0","j+yQOpoVnrLFc46eKhMiQur5sMOuPmd35dPNszpf82GUxmqxCwlOPnb1MGn2DlA+TuX3a3E5DYkKKKfmiGlEY8f/1qCBlu1C0Y1gjtNLjdRc9WLcSXKlfLkybWsjwiw9BD821SmhbW/60LnzUCuPPkkb1LC++Mz4XT6IYvuawDU8YjThLLM9zH4i5HbusT+tzAj6+XMnUtt6vSLjoWxP7iBQ1eP/xVK7ZCOHorHlfbClDNEGow1pTip/7chOP2ElsJowPesUhbV+HxOT2W3w4AuB2b41cDleQo94OxKyfNKTwdCeDyytqgyNAj0yAZxddU3FqmS/oNGH5cTjzUgSLg==","69168b21477cff9ada6cb980","691d1deb9dc6f6d5d7681047","index1","<span style='color:red'>Fail,<span style='color:red'>Fail,<span style='color:green'>Lift,<span style='color:green'>Lift,<span style='color:red'>Fail,<span style='color:red'>Fail,<span style='color:red'>Fail,<span style='color:red'>Fail,<span style='color:red'>Fail,<span style='color:green'>Lift,<span style='color:green'>Lift,<span style='color:red'>Fail","<span style='color:red'>Fail,<span style='color:red'>Fail,<span style='color:green'>Lift,<span style='color:green'>Lift,<span style='color:green'>Lift,<span style='color:green'>Lift,<span style='color:green'>Lift,<span style='color:red'>Fail,<span style='color:green'>Lift,<span style='color:green'>Lift,<span style='color:green'>Lift,<span style='color:red'>Fail","<span style='color:red'>Fail,<span style='color:green'>Lift,<span style='color:green'>Lift,<span style='color:red'>Fail,<span style='color:green'>Lift,<span style='color:green'>Lift","0,0,1,1,0,0,0,0,0,1,1,0","0,0,1,1,1,1,1,0,1,1,1,0","0,1,1,0,1,1",10,20,20,"","","<p style='font-size:30px'><b> New Contest! </b></p>","null","","",3,"",NA,NA,NA,NA,NA,NA,NA,NA,NA,NA,NA,NA,NA,NA,NA,NA,NA,NA,NA,NA,NA,NA,NA,NA,NA,NA,NA,NA,NA,NA,NA,NA,NA,NA,NA,NA,NA,NA,NA,"",NA,NA,NA,NA,NA,NA,NA,NA,NA,2025-11-19 02:03:22
"11299.69999999553","https://psyc-201.github.io/xiang2023/exp/index1.html?PROLIFIC_PID=REDACTED&STUDY_ID=69168b21477cff9ada6cb980&SESSION_ID=691d1deb9dc6f6d5d7681047","survey-html-form",20,879266,"0.0-326.0","j+yQOpoVnrLFc46eKhMiQur5sMOuPmd35dPNszpf82GUxmqxCwlOPnb1MGn2DlA+TuX3a3E5DYkKKKfmiGlEY8f/1qCBlu1C0Y1gjtNLjdRc9WLcSXKlfLkybWsjwiw9BD821SmhbW/60LnzUCuPPkkb1LC++Mz4XT6IYvuawDU8YjThLLM9zH4i5HbusT+tzAj6+XMnUtt6vSLjoWxP7iBQ1eP/xVK7ZCOHorHlfbClDNEGow1pTip/7chOP2ElsJowPesUhbV+HxOT2W3w4AuB2b41cDleQo94OxKyfNKTwdCeDyytqgyNAj0yAZxddU3FqmS/oNGH5cTjzUgSLg==","69168b21477cff9ada6cb980","691d1deb9dc6f6d5d7681047","index1","<span style='color:red'>Fail,<span style='color:red'>Fail,<span style='color:green'>Lift,<span style='color:green'>Lift,<span style='color:red'>Fail,<span style='color:red'>Fail,<span style='color:red'>Fail,<span style='color:red'>Fail,<span style='color:red'>Fail,<span style='color:green'>Lift,<span style='color:green'>Lift,<span style='color:red'>Fail","<span style='color:red'>Fail,<span style='color:red'>Fail,<span style='color:green'>Lift,<span style='color:green'>Lift,<span style='color:green'>Lift,<span style='color:green'>Lift,<span style='color:green'>Lift,<span style='color:red'>Fail,<span style='color:green'>Lift,<span style='color:green'>Lift,<span style='color:green'>Lift,<span style='color:red'>Fail","<span style='color:red'>Fail,<span style='color:green'>Lift,<span style='color:green'>Lift,<span style='color:red'>Fail,<span style='color:green'>Lift,<span style='color:green'>Lift","0,0,1,1,0,0,0,0,0,1,1,0","0,0,1,1,1,1,1,0,1,1,1,0","0,1,1,0,1,1",10,20,20,"","","","","{""box1"":""4"",""box2"":""4""}","",3,"round1_outcome",1,3,1,4,4,NA,NA,0,0,10,4,4,NA,NA,0,0,10,NA,NA,NA,NA,NA,NA,NA,NA,NA,NA,NA,NA,NA,NA,NA,NA,NA,NA,NA,NA,NA,NA,"",NA,NA,NA,NA,NA,NA,NA,NA,NA,2025-11-19 02:03:22
"12057.19999999553","https://psyc-201.github.io/xiang2023/exp/index1.html?PROLIFIC_PID=REDACTED&STUDY_ID=69168b21477cff9ada6cb980&SESSION_ID=691d1deb9dc6f6d5d7681047","survey-html-form",21,891324,"0.0-327.0","j+yQOpoVnrLFc46eKhMiQur5sMOuPmd35dPNszpf82GUxmqxCwlOPnb1MGn2DlA+TuX3a3E5DYkKKKfmiGlEY8f/1qCBlu1C0Y1gjtNLjdRc9WLcSXKlfLkybWsjwiw9BD821SmhbW/60LnzUCuPPkkb1LC++Mz4XT6IYvuawDU8YjThLLM9zH4i5HbusT+tzAj6+XMnUtt6vSLjoWxP7iBQ1eP/xVK7ZCOHorHlfbClDNEGow1pTip/7chOP2ElsJowPesUhbV+HxOT2W3w4AuB2b41cDleQo94OxKyfNKTwdCeDyytqgyNAj0yAZxddU3FqmS/oNGH5cTjzUgSLg==","69168b21477cff9ada6cb980","691d1deb9dc6f6d5d7681047","index1","<span style='color:red'>Fail,<span style='color:red'>Fail,<span style='color:green'>Lift,<span style='color:green'>Lift,<span style='color:red'>Fail,<span style='color:red'>Fail,<span style='color:red'>Fail,<span style='color:red'>Fail,<span style='color:red'>Fail,<span style='color:green'>Lift,<span style='color:green'>Lift,<span style='color:red'>Fail","<span style='color:red'>Fail,<span style='color:red'>Fail,<span style='color:green'>Lift,<span style='color:green'>Lift,<span style='color:green'>Lift,<span style='color:green'>Lift,<span style='color:green'>Lift,<span style='color:red'>Fail,<span style='color:green'>Lift,<span style='color:green'>Lift,<span style='color:green'>Lift,<span style='color:red'>Fail","<span style='color:red'>Fail,<span style='color:green'>Lift,<span style='color:green'>Lift,<span style='color:red'>Fail,<span style='color:green'>Lift,<span style='color:green'>Lift","0,0,1,1,0,0,0,0,0,1,1,0","0,0,1,1,1,1,1,0,1,1,1,0","0,1,1,0,1,1",10,20,20,"","","","","{""box1"":""50"",""box2"":""50""}","",3,"round2_ready",2,3,2,NA,NA,NA,NA,NA,NA,NA,NA,NA,NA,NA,NA,NA,NA,50,50,50,50,NA,NA,NA,NA,NA,NA,NA,NA,NA,NA,NA,NA,NA,NA,NA,NA,NA,NA,"",NA,NA,NA,NA,NA,NA,NA,NA,NA,2025-11-19 02:03:22
"13398.5","https://psyc-201.github.io/xiang2023/exp/index1.html?PROLIFIC_PID=REDACTED&STUDY_ID=69168b21477cff9ada6cb980&SESSION_ID=691d1deb9dc6f6d5d7681047","survey-html-form",22,904723,"0.0-328.0","j+yQOpoVnrLFc46eKhMiQur5sMOuPmd35dPNszpf82GUxmqxCwlOPnb1MGn2DlA+TuX3a3E5DYkKKKfmiGlEY8f/1qCBlu1C0Y1gjtNLjdRc9WLcSXKlfLkybWsjwiw9BD821SmhbW/60LnzUCuPPkkb1LC++Mz4XT6IYvuawDU8YjThLLM9zH4i5HbusT+tzAj6+XMnUtt6vSLjoWxP7iBQ1eP/xVK7ZCOHorHlfbClDNEGow1pTip/7chOP2ElsJowPesUhbV+HxOT2W3w4AuB2b41cDleQo94OxKyfNKTwdCeDyytqgyNAj0yAZxddU3FqmS/oNGH5cTjzUgSLg==","69168b21477cff9ada6cb980","691d1deb9dc6f6d5d7681047","index1","<span style='color:red'>Fail,<span style='color:red'>Fail,<span style='color:green'>Lift,<span style='color:green'>Lift,<span style='color:red'>Fail,<span style='color:red'>Fail,<span style='color:red'>Fail,<span style='color:red'>Fail,<span style='color:red'>Fail,<span style='color:green'>Lift,<span style='color:green'>Lift,<span style='color:red'>Fail","<span style='color:red'>Fail,<span style='color:red'>Fail,<span style='color:green'>Lift,<span style='color:green'>Lift,<span style='color:green'>Lift,<span style='color:green'>Lift,<span style='color:green'>Lift,<span style='color:red'>Fail,<span style='color:green'>Lift,<span style='color:green'>Lift,<span style='color:green'>Lift,<span style='color:red'>Fail","<span style='color:red'>Fail,<span style='color:green'>Lift,<span style='color:green'>Lift,<span style='color:red'>Fail,<span style='color:green'>Lift,<span style='color:green'>Lift","0,0,1,1,0,0,0,0,0,1,1,0","0,0,1,1,1,1,1,0,1,1,1,0","0,1,1,0,1,1",10,20,20,"","","","","{""box1"":""5"",""box2"":""4"",""box3"":""90""}","",3,"round2_outcome",3,3,2,5,4,90,NA,1,0,20,NA,NA,NA,NA,NA,NA,NA,NA,NA,NA,NA,5,4,90,NA,1,0,20,NA,NA,NA,NA,NA,NA,NA,NA,NA,NA,NA,"",NA,NA,NA,NA,NA,NA,NA,NA,NA,2025-11-19 02:03:22
"18752.29999999702","https://psyc-201.github.io/xiang2023/exp/index1.html?PROLIFIC_PID=REDACTED&STUDY_ID=69168b21477cff9ada6cb980&SESSION_ID=691d1deb9dc6f6d5d7681047","survey-html-form",23,923477,"0.0-329.0","j+yQOpoVnrLFc46eKhMiQur5sMOuPmd35dPNszpf82GUxmqxCwlOPnb1MGn2DlA+TuX3a3E5DYkKKKfmiGlEY8f/1qCBlu1C0Y1gjtNLjdRc9WLcSXKlfLkybWsjwiw9BD821SmhbW/60LnzUCuPPkkb1LC++Mz4XT6IYvuawDU8YjThLLM9zH4i5HbusT+tzAj6+XMnUtt6vSLjoWxP7iBQ1eP/xVK7ZCOHorHlfbClDNEGow1pTip/7chOP2ElsJowPesUhbV+HxOT2W3w4AuB2b41cDleQo94OxKyfNKTwdCeDyytqgyNAj0yAZxddU3FqmS/oNGH5cTjzUgSLg==","69168b21477cff9ada6cb980","691d1deb9dc6f6d5d7681047","index1","<span style='color:red'>Fail,<span style='color:red'>Fail,<span style='color:green'>Lift,<span style='color:green'>Lift,<span style='color:red'>Fail,<span style='color:red'>Fail,<span style='color:red'>Fail,<span style='color:red'>Fail,<span style='color:red'>Fail,<span style='color:green'>Lift,<span style='color:green'>Lift,<span style='color:red'>Fail","<span style='color:red'>Fail,<span style='color:red'>Fail,<span style='color:green'>Lift,<span style='color:green'>Lift,<span style='color:green'>Lift,<span style='color:green'>Lift,<span style='color:green'>Lift,<span style='color:red'>Fail,<span style='color:green'>Lift,<span style='color:green'>Lift,<span style='color:green'>Lift,<span style='color:red'>Fail","<span style='color:red'>Fail,<span style='color:green'>Lift,<span style='color:green'>Lift,<span style='color:red'>Fail,<span style='color:green'>Lift,<span style='color:green'>Lift","0,0,1,1,0,0,0,0,0,1,1,0","0,0,1,1,1,1,1,0,1,1,1,0","0,1,1,0,1,1",10,20,20,"","","","","{""box1"":""90""}","",3,"round3_ready",4,3,3,NA,NA,NA,NA,NA,NA,NA,NA,NA,NA,NA,NA,NA,NA,90,90,NA,NA,NA,NA,NA,NA,NA,NA,NA,90,90,NA,NA,NA,NA,NA,NA,NA,NA,NA,"",NA,NA,NA,NA,NA,NA,NA,NA,NA,2025-11-19 02:03:22
"15031","https://psyc-201.github.io/xiang2023/exp/index1.html?PROLIFIC_PID=REDACTED&STUDY_ID=69168b21477cff9ada6cb980&SESSION_ID=691d1deb9dc6f6d5d7681047","survey-html-form",24,938509,"0.0-331.0-0.0","j+yQOpoVnrLFc46eKhMiQur5sMOuPmd35dPNszpf82GUxmqxCwlOPnb1MGn2DlA+TuX3a3E5DYkKKKfmiGlEY8f/1qCBlu1C0Y1gjtNLjdRc9WLcSXKlfLkybWsjwiw9BD821SmhbW/60LnzUCuPPkkb1LC++Mz4XT6IYvuawDU8YjThLLM9zH4i5HbusT+tzAj6+XMnUtt6vSLjoWxP7iBQ1eP/xVK7ZCOHorHlfbClDNEGow1pTip/7chOP2ElsJowPesUhbV+HxOT2W3w4AuB2b41cDleQo94OxKyfNKTwdCeDyytqgyNAj0yAZxddU3FqmS/oNGH5cTjzUgSLg==","69168b21477cff9ada6cb980","691d1deb9dc6f6d5d7681047","index1","<span style='color:red'>Fail,<span style='color:red'>Fail,<span style='color:green'>Lift,<span style='color:green'>Lift,<span style='color:red'>Fail,<span style='color:red'>Fail,<span style='color:red'>Fail,<span style='color:red'>Fail,<span style='color:red'>Fail,<span style='color:green'>Lift,<span style='color:green'>Lift,<span style='color:red'>Fail","<span style='color:red'>Fail,<span style='color:red'>Fail,<span style='color:green'>Lift,<span style='color:green'>Lift,<span style='color:green'>Lift,<span style='color:green'>Lift,<span style='color:green'>Lift,<span style='color:red'>Fail,<span style='color:green'>Lift,<span style='color:green'>Lift,<span style='color:green'>Lift,<span style='color:red'>Fail","<span style='color:red'>Fail,<span style='color:green'>Lift,<span style='color:green'>Lift,<span style='color:red'>Fail,<span style='color:green'>Lift,<span style='color:green'>Lift","0,0,1,1,0,0,0,0,0,1,1,0","0,0,1,1,1,1,1,0,1,1,1,0","0,1,1,0,1,1",10,20,20,"","","","","{""box1"":""5"",""box2"":""4"",""box3"":""999"",""box4"":""999""}","",4,"round3_fail",5,3,3,5,4,NA,NA,0,0,20,NA,NA,NA,NA,NA,NA,NA,NA,NA,NA,NA,NA,NA,NA,NA,NA,NA,NA,NA,NA,1,1,5,4,0,0,20,NA,NA,"",NA,NA,NA,NA,NA,NA,NA,NA,NA,2025-11-19 02:03:22
"null","https://psyc-201.github.io/xiang2023/exp/index1.html?PROLIFIC_PID=REDACTED&STUDY_ID=69168b21477cff9ada6cb980&SESSION_ID=691d1deb9dc6f6d5d7681047","html-keyboard-response",25,941518,"0.0-334.0","j+yQOpoVnrLFc46eKhMiQur5sMOuPmd35dPNszpf82GUxmqxCwlOPnb1MGn2DlA+TuX3a3E5DYkKKKfmiGlEY8f/1qCBlu1C0Y1gjtNLjdRc9WLcSXKlfLkybWsjwiw9BD821SmhbW/60LnzUCuPPkkb1LC++Mz4XT6IYvuawDU8YjThLLM9zH4i5HbusT+tzAj6+XMnUtt6vSLjoWxP7iBQ1eP/xVK7ZCOHorHlfbClDNEGow1pTip/7chOP2ElsJowPesUhbV+HxOT2W3w4AuB2b41cDleQo94OxKyfNKTwdCeDyytqgyNAj0yAZxddU3FqmS/oNGH5cTjzUgSLg==","69168b21477cff9ada6cb980","691d1deb9dc6f6d5d7681047","index1","<span style='color:red'>Fail,<span style='color:red'>Fail,<span style='color:green'>Lift,<span style='color:green'>Lift,<span style='color:red'>Fail,<span style='color:red'>Fail,<span style='color:red'>Fail,<span style='color:red'>Fail,<span style='color:red'>Fail,<span style='color:green'>Lift,<span style='color:green'>Lift,<span style='color:red'>Fail","<span style='color:red'>Fail,<span style='color:red'>Fail,<span style='color:green'>Lift,<span style='color:green'>Lift,<span style='color:green'>Lift,<span style='color:green'>Lift,<span style='color:green'>Lift,<span style='color:red'>Fail,<span style='color:green'>Lift,<span style='color:green'>Lift,<span style='color:green'>Lift,<span style='color:red'>Fail","<span style='color:red'>Fail,<span style='color:green'>Lift,<span style='color:green'>Lift,<span style='color:red'>Fail,<span style='color:green'>Lift,<span style='color:green'>Lift","0,0,1,1,0,0,0,0,0,1,1,0","0,0,1,1,1,1,1,0,1,1,1,0","0,1,1,0,1,1",10,20,20,"","","<p style='font-size:30px'><b> New Contest! </b></p>","null","","",4,"",NA,NA,NA,NA,NA,NA,NA,NA,NA,NA,NA,NA,NA,NA,NA,NA,NA,NA,NA,NA,NA,NA,NA,NA,NA,NA,NA,NA,NA,NA,NA,NA,NA,NA,NA,NA,NA,NA,NA,"",NA,NA,NA,NA,NA,NA,NA,NA,NA,2025-11-19 02:03:22
"47070.10000000149","https://psyc-201.github.io/xiang2023/exp/index1.html?PROLIFIC_PID=REDACTED&STUDY_ID=69168b21477cff9ada6cb980&SESSION_ID=691d1deb9dc6f6d5d7681047","survey-html-form",26,988589,"0.0-335.0","j+yQOpoVnrLFc46eKhMiQur5sMOuPmd35dPNszpf82GUxmqxCwlOPnb1MGn2DlA+TuX3a3E5DYkKKKfmiGlEY8f/1qCBlu1C0Y1gjtNLjdRc9WLcSXKlfLkybWsjwiw9BD821SmhbW/60LnzUCuPPkkb1LC++Mz4XT6IYvuawDU8YjThLLM9zH4i5HbusT+tzAj6+XMnUtt6vSLjoWxP7iBQ1eP/xVK7ZCOHorHlfbClDNEGow1pTip/7chOP2ElsJowPesUhbV+HxOT2W3w4AuB2b41cDleQo94OxKyfNKTwdCeDyytqgyNAj0yAZxddU3FqmS/oNGH5cTjzUgSLg==","69168b21477cff9ada6cb980","691d1deb9dc6f6d5d7681047","index1","<span style='color:red'>Fail,<span style='color:red'>Fail,<span style='color:green'>Lift,<span style='color:green'>Lift,<span style='color:red'>Fail,<span style='color:red'>Fail,<span style='color:red'>Fail,<span style='color:red'>Fail,<span style='color:red'>Fail,<span style='color:green'>Lift,<span style='color:green'>Lift,<span style='color:red'>Fail","<span style='color:red'>Fail,<span style='color:red'>Fail,<span style='color:green'>Lift,<span style='color:green'>Lift,<span style='color:green'>Lift,<span style='color:green'>Lift,<span style='color:green'>Lift,<span style='color:red'>Fail,<span style='color:green'>Lift,<span style='color:green'>Lift,<span style='color:green'>Lift,<span style='color:red'>Fail","<span style='color:red'>Fail,<span style='color:green'>Lift,<span style='color:green'>Lift,<span style='color:red'>Fail,<span style='color:green'>Lift,<span style='color:green'>Lift","0,0,1,1,0,0,0,0,0,1,1,0","0,0,1,1,1,1,1,0,1,1,1,0","0,1,1,0,1,1",10,20,20,"","","","","{""box1"":""4"",""box2"":""4""}","",4,"round1_outcome",1,4,1,4,4,NA,NA,0,0,10,4,4,NA,NA,0,0,10,NA,NA,NA,NA,NA,NA,NA,NA,NA,NA,NA,NA,NA,NA,NA,NA,NA,NA,NA,NA,NA,NA,"",NA,NA,NA,NA,NA,NA,NA,NA,NA,2025-11-19 02:03:22
"12294.29999999702","https://psyc-201.github.io/xiang2023/exp/index1.html?PROLIFIC_PID=REDACTED&STUDY_ID=69168b21477cff9ada6cb980&SESSION_ID=691d1deb9dc6f6d5d7681047","survey-html-form",27,1000884,"0.0-336.0","j+yQOpoVnrLFc46eKhMiQur5sMOuPmd35dPNszpf82GUxmqxCwlOPnb1MGn2DlA+TuX3a3E5DYkKKKfmiGlEY8f/1qCBlu1C0Y1gjtNLjdRc9WLcSXKlfLkybWsjwiw9BD821SmhbW/60LnzUCuPPkkb1LC++Mz4XT6IYvuawDU8YjThLLM9zH4i5HbusT+tzAj6+XMnUtt6vSLjoWxP7iBQ1eP/xVK7ZCOHorHlfbClDNEGow1pTip/7chOP2ElsJowPesUhbV+HxOT2W3w4AuB2b41cDleQo94OxKyfNKTwdCeDyytqgyNAj0yAZxddU3FqmS/oNGH5cTjzUgSLg==","69168b21477cff9ada6cb980","691d1deb9dc6f6d5d7681047","index1","<span style='color:red'>Fail,<span style='color:red'>Fail,<span style='color:green'>Lift,<span style='color:green'>Lift,<span style='color:red'>Fail,<span style='color:red'>Fail,<span style='color:red'>Fail,<span style='color:red'>Fail,<span style='color:red'>Fail,<span style='color:green'>Lift,<span style='color:green'>Lift,<span style='color:red'>Fail","<span style='color:red'>Fail,<span style='color:red'>Fail,<span style='color:green'>Lift,<span style='color:green'>Lift,<span style='color:green'>Lift,<span style='color:green'>Lift,<span style='color:green'>Lift,<span style='color:red'>Fail,<span style='color:green'>Lift,<span style='color:green'>Lift,<span style='color:green'>Lift,<span style='color:red'>Fail","<span style='color:red'>Fail,<span style='color:green'>Lift,<span style='color:green'>Lift,<span style='color:red'>Fail,<span style='color:green'>Lift,<span style='color:green'>Lift","0,0,1,1,0,0,0,0,0,1,1,0","0,0,1,1,1,1,1,0,1,1,1,0","0,1,1,0,1,1",10,20,20,"","","","","{""box1"":""50"",""box2"":""50""}","",4,"round2_ready",2,4,2,NA,NA,NA,NA,NA,NA,NA,NA,NA,NA,NA,NA,NA,NA,50,50,50,50,NA,NA,NA,NA,NA,NA,NA,NA,NA,NA,NA,NA,NA,NA,NA,NA,NA,NA,"",NA,NA,NA,NA,NA,NA,NA,NA,NA,2025-11-19 02:03:22
"14977.69999999553","https://psyc-201.github.io/xiang2023/exp/index1.html?PROLIFIC_PID=REDACTED&STUDY_ID=69168b21477cff9ada6cb980&SESSION_ID=691d1deb9dc6f6d5d7681047","survey-html-form",28,1015863,"0.0-337.0","j+yQOpoVnrLFc46eKhMiQur5sMOuPmd35dPNszpf82GUxmqxCwlOPnb1MGn2DlA+TuX3a3E5DYkKKKfmiGlEY8f/1qCBlu1C0Y1gjtNLjdRc9WLcSXKlfLkybWsjwiw9BD821SmhbW/60LnzUCuPPkkb1LC++Mz4XT6IYvuawDU8YjThLLM9zH4i5HbusT+tzAj6+XMnUtt6vSLjoWxP7iBQ1eP/xVK7ZCOHorHlfbClDNEGow1pTip/7chOP2ElsJowPesUhbV+HxOT2W3w4AuB2b41cDleQo94OxKyfNKTwdCeDyytqgyNAj0yAZxddU3FqmS/oNGH5cTjzUgSLg==","69168b21477cff9ada6cb980","691d1deb9dc6f6d5d7681047","index1","<span style='color:red'>Fail,<span style='color:red'>Fail,<span style='color:green'>Lift,<span style='color:green'>Lift,<span style='color:red'>Fail,<span style='color:red'>Fail,<span style='color:red'>Fail,<span style='color:red'>Fail,<span style='color:red'>Fail,<span style='color:green'>Lift,<span style='color:green'>Lift,<span style='color:red'>Fail","<span style='color:red'>Fail,<span style='color:red'>Fail,<span style='color:green'>Lift,<span style='color:green'>Lift,<span style='color:green'>Lift,<span style='color:green'>Lift,<span style='color:green'>Lift,<span style='color:red'>Fail,<span style='color:green'>Lift,<span style='color:green'>Lift,<span style='color:green'>Lift,<span style='color:red'>Fail","<span style='color:red'>Fail,<span style='color:green'>Lift,<span style='color:green'>Lift,<span style='color:red'>Fail,<span style='color:green'>Lift,<span style='color:green'>Lift","0,0,1,1,0,0,0,0,0,1,1,0","0,0,1,1,1,1,1,0,1,1,1,0","0,1,1,0,1,1",10,20,20,"","","","","{""box1"":""5"",""box2"":""5"",""box3"":""90"",""box4"":""90""}","",4,"round2_outcome",3,4,2,5,5,90,90,1,1,20,NA,NA,NA,NA,NA,NA,NA,NA,NA,NA,NA,5,5,90,90,1,1,20,NA,NA,NA,NA,NA,NA,NA,NA,NA,NA,NA,"",NA,NA,NA,NA,NA,NA,NA,NA,NA,2025-11-19 02:03:22
"8247.79999999702","https://psyc-201.github.io/xiang2023/exp/index1.html?PROLIFIC_PID=REDACTED&STUDY_ID=69168b21477cff9ada6cb980&SESSION_ID=691d1deb9dc6f6d5d7681047","survey-html-form",29,1024112,"0.0-338.0","j+yQOpoVnrLFc46eKhMiQur5sMOuPmd35dPNszpf82GUxmqxCwlOPnb1MGn2DlA+TuX3a3E5DYkKKKfmiGlEY8f/1qCBlu1C0Y1gjtNLjdRc9WLcSXKlfLkybWsjwiw9BD821SmhbW/60LnzUCuPPkkb1LC++Mz4XT6IYvuawDU8YjThLLM9zH4i5HbusT+tzAj6+XMnUtt6vSLjoWxP7iBQ1eP/xVK7ZCOHorHlfbClDNEGow1pTip/7chOP2ElsJowPesUhbV+HxOT2W3w4AuB2b41cDleQo94OxKyfNKTwdCeDyytqgyNAj0yAZxddU3FqmS/oNGH5cTjzUgSLg==","69168b21477cff9ada6cb980","691d1deb9dc6f6d5d7681047","index1","<span style='color:red'>Fail,<span style='color:red'>Fail,<span style='color:green'>Lift,<span style='color:green'>Lift,<span style='color:red'>Fail,<span style='color:red'>Fail,<span style='color:red'>Fail,<span style='color:red'>Fail,<span style='color:red'>Fail,<span style='color:green'>Lift,<span style='color:green'>Lift,<span style='color:red'>Fail","<span style='color:red'>Fail,<span style='color:red'>Fail,<span style='color:green'>Lift,<span style='color:green'>Lift,<span style='color:green'>Lift,<span style='color:green'>Lift,<span style='color:green'>Lift,<span style='color:red'>Fail,<span style='color:green'>Lift,<span style='color:green'>Lift,<span style='color:green'>Lift,<span style='color:red'>Fail","<span style='color:red'>Fail,<span style='color:green'>Lift,<span style='color:green'>Lift,<span style='color:red'>Fail,<span style='color:green'>Lift,<span style='color:green'>Lift","0,0,1,1,0,0,0,0,0,1,1,0","0,0,1,1,1,1,1,0,1,1,1,0","0,1,1,0,1,1",10,20,20,"","","","","{""box1"":""95""}","",4,"round3_ready",4,4,3,NA,NA,NA,NA,NA,NA,NA,NA,NA,NA,NA,NA,NA,NA,95,95,NA,NA,NA,NA,NA,NA,NA,NA,NA,95,95,NA,NA,NA,NA,NA,NA,NA,NA,NA,"",NA,NA,NA,NA,NA,NA,NA,NA,NA,2025-11-19 02:03:22
"15986.80000000447","https://psyc-201.github.io/xiang2023/exp/index1.html?PROLIFIC_PID=REDACTED&STUDY_ID=69168b21477cff9ada6cb980&SESSION_ID=691d1deb9dc6f6d5d7681047","survey-html-form",30,1040100,"0.0-339.0-0.0","j+yQOpoVnrLFc46eKhMiQur5sMOuPmd35dPNszpf82GUxmqxCwlOPnb1MGn2DlA+TuX3a3E5DYkKKKfmiGlEY8f/1qCBlu1C0Y1gjtNLjdRc9WLcSXKlfLkybWsjwiw9BD821SmhbW/60LnzUCuPPkkb1LC++Mz4XT6IYvuawDU8YjThLLM9zH4i5HbusT+tzAj6+XMnUtt6vSLjoWxP7iBQ1eP/xVK7ZCOHorHlfbClDNEGow1pTip/7chOP2ElsJowPesUhbV+HxOT2W3w4AuB2b41cDleQo94OxKyfNKTwdCeDyytqgyNAj0yAZxddU3FqmS/oNGH5cTjzUgSLg==","69168b21477cff9ada6cb980","691d1deb9dc6f6d5d7681047","index1","<span style='color:red'>Fail,<span style='color:red'>Fail,<span style='color:green'>Lift,<span style='color:green'>Lift,<span style='color:red'>Fail,<span style='color:red'>Fail,<span style='color:red'>Fail,<span style='color:red'>Fail,<span style='color:red'>Fail,<span style='color:green'>Lift,<span style='color:green'>Lift,<span style='color:red'>Fail","<span style='color:red'>Fail,<span style='color:red'>Fail,<span style='color:green'>Lift,<span style='color:green'>Lift,<span style='color:green'>Lift,<span style='color:green'>Lift,<span style='color:green'>Lift,<span style='color:red'>Fail,<span style='color:green'>Lift,<span style='color:green'>Lift,<span style='color:green'>Lift,<span style='color:red'>Fail","<span style='color:red'>Fail,<span style='color:green'>Lift,<span style='color:green'>Lift,<span style='color:red'>Fail,<span style='color:green'>Lift,<span style='color:green'>Lift","0,0,1,1,0,0,0,0,0,1,1,0","0,0,1,1,1,1,1,0,1,1,1,0","0,1,1,0,1,1",10,20,20,"","","","","{""box1"":""5"",""box2"":""5"",""box3"":""70"",""box4"":""70""}","",5,"round3_lift",5,4,3,5,5,70,70,1,1,20,NA,NA,NA,NA,NA,NA,NA,NA,NA,NA,NA,NA,NA,NA,NA,NA,NA,NA,NA,NA,NA,NA,5,5,1,1,20,70,70,"",NA,NA,NA,NA,NA,NA,NA,NA,NA,2025-11-19 02:03:22
"null","https://psyc-201.github.io/xiang2023/exp/index1.html?PROLIFIC_PID=REDACTED&STUDY_ID=69168b21477cff9ada6cb980&SESSION_ID=691d1deb9dc6f6d5d7681047","html-keyboard-response",31,1043102,"0.0-343.0","j+yQOpoVnrLFc46eKhMiQur5sMOuPmd35dPNszpf82GUxmqxCwlOPnb1MGn2DlA+TuX3a3E5DYkKKKfmiGlEY8f/1qCBlu1C0Y1gjtNLjdRc9WLcSXKlfLkybWsjwiw9BD821SmhbW/60LnzUCuPPkkb1LC++Mz4XT6IYvuawDU8YjThLLM9zH4i5HbusT+tzAj6+XMnUtt6vSLjoWxP7iBQ1eP/xVK7ZCOHorHlfbClDNEGow1pTip/7chOP2ElsJowPesUhbV+HxOT2W3w4AuB2b41cDleQo94OxKyfNKTwdCeDyytqgyNAj0yAZxddU3FqmS/oNGH5cTjzUgSLg==","69168b21477cff9ada6cb980","691d1deb9dc6f6d5d7681047","index1","<span style='color:red'>Fail,<span style='color:red'>Fail,<span style='color:green'>Lift,<span style='color:green'>Lift,<span style='color:red'>Fail,<span style='color:red'>Fail,<span style='color:red'>Fail,<span style='color:red'>Fail,<span style='color:red'>Fail,<span style='color:green'>Lift,<span style='color:green'>Lift,<span style='color:red'>Fail","<span style='color:red'>Fail,<span style='color:red'>Fail,<span style='color:green'>Lift,<span style='color:green'>Lift,<span style='color:green'>Lift,<span style='color:green'>Lift,<span style='color:green'>Lift,<span style='color:red'>Fail,<span style='color:green'>Lift,<span style='color:green'>Lift,<span style='color:green'>Lift,<span style='color:red'>Fail","<span style='color:red'>Fail,<span style='color:green'>Lift,<span style='color:green'>Lift,<span style='color:red'>Fail,<span style='color:green'>Lift,<span style='color:green'>Lift","0,0,1,1,0,0,0,0,0,1,1,0","0,0,1,1,1,1,1,0,1,1,1,0","0,1,1,0,1,1",10,20,20,"","","<p style='font-size:30px'><b> New Contest! </b></p>","null","","",5,"",NA,NA,NA,NA,NA,NA,NA,NA,NA,NA,NA,NA,NA,NA,NA,NA,NA,NA,NA,NA,NA,NA,NA,NA,NA,NA,NA,NA,NA,NA,NA,NA,NA,NA,NA,NA,NA,NA,NA,"",NA,NA,NA,NA,NA,NA,NA,NA,NA,2025-11-19 02:03:22
"34996.80000000447","https://psyc-201.github.io/xiang2023/exp/index1.html?PROLIFIC_PID=REDACTED&STUDY_ID=69168b21477cff9ada6cb980&SESSION_ID=691d1deb9dc6f6d5d7681047","survey-html-form",32,1078100,"0.0-344.0","j+yQOpoVnrLFc46eKhMiQur5sMOuPmd35dPNszpf82GUxmqxCwlOPnb1MGn2DlA+TuX3a3E5DYkKKKfmiGlEY8f/1qCBlu1C0Y1gjtNLjdRc9WLcSXKlfLkybWsjwiw9BD821SmhbW/60LnzUCuPPkkb1LC++Mz4XT6IYvuawDU8YjThLLM9zH4i5HbusT+tzAj6+XMnUtt6vSLjoWxP7iBQ1eP/xVK7ZCOHorHlfbClDNEGow1pTip/7chOP2ElsJowPesUhbV+HxOT2W3w4AuB2b41cDleQo94OxKyfNKTwdCeDyytqgyNAj0yAZxddU3FqmS/oNGH5cTjzUgSLg==","69168b21477cff9ada6cb980","691d1deb9dc6f6d5d7681047","index1","<span style='color:red'>Fail,<span style='color:red'>Fail,<span style='color:green'>Lift,<span style='color:green'>Lift,<span style='color:red'>Fail,<span style='color:red'>Fail,<span style='color:red'>Fail,<span style='color:red'>Fail,<span style='color:red'>Fail,<span style='color:green'>Lift,<span style='color:green'>Lift,<span style='color:red'>Fail","<span style='color:red'>Fail,<span style='color:red'>Fail,<span style='color:green'>Lift,<span style='color:green'>Lift,<span style='color:green'>Lift,<span style='color:green'>Lift,<span style='color:green'>Lift,<span style='color:red'>Fail,<span style='color:green'>Lift,<span style='color:green'>Lift,<span style='color:green'>Lift,<span style='color:red'>Fail","<span style='color:red'>Fail,<span style='color:green'>Lift,<span style='color:green'>Lift,<span style='color:red'>Fail,<span style='color:green'>Lift,<span style='color:green'>Lift","0,0,1,1,0,0,0,0,0,1,1,0","0,0,1,1,1,1,1,0,1,1,1,0","0,1,1,0,1,1",10,20,20,"","","","","{""box1"":""3"",""box2"":""8"",""box4"":""85""}","",5,"round1_outcome",1,5,1,3,8,NA,85,0,1,10,3,8,NA,85,0,1,10,NA,NA,NA,NA,NA,NA,NA,NA,NA,NA,NA,NA,NA,NA,NA,NA,NA,NA,NA,NA,NA,NA,"",NA,NA,NA,NA,NA,NA,NA,NA,NA,2025-11-19 02:03:22
"11806.79999999702","https://psyc-201.github.io/xiang2023/exp/index1.html?PROLIFIC_PID=REDACTED&STUDY_ID=69168b21477cff9ada6cb980&SESSION_ID=691d1deb9dc6f6d5d7681047","survey-html-form",33,1089907,"0.0-345.0","j+yQOpoVnrLFc46eKhMiQur5sMOuPmd35dPNszpf82GUxmqxCwlOPnb1MGn2DlA+TuX3a3E5DYkKKKfmiGlEY8f/1qCBlu1C0Y1gjtNLjdRc9WLcSXKlfLkybWsjwiw9BD821SmhbW/60LnzUCuPPkkb1LC++Mz4XT6IYvuawDU8YjThLLM9zH4i5HbusT+tzAj6+XMnUtt6vSLjoWxP7iBQ1eP/xVK7ZCOHorHlfbClDNEGow1pTip/7chOP2ElsJowPesUhbV+HxOT2W3w4AuB2b41cDleQo94OxKyfNKTwdCeDyytqgyNAj0yAZxddU3FqmS/oNGH5cTjzUgSLg==","69168b21477cff9ada6cb980","691d1deb9dc6f6d5d7681047","index1","<span style='color:red'>Fail,<span style='color:red'>Fail,<span style='color:green'>Lift,<span style='color:green'>Lift,<span style='color:red'>Fail,<span style='color:red'>Fail,<span style='color:red'>Fail,<span style='color:red'>Fail,<span style='color:red'>Fail,<span style='color:green'>Lift,<span style='color:green'>Lift,<span style='color:red'>Fail","<span style='color:red'>Fail,<span style='color:red'>Fail,<span style='color:green'>Lift,<span style='color:green'>Lift,<span style='color:green'>Lift,<span style='color:green'>Lift,<span style='color:green'>Lift,<span style='color:red'>Fail,<span style='color:green'>Lift,<span style='color:green'>Lift,<span style='color:green'>Lift,<span style='color:red'>Fail","<span style='color:red'>Fail,<span style='color:green'>Lift,<span style='color:green'>Lift,<span style='color:red'>Fail,<span style='color:green'>Lift,<span style='color:green'>Lift","0,0,1,1,0,0,0,0,0,1,1,0","0,0,1,1,1,1,1,0,1,1,1,0","0,1,1,0,1,1",10,20,20,"","","","","{""box1"":""25"",""box2"":""90""}","",5,"round2_ready",2,5,2,NA,NA,NA,NA,NA,NA,NA,NA,NA,NA,NA,NA,NA,NA,25,90,25,90,NA,NA,NA,NA,NA,NA,NA,NA,NA,NA,NA,NA,NA,NA,NA,NA,NA,NA,"",NA,NA,NA,NA,NA,NA,NA,NA,NA,2025-11-19 02:03:22
"13302.89999999851","https://psyc-201.github.io/xiang2023/exp/index1.html?PROLIFIC_PID=REDACTED&STUDY_ID=69168b21477cff9ada6cb980&SESSION_ID=691d1deb9dc6f6d5d7681047","survey-html-form",34,1103211,"0.0-346.0","j+yQOpoVnrLFc46eKhMiQur5sMOuPmd35dPNszpf82GUxmqxCwlOPnb1MGn2DlA+TuX3a3E5DYkKKKfmiGlEY8f/1qCBlu1C0Y1gjtNLjdRc9WLcSXKlfLkybWsjwiw9BD821SmhbW/60LnzUCuPPkkb1LC++Mz4XT6IYvuawDU8YjThLLM9zH4i5HbusT+tzAj6+XMnUtt6vSLjoWxP7iBQ1eP/xVK7ZCOHorHlfbClDNEGow1pTip/7chOP2ElsJowPesUhbV+HxOT2W3w4AuB2b41cDleQo94OxKyfNKTwdCeDyytqgyNAj0yAZxddU3FqmS/oNGH5cTjzUgSLg==","69168b21477cff9ada6cb980","691d1deb9dc6f6d5d7681047","index1","<span style='color:red'>Fail,<span style='color:red'>Fail,<span style='color:green'>Lift,<span style='color:green'>Lift,<span style='color:red'>Fail,<span style='color:red'>Fail,<span style='color:red'>Fail,<span style='color:red'>Fail,<span style='color:red'>Fail,<span style='color:green'>Lift,<span style='color:green'>Lift,<span style='color:red'>Fail","<span style='color:red'>Fail,<span style='color:red'>Fail,<span style='color:green'>Lift,<span style='color:green'>Lift,<span style='color:green'>Lift,<span style='color:green'>Lift,<span style='color:green'>Lift,<span style='color:red'>Fail,<span style='color:green'>Lift,<span style='color:green'>Lift,<span style='color:green'>Lift,<span style='color:red'>Fail","<span style='color:red'>Fail,<span style='color:green'>Lift,<span style='color:green'>Lift,<span style='color:red'>Fail,<span style='color:green'>Lift,<span style='color:green'>Lift","0,0,1,1,0,0,0,0,0,1,1,0","0,0,1,1,1,1,1,0,1,1,1,0","0,1,1,0,1,1",10,20,20,"","","","","{""box1"":""5"",""box2"":""8"",""box3"":""90"",""box4"":""80""}","",5,"round2_outcome",3,5,2,5,8,90,80,1,1,20,NA,NA,NA,NA,NA,NA,NA,NA,NA,NA,NA,5,8,90,80,1,1,20,NA,NA,NA,NA,NA,NA,NA,NA,NA,NA,NA,"",NA,NA,NA,NA,NA,NA,NA,NA,NA,2025-11-19 02:03:22
"10999.70000000298","https://psyc-201.github.io/xiang2023/exp/index1.html?PROLIFIC_PID=REDACTED&STUDY_ID=69168b21477cff9ada6cb980&SESSION_ID=691d1deb9dc6f6d5d7681047","survey-html-form",35,1114212,"0.0-347.0","j+yQOpoVnrLFc46eKhMiQur5sMOuPmd35dPNszpf82GUxmqxCwlOPnb1MGn2DlA+TuX3a3E5DYkKKKfmiGlEY8f/1qCBlu1C0Y1gjtNLjdRc9WLcSXKlfLkybWsjwiw9BD821SmhbW/60LnzUCuPPkkb1LC++Mz4XT6IYvuawDU8YjThLLM9zH4i5HbusT+tzAj6+XMnUtt6vSLjoWxP7iBQ1eP/xVK7ZCOHorHlfbClDNEGow1pTip/7chOP2ElsJowPesUhbV+HxOT2W3w4AuB2b41cDleQo94OxKyfNKTwdCeDyytqgyNAj0yAZxddU3FqmS/oNGH5cTjzUgSLg==","69168b21477cff9ada6cb980","691d1deb9dc6f6d5d7681047","index1","<span style='color:red'>Fail,<span style='color:red'>Fail,<span style='color:green'>Lift,<span style='color:green'>Lift,<span style='color:red'>Fail,<span style='color:red'>Fail,<span style='color:red'>Fail,<span style='color:red'>Fail,<span style='color:red'>Fail,<span style='color:green'>Lift,<span style='color:green'>Lift,<span style='color:red'>Fail","<span style='color:red'>Fail,<span style='color:red'>Fail,<span style='color:green'>Lift,<span style='color:green'>Lift,<span style='color:green'>Lift,<span style='color:green'>Lift,<span style='color:green'>Lift,<span style='color:red'>Fail,<span style='color:green'>Lift,<span style='color:green'>Lift,<span style='color:green'>Lift,<span style='color:red'>Fail","<span style='color:red'>Fail,<span style='color:green'>Lift,<span style='color:green'>Lift,<span style='color:red'>Fail,<span style='color:green'>Lift,<span style='color:green'>Lift","0,0,1,1,0,0,0,0,0,1,1,0","0,0,1,1,1,1,1,0,1,1,1,0","0,1,1,0,1,1",10,20,20,"","","","","{""box1"":""95""}","",5,"round3_ready",4,5,3,NA,NA,NA,NA,NA,NA,NA,NA,NA,NA,NA,NA,NA,NA,95,95,NA,NA,NA,NA,NA,NA,NA,NA,NA,95,95,NA,NA,NA,NA,NA,NA,NA,NA,NA,"",NA,NA,NA,NA,NA,NA,NA,NA,NA,2025-11-19 02:03:22
"12995.79999999702","https://psyc-201.github.io/xiang2023/exp/index1.html?PROLIFIC_PID=REDACTED&STUDY_ID=69168b21477cff9ada6cb980&SESSION_ID=691d1deb9dc6f6d5d7681047","survey-html-form",36,1127209,"0.0-348.0-0.0","j+yQOpoVnrLFc46eKhMiQur5sMOuPmd35dPNszpf82GUxmqxCwlOPnb1MGn2DlA+TuX3a3E5DYkKKKfmiGlEY8f/1qCBlu1C0Y1gjtNLjdRc9WLcSXKlfLkybWsjwiw9BD821SmhbW/60LnzUCuPPkkb1LC++Mz4XT6IYvuawDU8YjThLLM9zH4i5HbusT+tzAj6+XMnUtt6vSLjoWxP7iBQ1eP/xVK7ZCOHorHlfbClDNEGow1pTip/7chOP2ElsJowPesUhbV+HxOT2W3w4AuB2b41cDleQo94OxKyfNKTwdCeDyytqgyNAj0yAZxddU3FqmS/oNGH5cTjzUgSLg==","69168b21477cff9ada6cb980","691d1deb9dc6f6d5d7681047","index1","<span style='color:red'>Fail,<span style='color:red'>Fail,<span style='color:green'>Lift,<span style='color:green'>Lift,<span style='color:red'>Fail,<span style='color:red'>Fail,<span style='color:red'>Fail,<span style='color:red'>Fail,<span style='color:red'>Fail,<span style='color:green'>Lift,<span style='color:green'>Lift,<span style='color:red'>Fail","<span style='color:red'>Fail,<span style='color:red'>Fail,<span style='color:green'>Lift,<span style='color:green'>Lift,<span style='color:green'>Lift,<span style='color:green'>Lift,<span style='color:green'>Lift,<span style='color:red'>Fail,<span style='color:green'>Lift,<span style='color:green'>Lift,<span style='color:green'>Lift,<span style='color:red'>Fail","<span style='color:red'>Fail,<span style='color:green'>Lift,<span style='color:green'>Lift,<span style='color:red'>Fail,<span style='color:green'>Lift,<span style='color:green'>Lift","0,0,1,1,0,0,0,0,0,1,1,0","0,0,1,1,1,1,1,0,1,1,1,0","0,1,1,0,1,1",10,20,20,"","","","","{""box1"":""6"",""box2"":""8"",""box3"":""90"",""box4"":""80""}","",6,"round3_lift",5,5,3,6,8,90,80,1,1,20,NA,NA,NA,NA,NA,NA,NA,NA,NA,NA,NA,NA,NA,NA,NA,NA,NA,NA,NA,NA,NA,NA,6,8,1,1,20,90,80,"",NA,NA,NA,NA,NA,NA,NA,NA,NA,2025-11-19 02:03:22
"null","https://psyc-201.github.io/xiang2023/exp/index1.html?PROLIFIC_PID=REDACTED&STUDY_ID=69168b21477cff9ada6cb980&SESSION_ID=691d1deb9dc6f6d5d7681047","html-keyboard-response",37,1130220,"0.0-352.0","j+yQOpoVnrLFc46eKhMiQur5sMOuPmd35dPNszpf82GUxmqxCwlOPnb1MGn2DlA+TuX3a3E5DYkKKKfmiGlEY8f/1qCBlu1C0Y1gjtNLjdRc9WLcSXKlfLkybWsjwiw9BD821SmhbW/60LnzUCuPPkkb1LC++Mz4XT6IYvuawDU8YjThLLM9zH4i5HbusT+tzAj6+XMnUtt6vSLjoWxP7iBQ1eP/xVK7ZCOHorHlfbClDNEGow1pTip/7chOP2ElsJowPesUhbV+HxOT2W3w4AuB2b41cDleQo94OxKyfNKTwdCeDyytqgyNAj0yAZxddU3FqmS/oNGH5cTjzUgSLg==","69168b21477cff9ada6cb980","691d1deb9dc6f6d5d7681047","index1","<span style='color:red'>Fail,<span style='color:red'>Fail,<span style='color:green'>Lift,<span style='color:green'>Lift,<span style='color:red'>Fail,<span style='color:red'>Fail,<span style='color:red'>Fail,<span style='color:red'>Fail,<span style='color:red'>Fail,<span style='color:green'>Lift,<span style='color:green'>Lift,<span style='color:red'>Fail","<span style='color:red'>Fail,<span style='color:red'>Fail,<span style='color:green'>Lift,<span style='color:green'>Lift,<span style='color:green'>Lift,<span style='color:green'>Lift,<span style='color:green'>Lift,<span style='color:red'>Fail,<span style='color:green'>Lift,<span style='color:green'>Lift,<span style='color:green'>Lift,<span style='color:red'>Fail","<span style='color:red'>Fail,<span style='color:green'>Lift,<span style='color:green'>Lift,<span style='color:red'>Fail,<span style='color:green'>Lift,<span style='color:green'>Lift","0,0,1,1,0,0,0,0,0,1,1,0","0,0,1,1,1,1,1,0,1,1,1,0","0,1,1,0,1,1",10,20,20,"","","<p style='font-size:30px'><b> New Contest! </b></p>","null","","",6,"",NA,NA,NA,NA,NA,NA,NA,NA,NA,NA,NA,NA,NA,NA,NA,NA,NA,NA,NA,NA,NA,NA,NA,NA,NA,NA,NA,NA,NA,NA,NA,NA,NA,NA,NA,NA,NA,NA,NA,"",NA,NA,NA,NA,NA,NA,NA,NA,NA,2025-11-19 02:03:22
"38471.39999999851","https://psyc-201.github.io/xiang2023/exp/index1.html?PROLIFIC_PID=REDACTED&STUDY_ID=69168b21477cff9ada6cb980&SESSION_ID=691d1deb9dc6f6d5d7681047","survey-html-form",38,1168692,"0.0-353.0","j+yQOpoVnrLFc46eKhMiQur5sMOuPmd35dPNszpf82GUxmqxCwlOPnb1MGn2DlA+TuX3a3E5DYkKKKfmiGlEY8f/1qCBlu1C0Y1gjtNLjdRc9WLcSXKlfLkybWsjwiw9BD821SmhbW/60LnzUCuPPkkb1LC++Mz4XT6IYvuawDU8YjThLLM9zH4i5HbusT+tzAj6+XMnUtt6vSLjoWxP7iBQ1eP/xVK7ZCOHorHlfbClDNEGow1pTip/7chOP2ElsJowPesUhbV+HxOT2W3w4AuB2b41cDleQo94OxKyfNKTwdCeDyytqgyNAj0yAZxddU3FqmS/oNGH5cTjzUgSLg==","69168b21477cff9ada6cb980","691d1deb9dc6f6d5d7681047","index1","<span style='color:red'>Fail,<span style='color:red'>Fail,<span style='color:green'>Lift,<span style='color:green'>Lift,<span style='color:red'>Fail,<span style='color:red'>Fail,<span style='color:red'>Fail,<span style='color:red'>Fail,<span style='color:red'>Fail,<span style='color:green'>Lift,<span style='color:green'>Lift,<span style='color:red'>Fail","<span style='color:red'>Fail,<span style='color:red'>Fail,<span style='color:green'>Lift,<span style='color:green'>Lift,<span style='color:green'>Lift,<span style='color:green'>Lift,<span style='color:green'>Lift,<span style='color:red'>Fail,<span style='color:green'>Lift,<span style='color:green'>Lift,<span style='color:green'>Lift,<span style='color:red'>Fail","<span style='color:red'>Fail,<span style='color:green'>Lift,<span style='color:green'>Lift,<span style='color:red'>Fail,<span style='color:green'>Lift,<span style='color:green'>Lift","0,0,1,1,0,0,0,0,0,1,1,0","0,0,1,1,1,1,1,0,1,1,1,0","0,1,1,0,1,1",10,20,20,"","","","","{""box1"":""7"",""box2"":""7"",""box3"":""80"",""box4"":""80""}","",6,"round1_outcome",1,6,1,7,7,80,80,1,1,10,7,7,80,80,1,1,10,NA,NA,NA,NA,NA,NA,NA,NA,NA,NA,NA,NA,NA,NA,NA,NA,NA,NA,NA,NA,NA,NA,"",NA,NA,NA,NA,NA,NA,NA,NA,NA,2025-11-19 02:03:22
"12820.69999999553","https://psyc-201.github.io/xiang2023/exp/index1.html?PROLIFIC_PID=REDACTED&STUDY_ID=69168b21477cff9ada6cb980&SESSION_ID=691d1deb9dc6f6d5d7681047","survey-html-form",39,1181514,"0.0-354.0","j+yQOpoVnrLFc46eKhMiQur5sMOuPmd35dPNszpf82GUxmqxCwlOPnb1MGn2DlA+TuX3a3E5DYkKKKfmiGlEY8f/1qCBlu1C0Y1gjtNLjdRc9WLcSXKlfLkybWsjwiw9BD821SmhbW/60LnzUCuPPkkb1LC++Mz4XT6IYvuawDU8YjThLLM9zH4i5HbusT+tzAj6+XMnUtt6vSLjoWxP7iBQ1eP/xVK7ZCOHorHlfbClDNEGow1pTip/7chOP2ElsJowPesUhbV+HxOT2W3w4AuB2b41cDleQo94OxKyfNKTwdCeDyytqgyNAj0yAZxddU3FqmS/oNGH5cTjzUgSLg==","69168b21477cff9ada6cb980","691d1deb9dc6f6d5d7681047","index1","<span style='color:red'>Fail,<span style='color:red'>Fail,<span style='color:green'>Lift,<span style='color:green'>Lift,<span style='color:red'>Fail,<span style='color:red'>Fail,<span style='color:red'>Fail,<span style='color:red'>Fail,<span style='color:red'>Fail,<span style='color:green'>Lift,<span style='color:green'>Lift,<span style='color:red'>Fail","<span style='color:red'>Fail,<span style='color:red'>Fail,<span style='color:green'>Lift,<span style='color:green'>Lift,<span style='color:green'>Lift,<span style='color:green'>Lift,<span style='color:green'>Lift,<span style='color:red'>Fail,<span style='color:green'>Lift,<span style='color:green'>Lift,<span style='color:green'>Lift,<span style='color:red'>Fail","<span style='color:red'>Fail,<span style='color:green'>Lift,<span style='color:green'>Lift,<span style='color:red'>Fail,<span style='color:green'>Lift,<span style='color:green'>Lift","0,0,1,1,0,0,0,0,0,1,1,0","0,0,1,1,1,1,1,0,1,1,1,0","0,1,1,0,1,1",10,20,20,"","","","","{""box1"":""90"",""box2"":""90""}","",6,"round2_ready",2,6,2,NA,NA,NA,NA,NA,NA,NA,NA,NA,NA,NA,NA,NA,NA,90,90,90,90,NA,NA,NA,NA,NA,NA,NA,NA,NA,NA,NA,NA,NA,NA,NA,NA,NA,NA,"",NA,NA,NA,NA,NA,NA,NA,NA,NA,2025-11-19 02:03:22
"23080.90000000596","https://psyc-201.github.io/xiang2023/exp/index1.html?PROLIFIC_PID=REDACTED&STUDY_ID=69168b21477cff9ada6cb980&SESSION_ID=691d1deb9dc6f6d5d7681047","survey-html-form",40,1204596,"0.0-355.0","j+yQOpoVnrLFc46eKhMiQur5sMOuPmd35dPNszpf82GUxmqxCwlOPnb1MGn2DlA+TuX3a3E5DYkKKKfmiGlEY8f/1qCBlu1C0Y1gjtNLjdRc9WLcSXKlfLkybWsjwiw9BD821SmhbW/60LnzUCuPPkkb1LC++Mz4XT6IYvuawDU8YjThLLM9zH4i5HbusT+tzAj6+XMnUtt6vSLjoWxP7iBQ1eP/xVK7ZCOHorHlfbClDNEGow1pTip/7chOP2ElsJowPesUhbV+HxOT2W3w4AuB2b41cDleQo94OxKyfNKTwdCeDyytqgyNAj0yAZxddU3FqmS/oNGH5cTjzUgSLg==","69168b21477cff9ada6cb980","691d1deb9dc6f6d5d7681047","index1","<span style='color:red'>Fail,<span style='color:red'>Fail,<span style='color:green'>Lift,<span style='color:green'>Lift,<span style='color:red'>Fail,<span style='color:red'>Fail,<span style='color:red'>Fail,<span style='color:red'>Fail,<span style='color:red'>Fail,<span style='color:green'>Lift,<span style='color:green'>Lift,<span style='color:red'>Fail","<span style='color:red'>Fail,<span style='color:red'>Fail,<span style='color:green'>Lift,<span style='color:green'>Lift,<span style='color:green'>Lift,<span style='color:green'>Lift,<span style='color:green'>Lift,<span style='color:red'>Fail,<span style='color:green'>Lift,<span style='color:green'>Lift,<span style='color:green'>Lift,<span style='color:red'>Fail","<span style='color:red'>Fail,<span style='color:green'>Lift,<span style='color:green'>Lift,<span style='color:red'>Fail,<span style='color:green'>Lift,<span style='color:green'>Lift","0,0,1,1,0,0,0,0,0,1,1,0","0,0,1,1,1,1,1,0,1,1,1,0","0,1,1,0,1,1",10,20,20,"","","","","{""box1"":""8"",""box2"":""8"",""box3"":""80"",""box4"":""80""}","",6,"round2_outcome",3,6,2,8,8,80,80,1,1,20,NA,NA,NA,NA,NA,NA,NA,NA,NA,NA,NA,8,8,80,80,1,1,20,NA,NA,NA,NA,NA,NA,NA,NA,NA,NA,NA,"",NA,NA,NA,NA,NA,NA,NA,NA,NA,2025-11-19 02:03:22
"32262.89999999851","https://psyc-201.github.io/xiang2023/exp/index1.html?PROLIFIC_PID=REDACTED&STUDY_ID=69168b21477cff9ada6cb980&SESSION_ID=691d1deb9dc6f6d5d7681047","survey-html-form",41,1236861,"0.0-356.0","j+yQOpoVnrLFc46eKhMiQur5sMOuPmd35dPNszpf82GUxmqxCwlOPnb1MGn2DlA+TuX3a3E5DYkKKKfmiGlEY8f/1qCBlu1C0Y1gjtNLjdRc9WLcSXKlfLkybWsjwiw9BD821SmhbW/60LnzUCuPPkkb1LC++Mz4XT6IYvuawDU8YjThLLM9zH4i5HbusT+tzAj6+XMnUtt6vSLjoWxP7iBQ1eP/xVK7ZCOHorHlfbClDNEGow1pTip/7chOP2ElsJowPesUhbV+HxOT2W3w4AuB2b41cDleQo94OxKyfNKTwdCeDyytqgyNAj0yAZxddU3FqmS/oNGH5cTjzUgSLg==","69168b21477cff9ada6cb980","691d1deb9dc6f6d5d7681047","index1","<span style='color:red'>Fail,<span style='color:red'>Fail,<span style='color:green'>Lift,<span style='color:green'>Lift,<span style='color:red'>Fail,<span style='color:red'>Fail,<span style='color:red'>Fail,<span style='color:red'>Fail,<span style='color:red'>Fail,<span style='color:green'>Lift,<span style='color:green'>Lift,<span style='color:red'>Fail","<span style='color:red'>Fail,<span style='color:red'>Fail,<span style='color:green'>Lift,<span style='color:green'>Lift,<span style='color:green'>Lift,<span style='color:green'>Lift,<span style='color:green'>Lift,<span style='color:red'>Fail,<span style='color:green'>Lift,<span style='color:green'>Lift,<span style='color:green'>Lift,<span style='color:red'>Fail","<span style='color:red'>Fail,<span style='color:green'>Lift,<span style='color:green'>Lift,<span style='color:red'>Fail,<span style='color:green'>Lift,<span style='color:green'>Lift","0,0,1,1,0,0,0,0,0,1,1,0","0,0,1,1,1,1,1,0,1,1,1,0","0,1,1,0,1,1",10,20,20,"","","","","{""box1"":""90""}","",6,"round3_ready",4,6,3,NA,NA,NA,NA,NA,NA,NA,NA,NA,NA,NA,NA,NA,NA,90,90,NA,NA,NA,NA,NA,NA,NA,NA,NA,90,90,NA,NA,NA,NA,NA,NA,NA,NA,NA,"",NA,NA,NA,NA,NA,NA,NA,NA,NA,2025-11-19 02:03:22
"12317.69999999553","https://psyc-201.github.io/xiang2023/exp/index1.html?PROLIFIC_PID=REDACTED&STUDY_ID=69168b21477cff9ada6cb980&SESSION_ID=691d1deb9dc6f6d5d7681047","survey-html-form",42,1249180,"0.0-357.0-0.0","j+yQOpoVnrLFc46eKhMiQur5sMOuPmd35dPNszpf82GUxmqxCwlOPnb1MGn2DlA+TuX3a3E5DYkKKKfmiGlEY8f/1qCBlu1C0Y1gjtNLjdRc9WLcSXKlfLkybWsjwiw9BD821SmhbW/60LnzUCuPPkkb1LC++Mz4XT6IYvuawDU8YjThLLM9zH4i5HbusT+tzAj6+XMnUtt6vSLjoWxP7iBQ1eP/xVK7ZCOHorHlfbClDNEGow1pTip/7chOP2ElsJowPesUhbV+HxOT2W3w4AuB2b41cDleQo94OxKyfNKTwdCeDyytqgyNAj0yAZxddU3FqmS/oNGH5cTjzUgSLg==","69168b21477cff9ada6cb980","691d1deb9dc6f6d5d7681047","index1","<span style='color:red'>Fail,<span style='color:red'>Fail,<span style='color:green'>Lift,<span style='color:green'>Lift,<span style='color:red'>Fail,<span style='color:red'>Fail,<span style='color:red'>Fail,<span style='color:red'>Fail,<span style='color:red'>Fail,<span style='color:green'>Lift,<span style='color:green'>Lift,<span style='color:red'>Fail","<span style='color:red'>Fail,<span style='color:red'>Fail,<span style='color:green'>Lift,<span style='color:green'>Lift,<span style='color:green'>Lift,<span style='color:green'>Lift,<span style='color:green'>Lift,<span style='color:red'>Fail,<span style='color:green'>Lift,<span style='color:green'>Lift,<span style='color:green'>Lift,<span style='color:red'>Fail","<span style='color:red'>Fail,<span style='color:green'>Lift,<span style='color:green'>Lift,<span style='color:red'>Fail,<span style='color:green'>Lift,<span style='color:green'>Lift","0,0,1,1,0,0,0,0,0,1,1,0","0,0,1,1,1,1,1,0,1,1,1,0","0,1,1,0,1,1",10,20,20,"","","","","{""box1"":""8"",""box2"":""8"",""box3"":""80"",""box4"":""80""}","",6,"round3_lift",5,6,3,8,8,80,80,1,1,20,NA,NA,NA,NA,NA,NA,NA,NA,NA,NA,NA,NA,NA,NA,NA,NA,NA,NA,NA,NA,NA,NA,8,8,1,1,20,80,80,"",NA,NA,NA,NA,NA,NA,NA,NA,NA,2025-11-19 02:03:22
"138769.3999999985","https://psyc-201.github.io/xiang2023/exp/index1.html?PROLIFIC_PID=REDACTED&STUDY_ID=69168b21477cff9ada6cb980&SESSION_ID=691d1deb9dc6f6d5d7681047","survey-text",43,1387951,"0.0-361.0","j+yQOpoVnrLFc46eKhMiQur5sMOuPmd35dPNszpf82GUxmqxCwlOPnb1MGn2DlA+TuX3a3E5DYkKKKfmiGlEY8f/1qCBlu1C0Y1gjtNLjdRc9WLcSXKlfLkybWsjwiw9BD821SmhbW/60LnzUCuPPkkb1LC++Mz4XT6IYvuawDU8YjThLLM9zH4i5HbusT+tzAj6+XMnUtt6vSLjoWxP7iBQ1eP/xVK7ZCOHorHlfbClDNEGow1pTip/7chOP2ElsJowPesUhbV+HxOT2W3w4AuB2b41cDleQo94OxKyfNKTwdCeDyytqgyNAj0yAZxddU3FqmS/oNGH5cTjzUgSLg==","69168b21477cff9ada6cb980","691d1deb9dc6f6d5d7681047","index1","<span style='color:red'>Fail,<span style='color:red'>Fail,<span style='color:green'>Lift,<span style='color:green'>Lift,<span style='color:red'>Fail,<span style='color:red'>Fail,<span style='color:red'>Fail,<span style='color:red'>Fail,<span style='color:red'>Fail,<span style='color:green'>Lift,<span style='color:green'>Lift,<span style='color:red'>Fail","<span style='color:red'>Fail,<span style='color:red'>Fail,<span style='color:green'>Lift,<span style='color:green'>Lift,<span style='color:green'>Lift,<span style='color:green'>Lift,<span style='color:green'>Lift,<span style='color:red'>Fail,<span style='color:green'>Lift,<span style='color:green'>Lift,<span style='color:green'>Lift,<span style='color:red'>Fail","<span style='color:red'>Fail,<span style='color:green'>Lift,<span style='color:green'>Lift,<span style='color:red'>Fail,<span style='color:green'>Lift,<span style='color:green'>Lift","0,0,1,1,0,0,0,0,0,1,1,0","0,0,1,1,1,1,1,0,1,1,1,0","0,1,1,0,1,1",10,20,20,"","","","","{""Q0"":""I assessed multiple contestants strength, effort, and lifting success across multiple rounds and then filled in the estimates probabilities of them lifting the item based on their performance.""}","",NA,"",NA,NA,NA,NA,NA,NA,NA,NA,NA,NA,NA,NA,NA,NA,NA,NA,NA,NA,NA,NA,NA,NA,NA,NA,NA,NA,NA,NA,NA,NA,NA,NA,NA,NA,NA,NA,NA,NA,NA,"",NA,NA,NA,NA,NA,NA,NA,NA,NA,2025-11-19 02:03:22
"2589.6999999955297","https://psyc-201.github.io/xiang2023/exp/index1.html?PROLIFIC_PID=REDACTED&STUDY_ID=69168b21477cff9ada6cb980&SESSION_ID=691d1deb9dc6f6d5d7681047","survey-text",44,1390542,"0.0-362.0","j+yQOpoVnrLFc46eKhMiQur5sMOuPmd35dPNszpf82GUxmqxCwlOPnb1MGn2DlA+TuX3a3E5DYkKKKfmiGlEY8f/1qCBlu1C0Y1gjtNLjdRc9WLcSXKlfLkybWsjwiw9BD821SmhbW/60LnzUCuPPkkb1LC++Mz4XT6IYvuawDU8YjThLLM9zH4i5HbusT+tzAj6+XMnUtt6vSLjoWxP7iBQ1eP/xVK7ZCOHorHlfbClDNEGow1pTip/7chOP2ElsJowPesUhbV+HxOT2W3w4AuB2b41cDleQo94OxKyfNKTwdCeDyytqgyNAj0yAZxddU3FqmS/oNGH5cTjzUgSLg==","69168b21477cff9ada6cb980","691d1deb9dc6f6d5d7681047","index1","<span style='color:red'>Fail,<span style='color:red'>Fail,<span style='color:green'>Lift,<span style='color:green'>Lift,<span style='color:red'>Fail,<span style='color:red'>Fail,<span style='color:red'>Fail,<span style='color:red'>Fail,<span style='color:red'>Fail,<span style='color:green'>Lift,<span style='color:green'>Lift,<span style='color:red'>Fail","<span style='color:red'>Fail,<span style='color:red'>Fail,<span style='color:green'>Lift,<span style='color:green'>Lift,<span style='color:green'>Lift,<span style='color:green'>Lift,<span style='color:green'>Lift,<span style='color:red'>Fail,<span style='color:green'>Lift,<span style='color:green'>Lift,<span style='color:green'>Lift,<span style='color:red'>Fail","<span style='color:red'>Fail,<span style='color:green'>Lift,<span style='color:green'>Lift,<span style='color:red'>Fail,<span style='color:green'>Lift,<span style='color:green'>Lift","0,0,1,1,0,0,0,0,0,1,1,0","0,0,1,1,1,1,1,0,1,1,1,0","0,1,1,0,1,1",10,20,20,"","","","","{""Q0"":""""}","",NA,"",NA,NA,NA,NA,NA,NA,NA,NA,NA,NA,NA,NA,NA,NA,NA,NA,NA,NA,NA,NA,NA,NA,NA,NA,NA,NA,NA,NA,NA,NA,NA,NA,NA,NA,NA,NA,NA,NA,NA,"[{""event"":""fullscreenenter"",""trial"":1,""time"":5048},{""event"":""blur"",""trial"":2,""time"":21031},{""event"":""focus"",""trial"":2,""time"":27059},{""event"":""blur"",""trial"":2,""time"":33167},{""event"":""focus"",""trial"":2,""time"":36494},{""event"":""blur"",""trial"":2,""time"":40729},{""event"":""focus"",""trial"":2,""time"":49459},{""event"":""blur"",""trial"":2,""time"":53500},{""event"":""focus"",""trial"":2,""time"":66001},{""event"":""blur"",""trial"":2,""time"":74892},{""event"":""focus"",""trial"":2,""time"":79954},{""event"":""blur"",""trial"":2,""time"":82844},{""event"":""focus"",""trial"":2,""time"":87380},{""event"":""blur"",""trial"":2,""time"":89625},{""event"":""focus"",""trial"":2,""time"":119047},{""event"":""blur"",""trial"":4,""time"":122858},{""event"":""focus"",""trial"":4,""time"":133855},{""event"":""blur"",""trial"":5,""time"":170110},{""event"":""focus"",""trial"":5,""time"":181189},{""event"":""blur"",""trial"":8,""time"":190117},{""event"":""focus"",""trial"":8,""time"":193498},{""event"":""blur"",""trial"":9,""time"":207638},{""event"":""focus"",""trial"":9,""time"":213002},{""event"":""blur"",""trial"":10,""time"":225299},{""event"":""focus"",""trial"":10,""time"":227499},{""event"":""blur"",""trial"":11,""time"":247262},{""event"":""focus"",""trial"":11,""time"":258912},{""event"":""blur"",""trial"":12,""time"":265506},{""event"":""focus"",""trial"":12,""time"":332617},{""event"":""blur"",""trial"":14,""time"":346191},{""event"":""focus"",""trial"":14,""time"":357910},{""event"":""blur"",""trial"":15,""time"":365772},{""event"":""focus"",""trial"":15,""time"":373974},{""event"":""blur"",""trial"":16,""time"":382144},{""event"":""focus"",""trial"":16,""time"":476808},{""event"":""blur"",""trial"":17,""time"":484631},{""event"":""focus"",""trial"":17,""time"":816062},{""event"":""blur"",""trial"":17,""time"":817728},{""event"":""focus"",""trial"":17,""time"":826528},{""event"":""blur"",""trial"":17,""time"":829919},{""event"":""focus"",""trial"":17,""time"":851028},{""event"":""blur"",""trial"":18,""time"":853270},{""event"":""focus"",""trial"":18,""time"":859429},{""event"":""blur"",""trial"":20,""time"":871035},{""event"":""focus"",""trial"":20,""time"":873686},{""event"":""blur"",""trial"":21,""time"":882474},{""event"":""focus"",""trial"":21,""time"":885591},{""event"":""blur"",""trial"":22,""time"":894107},{""event"":""focus"",""trial"":22,""time"":899205},{""event"":""blur"",""trial"":23,""time"":906743},{""event"":""focus"",""trial"":23,""time"":909500},{""event"":""blur"",""trial"":23,""time"":911888},{""event"":""focus"",""trial"":23,""time"":917302},{""event"":""blur"",""trial"":24,""time"":925909},{""event"":""focus"",""trial"":24,""time"":928348},{""event"":""blur"",""trial"":26,""time"":941554},{""event"":""focus"",""trial"":26,""time"":946325},{""event"":""blur"",""trial"":26,""time"":948530},{""event"":""focus"",""trial"":26,""time"":973497},{""event"":""blur"",""trial"":26,""time"":975708},{""event"":""focus"",""trial"":26,""time"":984436},{""event"":""blur"",""trial"":27,""time"":991955},{""event"":""focus"",""trial"":27,""time"":995317},{""event"":""blur"",""trial"":28,""time"":1006746},{""event"":""focus"",""trial"":28,""time"":1010201},{""event"":""blur"",""trial"":29,""time"":1018328},{""event"":""focus"",""trial"":29,""time"":1021101},{""event"":""blur"",""trial"":30,""time"":1027490},{""event"":""focus"",""trial"":30,""time"":1030855},{""event"":""blur"",""trial"":31,""time"":1042748},{""event"":""focus"",""trial"":32,""time"":1047049},{""event"":""blur"",""trial"":32,""time"":1057142},{""event"":""focus"",""trial"":32,""time"":1066901},{""event"":""blur"",""trial"":32,""time"":1068886},{""event"":""focus"",""trial"":32,""time"":1073548},{""event"":""blur"",""trial"":33,""time"":1080873},{""event"":""focus"",""trial"":33,""time"":1084577},{""event"":""blur"",""trial"":34,""time"":1092264},{""event"":""focus"",""trial"":34,""time"":1097356},{""event"":""blur"",""trial"":35,""time"":1106236},{""event"":""focus"",""trial"":35,""time"":1110662},{""event"":""blur"",""trial"":36,""time"":1117857},{""event"":""focus"",""trial"":36,""time"":1120685},{""event"":""blur"",""trial"":37,""time"":1129558},{""event"":""focus"",""trial"":38,""time"":1148368},{""event"":""blur"",""trial"":38,""time"":1150996},{""event"":""focus"",""trial"":38,""time"":1158359},{""event"":""blur"",""trial"":39,""time"":1172027},{""event"":""focus"",""trial"":39,""time"":1179287},{""event"":""blur"",""trial"":40,""time"":1185432},{""event"":""focus"",""trial"":40,""time"":1200243},{""event"":""blur"",""trial"":41,""time"":1208049},{""event"":""focus"",""trial"":41,""time"":1230051},{""event"":""blur"",""trial"":42,""time"":1239792},{""event"":""focus"",""trial"":42,""time"":1242447},{""event"":""blur"",""trial"":43,""time"":1254515},{""event"":""focus"",""trial"":43,""time"":1327104}]",3,2,1,50,0,0.5,NA,NA,NA,2025-11-19 02:03:22
"4315.5","https://psyc-201.github.io/xiang2023/exp/index1.html?PROLIFIC_PID=REDACTED&STUDY_ID=69168b21477cff9ada6cb980&SESSION_ID=691d1deb9dc6f6d5d7681047","html-button-response",45,1394859,"0.0-363.0","j+yQOpoVnrLFc46eKhMiQur5sMOuPmd35dPNszpf82GUxmqxCwlOPnb1MGn2DlA+TuX3a3E5DYkKKKfmiGlEY8f/1qCBlu1C0Y1gjtNLjdRc9WLcSXKlfLkybWsjwiw9BD821SmhbW/60LnzUCuPPkkb1LC++Mz4XT6IYvuawDU8YjThLLM9zH4i5HbusT+tzAj6+XMnUtt6vSLjoWxP7iBQ1eP/xVK7ZCOHorHlfbClDNEGow1pTip/7chOP2ElsJowPesUhbV+HxOT2W3w4AuB2b41cDleQo94OxKyfNKTwdCeDyytqgyNAj0yAZxddU3FqmS/oNGH5cTjzUgSLg==","69168b21477cff9ada6cb980","691d1deb9dc6f6d5d7681047","index1","<span style='color:red'>Fail,<span style='color:red'>Fail,<span style='color:green'>Lift,<span style='color:green'>Lift,<span style='color:red'>Fail,<span style='color:red'>Fail,<span style='color:red'>Fail,<span style='color:red'>Fail,<span style='color:red'>Fail,<span style='color:green'>Lift,<span style='color:green'>Lift,<span style='color:red'>Fail","<span style='color:red'>Fail,<span style='color:red'>Fail,<span style='color:green'>Lift,<span style='color:green'>Lift,<span style='color:green'>Lift,<span style='color:green'>Lift,<span style='color:green'>Lift,<span style='color:red'>Fail,<span style='color:green'>Lift,<span style='color:green'>Lift,<span style='color:green'>Lift,<span style='color:red'>Fail","<span style='color:red'>Fail,<span style='color:green'>Lift,<span style='color:green'>Lift,<span style='color:red'>Fail,<span style='color:green'>Lift,<span style='color:green'>Lift","0,0,1,1,0,0,0,0,0,1,1,0","0,0,1,1,1,1,1,0,1,1,1,0","0,1,1,0,1,1",10,20,20,"","","<p> We randomly picked <b>Contest 3, Round 2</b> to calculate your bonus. </p><p> The outcome of Contestant F on that round is <span style='color:red'>Fail</span>. </p><p> The probability you entered was 50. </p><p><b> You won a bonus of $0.50!</b></p><p> IMPORTANT: Please click 'Next' to complete the game.</p>","","","",NA,"",NA,NA,NA,NA,NA,NA,NA,NA,NA,NA,NA,NA,NA,NA,NA,NA,NA,NA,NA,NA,NA,NA,NA,NA,NA,NA,NA,NA,NA,NA,NA,NA,NA,NA,NA,NA,NA,NA,NA,"",NA,NA,NA,NA,NA,NA,0,2,1,2025-11-19 02:03:22
