"rt","url","trial_type","trial_index","time_elapsed","internal_node_id","encryptedProlificId","studyId","sessionId","expIndex","round1_outcomes","round2_outcomes","round3_outcomes","round1_o","round2_o","round3_o","round1_reward","round2_reward","round3_reward","success","view_history","stimulus","key_press","responses","question_order","button_pressed","j","Stage","stage","contest","round","strength_a","strength_b","effort_a","effort_b","outcome_a","outcome_b","reward","r1_strength_a","r1_strength_b","r1_effort_a","r1_effort_b","r1_outcome_a","r1_outcome_b","r1_reward","probability_a","probability_b","r2_prob_a","r2_prob_b","r2_strength_a","r2_strength_b","r2_effort_a","r2_effort_b","r2_outcome_a","r2_outcome_b","r2_reward","r3_prob_a","r3_prob_b","r3_strength_a","r3_strength_b","r3_effort_a","r3_effort_b","r3_outcome_a","r3_outcome_b","r3_reward","attention_check","count","already","screen","pick_contest","pick_round","pick_side","trial_probability","trial_outcome","bonus","attention_sum","attention","datapipe_meta.attributes.date_modified"
"7950.29999999702","https://psyc-201.github.io/xiang2023/exp/index1.html?PROLIFIC_PID=REDACTED&STUDY_ID=69168b21477cff9ada6cb980&SESSION_ID=691bd5d46b57be1d7b1b72d3","external-html",0,7991,"0.0-0.0","cbQ0pKUhSj0w+D3yWYQoBGoJvJqjNI+Jo7OBjKWlRugFvqpiXqx9iYzAwURuhYngteh1ishbuW1JDNhA/O6QXlDcfMpHTUSsZkXBf3PFzoKvTNpeHaIV6pGeOIOOJ0sP9I7minTzntYjILGWUG+gFpg68cx8bs0V0QmefNo8+F684XZOWn1OGpSPELIZpE5fm+pMJ2QImio74ZAy9+Mq+ixqaECsid4eVBOvvkDJn7AWE6Uk0ggkP1o9pHRj8JQlF/NeN9etmdTql9DcgfPFpR8oFzIKAYgAKhn3t723XaRkyB5ddwMinvKiIsIvnYkL0VPcdWzWSgnAH6pzLxP31Q==","69168b21477cff9ada6cb980","691bd5d46b57be1d7b1b72d3","index1","<span style='color:red'>Fail,<span style='color:red'>Fail,<span style='color:green'>Lift,<span style='color:green'>Lift,<span style='color:red'>Fail,<span style='color:red'>Fail,<span style='color:red'>Fail,<span style='color:red'>Fail,<span style='color:green'>Lift,<span style='color:red'>Fail,<span style='color:red'>Fail,<span style='color:green'>Lift","<span style='color:red'>Fail,<span style='color:red'>Fail,<span style='color:green'>Lift,<span style='color:green'>Lift,<span style='color:green'>Lift,<span style='color:green'>Lift,<span style='color:red'>Fail,<span style='color:green'>Lift,<span style='color:green'>Lift,<span style='color:green'>Lift,<span style='color:red'>Fail,<span style='color:green'>Lift","<span style='color:red'>Fail,<span style='color:green'>Lift,<span style='color:green'>Lift,<span style='color:red'>Fail,<span style='color:green'>Lift,<span style='color:green'>Lift","0,0,1,1,0,0,0,0,1,0,0,1","0,0,1,1,1,1,0,1,1,1,0,1","0,1,1,0,1,1",10,20,20,"","","","","","",NA,NA,"",NA,NA,NA,NA,NA,NA,NA,NA,NA,NA,NA,NA,NA,NA,NA,NA,NA,NA,NA,NA,NA,NA,NA,NA,NA,NA,NA,NA,NA,NA,NA,NA,NA,NA,NA,NA,NA,NA,NA,NA,"",NA,NA,NA,NA,NA,NA,NA,NA,2025-11-18 02:27:41
"","https://psyc-201.github.io/xiang2023/exp/index1.html?PROLIFIC_PID=REDACTED&STUDY_ID=69168b21477cff9ada6cb980&SESSION_ID=691bd5d46b57be1d7b1b72d3","fullscreen",1,12224,"0.0-1.0","cbQ0pKUhSj0w+D3yWYQoBGoJvJqjNI+Jo7OBjKWlRugFvqpiXqx9iYzAwURuhYngteh1ishbuW1JDNhA/O6QXlDcfMpHTUSsZkXBf3PFzoKvTNpeHaIV6pGeOIOOJ0sP9I7minTzntYjILGWUG+gFpg68cx8bs0V0QmefNo8+F684XZOWn1OGpSPELIZpE5fm+pMJ2QImio74ZAy9+Mq+ixqaECsid4eVBOvvkDJn7AWE6Uk0ggkP1o9pHRj8JQlF/NeN9etmdTql9DcgfPFpR8oFzIKAYgAKhn3t723XaRkyB5ddwMinvKiIsIvnYkL0VPcdWzWSgnAH6pzLxP31Q==","69168b21477cff9ada6cb980","691bd5d46b57be1d7b1b72d3","index1","<span style='color:red'>Fail,<span style='color:red'>Fail,<span style='color:green'>Lift,<span style='color:green'>Lift,<span style='color:red'>Fail,<span style='color:red'>Fail,<span style='color:red'>Fail,<span style='color:red'>Fail,<span style='color:green'>Lift,<span style='color:red'>Fail,<span style='color:red'>Fail,<span style='color:green'>Lift","<span style='color:red'>Fail,<span style='color:red'>Fail,<span style='color:green'>Lift,<span style='color:green'>Lift,<span style='color:green'>Lift,<span style='color:green'>Lift,<span style='color:red'>Fail,<span style='color:green'>Lift,<span style='color:green'>Lift,<span style='color:green'>Lift,<span style='color:red'>Fail,<span style='color:green'>Lift","<span style='color:red'>Fail,<span style='color:green'>Lift,<span style='color:green'>Lift,<span style='color:red'>Fail,<span style='color:green'>Lift,<span style='color:green'>Lift","0,0,1,1,0,0,0,0,1,0,0,1","0,0,1,1,1,1,0,1,1,1,0,1","0,1,1,0,1,1",10,20,20,"true","","","","","",NA,NA,"",NA,NA,NA,NA,NA,NA,NA,NA,NA,NA,NA,NA,NA,NA,NA,NA,NA,NA,NA,NA,NA,NA,NA,NA,NA,NA,NA,NA,NA,NA,NA,NA,NA,NA,NA,NA,NA,NA,NA,NA,"",NA,NA,NA,NA,NA,NA,NA,NA,2025-11-18 02:27:41
"224760.40000000596","https://psyc-201.github.io/xiang2023/exp/index1.html?PROLIFIC_PID=REDACTED&STUDY_ID=69168b21477cff9ada6cb980&SESSION_ID=691bd5d46b57be1d7b1b72d3","instructions",2,236985,"0.0-2.0","cbQ0pKUhSj0w+D3yWYQoBGoJvJqjNI+Jo7OBjKWlRugFvqpiXqx9iYzAwURuhYngteh1ishbuW1JDNhA/O6QXlDcfMpHTUSsZkXBf3PFzoKvTNpeHaIV6pGeOIOOJ0sP9I7minTzntYjILGWUG+gFpg68cx8bs0V0QmefNo8+F684XZOWn1OGpSPELIZpE5fm+pMJ2QImio74ZAy9+Mq+ixqaECsid4eVBOvvkDJn7AWE6Uk0ggkP1o9pHRj8JQlF/NeN9etmdTql9DcgfPFpR8oFzIKAYgAKhn3t723XaRkyB5ddwMinvKiIsIvnYkL0VPcdWzWSgnAH6pzLxP31Q==","69168b21477cff9ada6cb980","691bd5d46b57be1d7b1b72d3","index1","<span style='color:red'>Fail,<span style='color:red'>Fail,<span style='color:green'>Lift,<span style='color:green'>Lift,<span style='color:red'>Fail,<span style='color:red'>Fail,<span style='color:red'>Fail,<span style='color:red'>Fail,<span style='color:green'>Lift,<span style='color:red'>Fail,<span style='color:red'>Fail,<span style='color:green'>Lift","<span style='color:red'>Fail,<span style='color:red'>Fail,<span style='color:green'>Lift,<span style='color:green'>Lift,<span style='color:green'>Lift,<span style='color:green'>Lift,<span style='color:red'>Fail,<span style='color:green'>Lift,<span style='color:green'>Lift,<span style='color:green'>Lift,<span style='color:red'>Fail,<span style='color:green'>Lift","<span style='color:red'>Fail,<span style='color:green'>Lift,<span style='color:green'>Lift,<span style='color:red'>Fail,<span style='color:green'>Lift,<span style='color:green'>Lift","0,0,1,1,0,0,0,0,1,0,0,1","0,0,1,1,1,1,0,1,1,1,0,1","0,1,1,0,1,1",10,20,20,"","[{""page_index"":0,""viewing_time"":14040.79999999702},{""page_index"":1,""viewing_time"":617.2000000029802},{""page_index"":0,""viewing_time"":16079.09999999404},{""page_index"":1,""viewing_time"":17424.20000000298},{""page_index"":2,""viewing_time"":39049.10000000894},{""page_index"":3,""viewing_time"":31241.29999999702},{""page_index"":4,""viewing_time"":46666},{""page_index"":5,""viewing_time"":56469.20000000298},{""page_index"":6,""viewing_time"":3173.2999999970198}]","","","","",NA,NA,"",NA,NA,NA,NA,NA,NA,NA,NA,NA,NA,NA,NA,NA,NA,NA,NA,NA,NA,NA,NA,NA,NA,NA,NA,NA,NA,NA,NA,NA,NA,NA,NA,NA,NA,NA,NA,NA,NA,NA,NA,"",NA,NA,NA,NA,NA,NA,NA,NA,2025-11-18 02:27:41
"null","https://psyc-201.github.io/xiang2023/exp/index1.html?PROLIFIC_PID=REDACTED&STUDY_ID=69168b21477cff9ada6cb980&SESSION_ID=691bd5d46b57be1d7b1b72d3","html-keyboard-response",3,237998,"0.0-3.0","cbQ0pKUhSj0w+D3yWYQoBGoJvJqjNI+Jo7OBjKWlRugFvqpiXqx9iYzAwURuhYngteh1ishbuW1JDNhA/O6QXlDcfMpHTUSsZkXBf3PFzoKvTNpeHaIV6pGeOIOOJ0sP9I7minTzntYjILGWUG+gFpg68cx8bs0V0QmefNo8+F684XZOWn1OGpSPELIZpE5fm+pMJ2QImio74ZAy9+Mq+ixqaECsid4eVBOvvkDJn7AWE6Uk0ggkP1o9pHRj8JQlF/NeN9etmdTql9DcgfPFpR8oFzIKAYgAKhn3t723XaRkyB5ddwMinvKiIsIvnYkL0VPcdWzWSgnAH6pzLxP31Q==","69168b21477cff9ada6cb980","691bd5d46b57be1d7b1b72d3","index1","<span style='color:red'>Fail,<span style='color:red'>Fail,<span style='color:green'>Lift,<span style='color:green'>Lift,<span style='color:red'>Fail,<span style='color:red'>Fail,<span style='color:red'>Fail,<span style='color:red'>Fail,<span style='color:green'>Lift,<span style='color:red'>Fail,<span style='color:red'>Fail,<span style='color:green'>Lift","<span style='color:red'>Fail,<span style='color:red'>Fail,<span style='color:green'>Lift,<span style='color:green'>Lift,<span style='color:green'>Lift,<span style='color:green'>Lift,<span style='color:red'>Fail,<span style='color:green'>Lift,<span style='color:green'>Lift,<span style='color:green'>Lift,<span style='color:red'>Fail,<span style='color:green'>Lift","<span style='color:red'>Fail,<span style='color:green'>Lift,<span style='color:green'>Lift,<span style='color:red'>Fail,<span style='color:green'>Lift,<span style='color:green'>Lift","0,0,1,1,0,0,0,0,1,0,0,1","0,0,1,1,1,1,0,1,1,1,0,1","0,1,1,0,1,1",10,20,20,"",""," ","null","","",NA,NA,"",NA,NA,NA,NA,NA,NA,NA,NA,NA,NA,NA,NA,NA,NA,NA,NA,NA,NA,NA,NA,NA,NA,NA,NA,NA,NA,NA,NA,NA,NA,NA,NA,NA,NA,NA,NA,NA,NA,NA,NA,"",NA,NA,NA,NA,NA,NA,NA,NA,2025-11-18 02:27:41
"72130.39999999106","https://psyc-201.github.io/xiang2023/exp/index1.html?PROLIFIC_PID=REDACTED&STUDY_ID=69168b21477cff9ada6cb980&SESSION_ID=691bd5d46b57be1d7b1b72d3","survey-multi-choice",4,310130,"0.0-4.0","cbQ0pKUhSj0w+D3yWYQoBGoJvJqjNI+Jo7OBjKWlRugFvqpiXqx9iYzAwURuhYngteh1ishbuW1JDNhA/O6QXlDcfMpHTUSsZkXBf3PFzoKvTNpeHaIV6pGeOIOOJ0sP9I7minTzntYjILGWUG+gFpg68cx8bs0V0QmefNo8+F684XZOWn1OGpSPELIZpE5fm+pMJ2QImio74ZAy9+Mq+ixqaECsid4eVBOvvkDJn7AWE6Uk0ggkP1o9pHRj8JQlF/NeN9etmdTql9DcgfPFpR8oFzIKAYgAKhn3t723XaRkyB5ddwMinvKiIsIvnYkL0VPcdWzWSgnAH6pzLxP31Q==","69168b21477cff9ada6cb980","691bd5d46b57be1d7b1b72d3","index1","<span style='color:red'>Fail,<span style='color:red'>Fail,<span style='color:green'>Lift,<span style='color:green'>Lift,<span style='color:red'>Fail,<span style='color:red'>Fail,<span style='color:red'>Fail,<span style='color:red'>Fail,<span style='color:green'>Lift,<span style='color:red'>Fail,<span style='color:red'>Fail,<span style='color:green'>Lift","<span style='color:red'>Fail,<span style='color:red'>Fail,<span style='color:green'>Lift,<span style='color:green'>Lift,<span style='color:green'>Lift,<span style='color:green'>Lift,<span style='color:red'>Fail,<span style='color:green'>Lift,<span style='color:green'>Lift,<span style='color:green'>Lift,<span style='color:red'>Fail,<span style='color:green'>Lift","<span style='color:red'>Fail,<span style='color:green'>Lift,<span style='color:green'>Lift,<span style='color:red'>Fail,<span style='color:green'>Lift,<span style='color:green'>Lift","0,0,1,1,0,0,0,0,1,0,0,1","0,0,1,1,1,1,0,1,1,1,0,1","0,1,1,0,1,1",10,20,20,"","","","","{""Q0"":""It consists of multiple contests, each contest with three rounds."",""Q1"":""When a new round starts."",""Q2"":""The box weight changes according to the reward on the box; the higher the reward, the heavier the box."",""Q3"":""They will split the $20, that is $10 for each."",""Q4"":""How close my guesses are to the actual outcome.""}","[0,1,2,3,4]",NA,NA,"",NA,NA,NA,NA,NA,NA,NA,NA,NA,NA,NA,NA,NA,NA,NA,NA,NA,NA,NA,NA,NA,NA,NA,NA,NA,NA,NA,NA,NA,NA,NA,NA,NA,NA,NA,NA,NA,NA,NA,NA,"",NA,NA,NA,NA,NA,NA,NA,NA,2025-11-18 02:27:41
"6696.399999991059","https://psyc-201.github.io/xiang2023/exp/index1.html?PROLIFIC_PID=REDACTED&STUDY_ID=69168b21477cff9ada6cb980&SESSION_ID=691bd5d46b57be1d7b1b72d3","html-button-response",5,316828,"0.0-5.0-0.0","cbQ0pKUhSj0w+D3yWYQoBGoJvJqjNI+Jo7OBjKWlRugFvqpiXqx9iYzAwURuhYngteh1ishbuW1JDNhA/O6QXlDcfMpHTUSsZkXBf3PFzoKvTNpeHaIV6pGeOIOOJ0sP9I7minTzntYjILGWUG+gFpg68cx8bs0V0QmefNo8+F684XZOWn1OGpSPELIZpE5fm+pMJ2QImio74ZAy9+Mq+ixqaECsid4eVBOvvkDJn7AWE6Uk0ggkP1o9pHRj8JQlF/NeN9etmdTql9DcgfPFpR8oFzIKAYgAKhn3t723XaRkyB5ddwMinvKiIsIvnYkL0VPcdWzWSgnAH6pzLxP31Q==","69168b21477cff9ada6cb980","691bd5d46b57be1d7b1b72d3","index1","<span style='color:red'>Fail,<span style='color:red'>Fail,<span style='color:green'>Lift,<span style='color:green'>Lift,<span style='color:red'>Fail,<span style='color:red'>Fail,<span style='color:red'>Fail,<span style='color:red'>Fail,<span style='color:green'>Lift,<span style='color:red'>Fail,<span style='color:red'>Fail,<span style='color:green'>Lift","<span style='color:red'>Fail,<span style='color:red'>Fail,<span style='color:green'>Lift,<span style='color:green'>Lift,<span style='color:green'>Lift,<span style='color:green'>Lift,<span style='color:red'>Fail,<span style='color:green'>Lift,<span style='color:green'>Lift,<span style='color:green'>Lift,<span style='color:red'>Fail,<span style='color:green'>Lift","<span style='color:red'>Fail,<span style='color:green'>Lift,<span style='color:green'>Lift,<span style='color:red'>Fail,<span style='color:green'>Lift,<span style='color:green'>Lift","0,0,1,1,0,0,0,0,1,0,0,1","0,0,1,1,1,1,0,1,1,1,0,1","0,1,1,0,1,1",10,20,20,"","","<p> Oops! You did not pass the comprehension check.</p>","","","",1,NA,"",NA,NA,NA,NA,NA,NA,NA,NA,NA,NA,NA,NA,NA,NA,NA,NA,NA,NA,NA,NA,NA,NA,NA,NA,NA,NA,NA,NA,NA,NA,NA,NA,NA,NA,NA,NA,NA,NA,NA,NA,"",NA,NA,NA,NA,NA,NA,NA,NA,2025-11-18 02:27:41
"80894.29999999702","https://psyc-201.github.io/xiang2023/exp/index1.html?PROLIFIC_PID=REDACTED&STUDY_ID=69168b21477cff9ada6cb980&SESSION_ID=691bd5d46b57be1d7b1b72d3","instructions",6,397722,"0.0-6.0-0.0","cbQ0pKUhSj0w+D3yWYQoBGoJvJqjNI+Jo7OBjKWlRugFvqpiXqx9iYzAwURuhYngteh1ishbuW1JDNhA/O6QXlDcfMpHTUSsZkXBf3PFzoKvTNpeHaIV6pGeOIOOJ0sP9I7minTzntYjILGWUG+gFpg68cx8bs0V0QmefNo8+F684XZOWn1OGpSPELIZpE5fm+pMJ2QImio74ZAy9+Mq+ixqaECsid4eVBOvvkDJn7AWE6Uk0ggkP1o9pHRj8JQlF/NeN9etmdTql9DcgfPFpR8oFzIKAYgAKhn3t723XaRkyB5ddwMinvKiIsIvnYkL0VPcdWzWSgnAH6pzLxP31Q==","69168b21477cff9ada6cb980","691bd5d46b57be1d7b1b72d3","index1","<span style='color:red'>Fail,<span style='color:red'>Fail,<span style='color:green'>Lift,<span style='color:green'>Lift,<span style='color:red'>Fail,<span style='color:red'>Fail,<span style='color:red'>Fail,<span style='color:red'>Fail,<span style='color:green'>Lift,<span style='color:red'>Fail,<span style='color:red'>Fail,<span style='color:green'>Lift","<span style='color:red'>Fail,<span style='color:red'>Fail,<span style='color:green'>Lift,<span style='color:green'>Lift,<span style='color:green'>Lift,<span style='color:green'>Lift,<span style='color:red'>Fail,<span style='color:green'>Lift,<span style='color:green'>Lift,<span style='color:green'>Lift,<span style='color:red'>Fail,<span style='color:green'>Lift","<span style='color:red'>Fail,<span style='color:green'>Lift,<span style='color:green'>Lift,<span style='color:red'>Fail,<span style='color:green'>Lift,<span style='color:green'>Lift","0,0,1,1,0,0,0,0,1,0,0,1","0,0,1,1,1,1,0,1,1,1,0,1","0,1,1,0,1,1",10,20,20,"","[{""page_index"":0,""viewing_time"":34368.09999999404},{""page_index"":1,""viewing_time"":9485.5},{""page_index"":2,""viewing_time"":4639.100000008941},{""page_index"":3,""viewing_time"":21143.19999998808},{""page_index"":4,""viewing_time"":3769.6000000089407},{""page_index"":5,""viewing_time"":5916.0999999940395},{""page_index"":6,""viewing_time"":1572.6000000089407}]","","","","",NA,NA,"",NA,NA,NA,NA,NA,NA,NA,NA,NA,NA,NA,NA,NA,NA,NA,NA,NA,NA,NA,NA,NA,NA,NA,NA,NA,NA,NA,NA,NA,NA,NA,NA,NA,NA,NA,NA,NA,NA,NA,NA,"",NA,NA,NA,NA,NA,NA,NA,NA,2025-11-18 02:27:41
"null","https://psyc-201.github.io/xiang2023/exp/index1.html?PROLIFIC_PID=REDACTED&STUDY_ID=69168b21477cff9ada6cb980&SESSION_ID=691bd5d46b57be1d7b1b72d3","html-keyboard-response",7,398724,"0.0-6.0-1.0","cbQ0pKUhSj0w+D3yWYQoBGoJvJqjNI+Jo7OBjKWlRugFvqpiXqx9iYzAwURuhYngteh1ishbuW1JDNhA/O6QXlDcfMpHTUSsZkXBf3PFzoKvTNpeHaIV6pGeOIOOJ0sP9I7minTzntYjILGWUG+gFpg68cx8bs0V0QmefNo8+F684XZOWn1OGpSPELIZpE5fm+pMJ2QImio74ZAy9+Mq+ixqaECsid4eVBOvvkDJn7AWE6Uk0ggkP1o9pHRj8JQlF/NeN9etmdTql9DcgfPFpR8oFzIKAYgAKhn3t723XaRkyB5ddwMinvKiIsIvnYkL0VPcdWzWSgnAH6pzLxP31Q==","69168b21477cff9ada6cb980","691bd5d46b57be1d7b1b72d3","index1","<span style='color:red'>Fail,<span style='color:red'>Fail,<span style='color:green'>Lift,<span style='color:green'>Lift,<span style='color:red'>Fail,<span style='color:red'>Fail,<span style='color:red'>Fail,<span style='color:red'>Fail,<span style='color:green'>Lift,<span style='color:red'>Fail,<span style='color:red'>Fail,<span style='color:green'>Lift","<span style='color:red'>Fail,<span style='color:red'>Fail,<span style='color:green'>Lift,<span style='color:green'>Lift,<span style='color:green'>Lift,<span style='color:green'>Lift,<span style='color:red'>Fail,<span style='color:green'>Lift,<span style='color:green'>Lift,<span style='color:green'>Lift,<span style='color:red'>Fail,<span style='color:green'>Lift","<span style='color:red'>Fail,<span style='color:green'>Lift,<span style='color:green'>Lift,<span style='color:red'>Fail,<span style='color:green'>Lift,<span style='color:green'>Lift","0,0,1,1,0,0,0,0,1,0,0,1","0,0,1,1,1,1,0,1,1,1,0,1","0,1,1,0,1,1",10,20,20,"",""," ","null","","",NA,NA,"",NA,NA,NA,NA,NA,NA,NA,NA,NA,NA,NA,NA,NA,NA,NA,NA,NA,NA,NA,NA,NA,NA,NA,NA,NA,NA,NA,NA,NA,NA,NA,NA,NA,NA,NA,NA,NA,NA,NA,NA,"",NA,NA,NA,NA,NA,NA,NA,NA,2025-11-18 02:27:41
"24546.59999999404","https://psyc-201.github.io/xiang2023/exp/index1.html?PROLIFIC_PID=REDACTED&STUDY_ID=69168b21477cff9ada6cb980&SESSION_ID=691bd5d46b57be1d7b1b72d3","survey-multi-choice",8,423272,"0.0-7.0-0.0","cbQ0pKUhSj0w+D3yWYQoBGoJvJqjNI+Jo7OBjKWlRugFvqpiXqx9iYzAwURuhYngteh1ishbuW1JDNhA/O6QXlDcfMpHTUSsZkXBf3PFzoKvTNpeHaIV6pGeOIOOJ0sP9I7minTzntYjILGWUG+gFpg68cx8bs0V0QmefNo8+F684XZOWn1OGpSPELIZpE5fm+pMJ2QImio74ZAy9+Mq+ixqaECsid4eVBOvvkDJn7AWE6Uk0ggkP1o9pHRj8JQlF/NeN9etmdTql9DcgfPFpR8oFzIKAYgAKhn3t723XaRkyB5ddwMinvKiIsIvnYkL0VPcdWzWSgnAH6pzLxP31Q==","69168b21477cff9ada6cb980","691bd5d46b57be1d7b1b72d3","index1","<span style='color:red'>Fail,<span style='color:red'>Fail,<span style='color:green'>Lift,<span style='color:green'>Lift,<span style='color:red'>Fail,<span style='color:red'>Fail,<span style='color:red'>Fail,<span style='color:red'>Fail,<span style='color:green'>Lift,<span style='color:red'>Fail,<span style='color:red'>Fail,<span style='color:green'>Lift","<span style='color:red'>Fail,<span style='color:red'>Fail,<span style='color:green'>Lift,<span style='color:green'>Lift,<span style='color:green'>Lift,<span style='color:green'>Lift,<span style='color:red'>Fail,<span style='color:green'>Lift,<span style='color:green'>Lift,<span style='color:green'>Lift,<span style='color:red'>Fail,<span style='color:green'>Lift","<span style='color:red'>Fail,<span style='color:green'>Lift,<span style='color:green'>Lift,<span style='color:red'>Fail,<span style='color:green'>Lift,<span style='color:green'>Lift","0,0,1,1,0,0,0,0,1,0,0,1","0,0,1,1,1,1,0,1,1,1,0,1","0,1,1,0,1,1",10,20,20,"","","","","{""Q0"":""It consists of multiple contests, each contest with three rounds."",""Q1"":""Contestants are always the same across contests."",""Q2"":""The box weight always stays the same (equivalent to strength of 5)."",""Q3"":""They will split the $20, that is $10 for each."",""Q4"":""How close my guesses are to the actual outcome.""}","[0,1,2,3,4]",NA,NA,"",NA,NA,NA,NA,NA,NA,NA,NA,NA,NA,NA,NA,NA,NA,NA,NA,NA,NA,NA,NA,NA,NA,NA,NA,NA,NA,NA,NA,NA,NA,NA,NA,NA,NA,NA,NA,NA,NA,NA,NA,"",NA,NA,NA,NA,NA,NA,NA,NA,2025-11-18 02:27:41
"1893.7999999970198","https://psyc-201.github.io/xiang2023/exp/index1.html?PROLIFIC_PID=REDACTED&STUDY_ID=69168b21477cff9ada6cb980&SESSION_ID=691bd5d46b57be1d7b1b72d3","html-button-response",9,425167,"0.0-8.0-0.0","cbQ0pKUhSj0w+D3yWYQoBGoJvJqjNI+Jo7OBjKWlRugFvqpiXqx9iYzAwURuhYngteh1ishbuW1JDNhA/O6QXlDcfMpHTUSsZkXBf3PFzoKvTNpeHaIV6pGeOIOOJ0sP9I7minTzntYjILGWUG+gFpg68cx8bs0V0QmefNo8+F684XZOWn1OGpSPELIZpE5fm+pMJ2QImio74ZAy9+Mq+ixqaECsid4eVBOvvkDJn7AWE6Uk0ggkP1o9pHRj8JQlF/NeN9etmdTql9DcgfPFpR8oFzIKAYgAKhn3t723XaRkyB5ddwMinvKiIsIvnYkL0VPcdWzWSgnAH6pzLxP31Q==","69168b21477cff9ada6cb980","691bd5d46b57be1d7b1b72d3","index1","<span style='color:red'>Fail,<span style='color:red'>Fail,<span style='color:green'>Lift,<span style='color:green'>Lift,<span style='color:red'>Fail,<span style='color:red'>Fail,<span style='color:red'>Fail,<span style='color:red'>Fail,<span style='color:green'>Lift,<span style='color:red'>Fail,<span style='color:red'>Fail,<span style='color:green'>Lift","<span style='color:red'>Fail,<span style='color:red'>Fail,<span style='color:green'>Lift,<span style='color:green'>Lift,<span style='color:green'>Lift,<span style='color:green'>Lift,<span style='color:red'>Fail,<span style='color:green'>Lift,<span style='color:green'>Lift,<span style='color:green'>Lift,<span style='color:red'>Fail,<span style='color:green'>Lift","<span style='color:red'>Fail,<span style='color:green'>Lift,<span style='color:green'>Lift,<span style='color:red'>Fail,<span style='color:green'>Lift,<span style='color:green'>Lift","0,0,1,1,0,0,0,0,1,0,0,1","0,0,1,1,1,1,0,1,1,1,0,1","0,1,1,0,1,1",10,20,20,"","","<p> Oops! You did not pass the comprehension check.</p>","","","",1,NA,"",NA,NA,NA,NA,NA,NA,NA,NA,NA,NA,NA,NA,NA,NA,NA,NA,NA,NA,NA,NA,NA,NA,NA,NA,NA,NA,NA,NA,NA,NA,NA,NA,NA,NA,NA,NA,NA,NA,NA,NA,"",NA,NA,NA,NA,NA,NA,NA,NA,2025-11-18 02:27:41
"85830.70000000298","https://psyc-201.github.io/xiang2023/exp/index1.html?PROLIFIC_PID=REDACTED&STUDY_ID=69168b21477cff9ada6cb980&SESSION_ID=691bd5d46b57be1d7b1b72d3","instructions",10,510998,"0.0-9.0-0.0","cbQ0pKUhSj0w+D3yWYQoBGoJvJqjNI+Jo7OBjKWlRugFvqpiXqx9iYzAwURuhYngteh1ishbuW1JDNhA/O6QXlDcfMpHTUSsZkXBf3PFzoKvTNpeHaIV6pGeOIOOJ0sP9I7minTzntYjILGWUG+gFpg68cx8bs0V0QmefNo8+F684XZOWn1OGpSPELIZpE5fm+pMJ2QImio74ZAy9+Mq+ixqaECsid4eVBOvvkDJn7AWE6Uk0ggkP1o9pHRj8JQlF/NeN9etmdTql9DcgfPFpR8oFzIKAYgAKhn3t723XaRkyB5ddwMinvKiIsIvnYkL0VPcdWzWSgnAH6pzLxP31Q==","69168b21477cff9ada6cb980","691bd5d46b57be1d7b1b72d3","index1","<span style='color:red'>Fail,<span style='color:red'>Fail,<span style='color:green'>Lift,<span style='color:green'>Lift,<span style='color:red'>Fail,<span style='color:red'>Fail,<span style='color:red'>Fail,<span style='color:red'>Fail,<span style='color:green'>Lift,<span style='color:red'>Fail,<span style='color:red'>Fail,<span style='color:green'>Lift","<span style='color:red'>Fail,<span style='color:red'>Fail,<span style='color:green'>Lift,<span style='color:green'>Lift,<span style='color:green'>Lift,<span style='color:green'>Lift,<span style='color:red'>Fail,<span style='color:green'>Lift,<span style='color:green'>Lift,<span style='color:green'>Lift,<span style='color:red'>Fail,<span style='color:green'>Lift","<span style='color:red'>Fail,<span style='color:green'>Lift,<span style='color:green'>Lift,<span style='color:red'>Fail,<span style='color:green'>Lift,<span style='color:green'>Lift","0,0,1,1,0,0,0,0,1,0,0,1","0,0,1,1,1,1,0,1,1,1,0,1","0,1,1,0,1,1",10,20,20,"","[{""page_index"":0,""viewing_time"":14862.09999999404},{""page_index"":1,""viewing_time"":17208.30000001192},{""page_index"":2,""viewing_time"":5163.29999999702},{""page_index"":3,""viewing_time"":8610.79999999702},{""page_index"":4,""viewing_time"":9651.59999999404},{""page_index"":5,""viewing_time"":29142.10000000894},{""page_index"":6,""viewing_time"":1192.2999999970198}]","","","","",NA,NA,"",NA,NA,NA,NA,NA,NA,NA,NA,NA,NA,NA,NA,NA,NA,NA,NA,NA,NA,NA,NA,NA,NA,NA,NA,NA,NA,NA,NA,NA,NA,NA,NA,NA,NA,NA,NA,NA,NA,NA,NA,"",NA,NA,NA,NA,NA,NA,NA,NA,2025-11-18 02:27:41
"null","https://psyc-201.github.io/xiang2023/exp/index1.html?PROLIFIC_PID=REDACTED&STUDY_ID=69168b21477cff9ada6cb980&SESSION_ID=691bd5d46b57be1d7b1b72d3","html-keyboard-response",11,512006,"0.0-9.0-1.0","cbQ0pKUhSj0w+D3yWYQoBGoJvJqjNI+Jo7OBjKWlRugFvqpiXqx9iYzAwURuhYngteh1ishbuW1JDNhA/O6QXlDcfMpHTUSsZkXBf3PFzoKvTNpeHaIV6pGeOIOOJ0sP9I7minTzntYjILGWUG+gFpg68cx8bs0V0QmefNo8+F684XZOWn1OGpSPELIZpE5fm+pMJ2QImio74ZAy9+Mq+ixqaECsid4eVBOvvkDJn7AWE6Uk0ggkP1o9pHRj8JQlF/NeN9etmdTql9DcgfPFpR8oFzIKAYgAKhn3t723XaRkyB5ddwMinvKiIsIvnYkL0VPcdWzWSgnAH6pzLxP31Q==","69168b21477cff9ada6cb980","691bd5d46b57be1d7b1b72d3","index1","<span style='color:red'>Fail,<span style='color:red'>Fail,<span style='color:green'>Lift,<span style='color:green'>Lift,<span style='color:red'>Fail,<span style='color:red'>Fail,<span style='color:red'>Fail,<span style='color:red'>Fail,<span style='color:green'>Lift,<span style='color:red'>Fail,<span style='color:red'>Fail,<span style='color:green'>Lift","<span style='color:red'>Fail,<span style='color:red'>Fail,<span style='color:green'>Lift,<span style='color:green'>Lift,<span style='color:green'>Lift,<span style='color:green'>Lift,<span style='color:red'>Fail,<span style='color:green'>Lift,<span style='color:green'>Lift,<span style='color:green'>Lift,<span style='color:red'>Fail,<span style='color:green'>Lift","<span style='color:red'>Fail,<span style='color:green'>Lift,<span style='color:green'>Lift,<span style='color:red'>Fail,<span style='color:green'>Lift,<span style='color:green'>Lift","0,0,1,1,0,0,0,0,1,0,0,1","0,0,1,1,1,1,0,1,1,1,0,1","0,1,1,0,1,1",10,20,20,"",""," ","null","","",NA,NA,"",NA,NA,NA,NA,NA,NA,NA,NA,NA,NA,NA,NA,NA,NA,NA,NA,NA,NA,NA,NA,NA,NA,NA,NA,NA,NA,NA,NA,NA,NA,NA,NA,NA,NA,NA,NA,NA,NA,NA,NA,"",NA,NA,NA,NA,NA,NA,NA,NA,2025-11-18 02:27:41
"31530.90000000596","https://psyc-201.github.io/xiang2023/exp/index1.html?PROLIFIC_PID=REDACTED&STUDY_ID=69168b21477cff9ada6cb980&SESSION_ID=691bd5d46b57be1d7b1b72d3","survey-multi-choice",12,543538,"0.0-10.0-0.0","cbQ0pKUhSj0w+D3yWYQoBGoJvJqjNI+Jo7OBjKWlRugFvqpiXqx9iYzAwURuhYngteh1ishbuW1JDNhA/O6QXlDcfMpHTUSsZkXBf3PFzoKvTNpeHaIV6pGeOIOOJ0sP9I7minTzntYjILGWUG+gFpg68cx8bs0V0QmefNo8+F684XZOWn1OGpSPELIZpE5fm+pMJ2QImio74ZAy9+Mq+ixqaECsid4eVBOvvkDJn7AWE6Uk0ggkP1o9pHRj8JQlF/NeN9etmdTql9DcgfPFpR8oFzIKAYgAKhn3t723XaRkyB5ddwMinvKiIsIvnYkL0VPcdWzWSgnAH6pzLxP31Q==","69168b21477cff9ada6cb980","691bd5d46b57be1d7b1b72d3","index1","<span style='color:red'>Fail,<span style='color:red'>Fail,<span style='color:green'>Lift,<span style='color:green'>Lift,<span style='color:red'>Fail,<span style='color:red'>Fail,<span style='color:red'>Fail,<span style='color:red'>Fail,<span style='color:green'>Lift,<span style='color:red'>Fail,<span style='color:red'>Fail,<span style='color:green'>Lift","<span style='color:red'>Fail,<span style='color:red'>Fail,<span style='color:green'>Lift,<span style='color:green'>Lift,<span style='color:green'>Lift,<span style='color:green'>Lift,<span style='color:red'>Fail,<span style='color:green'>Lift,<span style='color:green'>Lift,<span style='color:green'>Lift,<span style='color:red'>Fail,<span style='color:green'>Lift","<span style='color:red'>Fail,<span style='color:green'>Lift,<span style='color:green'>Lift,<span style='color:red'>Fail,<span style='color:green'>Lift,<span style='color:green'>Lift","0,0,1,1,0,0,0,0,1,0,0,1","0,0,1,1,1,1,0,1,1,1,0,1","0,1,1,0,1,1",10,20,20,"","","","","{""Q0"":""It consists of multiple contests, each contest with three rounds."",""Q1"":""When a new contest begins."",""Q2"":""The box weight always stays the same (equivalent to strength of 5)."",""Q3"":""Each will get $20."",""Q4"":""How close my guesses are to the actual outcome.""}","[0,1,2,3,4]",NA,NA,"",NA,NA,NA,NA,NA,NA,NA,NA,NA,NA,NA,NA,NA,NA,NA,NA,NA,NA,NA,NA,NA,NA,NA,NA,NA,NA,NA,NA,NA,NA,NA,NA,NA,NA,NA,NA,NA,NA,NA,NA,"",NA,NA,NA,NA,NA,NA,NA,NA,2025-11-18 02:27:41
"11892","https://psyc-201.github.io/xiang2023/exp/index1.html?PROLIFIC_PID=REDACTED&STUDY_ID=69168b21477cff9ada6cb980&SESSION_ID=691bd5d46b57be1d7b1b72d3","instructions",13,555434,"0.0-305.0","cbQ0pKUhSj0w+D3yWYQoBGoJvJqjNI+Jo7OBjKWlRugFvqpiXqx9iYzAwURuhYngteh1ishbuW1JDNhA/O6QXlDcfMpHTUSsZkXBf3PFzoKvTNpeHaIV6pGeOIOOJ0sP9I7minTzntYjILGWUG+gFpg68cx8bs0V0QmefNo8+F684XZOWn1OGpSPELIZpE5fm+pMJ2QImio74ZAy9+Mq+ixqaECsid4eVBOvvkDJn7AWE6Uk0ggkP1o9pHRj8JQlF/NeN9etmdTql9DcgfPFpR8oFzIKAYgAKhn3t723XaRkyB5ddwMinvKiIsIvnYkL0VPcdWzWSgnAH6pzLxP31Q==","69168b21477cff9ada6cb980","691bd5d46b57be1d7b1b72d3","index1","<span style='color:red'>Fail,<span style='color:red'>Fail,<span style='color:green'>Lift,<span style='color:green'>Lift,<span style='color:red'>Fail,<span style='color:red'>Fail,<span style='color:red'>Fail,<span style='color:red'>Fail,<span style='color:green'>Lift,<span style='color:red'>Fail,<span style='color:red'>Fail,<span style='color:green'>Lift","<span style='color:red'>Fail,<span style='color:red'>Fail,<span style='color:green'>Lift,<span style='color:green'>Lift,<span style='color:green'>Lift,<span style='color:green'>Lift,<span style='color:red'>Fail,<span style='color:green'>Lift,<span style='color:green'>Lift,<span style='color:green'>Lift,<span style='color:red'>Fail,<span style='color:green'>Lift","<span style='color:red'>Fail,<span style='color:green'>Lift,<span style='color:green'>Lift,<span style='color:red'>Fail,<span style='color:green'>Lift,<span style='color:green'>Lift","0,0,1,1,0,0,0,0,1,0,0,1","0,0,1,1,1,1,0,1,1,1,0,1","0,1,1,0,1,1",10,20,20,"","[{""page_index"":0,""viewing_time"":7834.70000000298},{""page_index"":1,""viewing_time"":4057.199999988079}]","","","","",NA,NA,"",NA,NA,NA,NA,NA,NA,NA,NA,NA,NA,NA,NA,NA,NA,NA,NA,NA,NA,NA,NA,NA,NA,NA,NA,NA,NA,NA,NA,NA,NA,NA,NA,NA,NA,NA,NA,NA,NA,NA,NA,"",NA,NA,NA,NA,NA,NA,NA,NA,2025-11-18 02:27:41
"null","https://psyc-201.github.io/xiang2023/exp/index1.html?PROLIFIC_PID=REDACTED&STUDY_ID=69168b21477cff9ada6cb980&SESSION_ID=691bd5d46b57be1d7b1b72d3","html-keyboard-response",14,556443,"0.0-306.0","cbQ0pKUhSj0w+D3yWYQoBGoJvJqjNI+Jo7OBjKWlRugFvqpiXqx9iYzAwURuhYngteh1ishbuW1JDNhA/O6QXlDcfMpHTUSsZkXBf3PFzoKvTNpeHaIV6pGeOIOOJ0sP9I7minTzntYjILGWUG+gFpg68cx8bs0V0QmefNo8+F684XZOWn1OGpSPELIZpE5fm+pMJ2QImio74ZAy9+Mq+ixqaECsid4eVBOvvkDJn7AWE6Uk0ggkP1o9pHRj8JQlF/NeN9etmdTql9DcgfPFpR8oFzIKAYgAKhn3t723XaRkyB5ddwMinvKiIsIvnYkL0VPcdWzWSgnAH6pzLxP31Q==","69168b21477cff9ada6cb980","691bd5d46b57be1d7b1b72d3","index1","<span style='color:red'>Fail,<span style='color:red'>Fail,<span style='color:green'>Lift,<span style='color:green'>Lift,<span style='color:red'>Fail,<span style='color:red'>Fail,<span style='color:red'>Fail,<span style='color:red'>Fail,<span style='color:green'>Lift,<span style='color:red'>Fail,<span style='color:red'>Fail,<span style='color:green'>Lift","<span style='color:red'>Fail,<span style='color:red'>Fail,<span style='color:green'>Lift,<span style='color:green'>Lift,<span style='color:green'>Lift,<span style='color:green'>Lift,<span style='color:red'>Fail,<span style='color:green'>Lift,<span style='color:green'>Lift,<span style='color:green'>Lift,<span style='color:red'>Fail,<span style='color:green'>Lift","<span style='color:red'>Fail,<span style='color:green'>Lift,<span style='color:green'>Lift,<span style='color:red'>Fail,<span style='color:green'>Lift,<span style='color:green'>Lift","0,0,1,1,0,0,0,0,1,0,0,1","0,0,1,1,1,1,0,1,1,1,0,1","0,1,1,0,1,1",10,20,20,"",""," ","null","","",NA,1,"",NA,NA,NA,NA,NA,NA,NA,NA,NA,NA,NA,NA,NA,NA,NA,NA,NA,NA,NA,NA,NA,NA,NA,NA,NA,NA,NA,NA,NA,NA,NA,NA,NA,NA,NA,NA,NA,NA,NA,NA,"",NA,NA,NA,NA,NA,NA,NA,NA,2025-11-18 02:27:41
"null","https://psyc-201.github.io/xiang2023/exp/index1.html?PROLIFIC_PID=REDACTED&STUDY_ID=69168b21477cff9ada6cb980&SESSION_ID=691bd5d46b57be1d7b1b72d3","html-keyboard-response",15,559452,"0.0-307.0","cbQ0pKUhSj0w+D3yWYQoBGoJvJqjNI+Jo7OBjKWlRugFvqpiXqx9iYzAwURuhYngteh1ishbuW1JDNhA/O6QXlDcfMpHTUSsZkXBf3PFzoKvTNpeHaIV6pGeOIOOJ0sP9I7minTzntYjILGWUG+gFpg68cx8bs0V0QmefNo8+F684XZOWn1OGpSPELIZpE5fm+pMJ2QImio74ZAy9+Mq+ixqaECsid4eVBOvvkDJn7AWE6Uk0ggkP1o9pHRj8JQlF/NeN9etmdTql9DcgfPFpR8oFzIKAYgAKhn3t723XaRkyB5ddwMinvKiIsIvnYkL0VPcdWzWSgnAH6pzLxP31Q==","69168b21477cff9ada6cb980","691bd5d46b57be1d7b1b72d3","index1","<span style='color:red'>Fail,<span style='color:red'>Fail,<span style='color:green'>Lift,<span style='color:green'>Lift,<span style='color:red'>Fail,<span style='color:red'>Fail,<span style='color:red'>Fail,<span style='color:red'>Fail,<span style='color:green'>Lift,<span style='color:red'>Fail,<span style='color:red'>Fail,<span style='color:green'>Lift","<span style='color:red'>Fail,<span style='color:red'>Fail,<span style='color:green'>Lift,<span style='color:green'>Lift,<span style='color:green'>Lift,<span style='color:green'>Lift,<span style='color:red'>Fail,<span style='color:green'>Lift,<span style='color:green'>Lift,<span style='color:green'>Lift,<span style='color:red'>Fail,<span style='color:green'>Lift","<span style='color:red'>Fail,<span style='color:green'>Lift,<span style='color:green'>Lift,<span style='color:red'>Fail,<span style='color:green'>Lift,<span style='color:green'>Lift","0,0,1,1,0,0,0,0,1,0,0,1","0,0,1,1,1,1,0,1,1,1,0,1","0,1,1,0,1,1",10,20,20,"","","<p style='font-size:30px'><b> New Contest! </b></p>","null","","",NA,1,"",NA,NA,NA,NA,NA,NA,NA,NA,NA,NA,NA,NA,NA,NA,NA,NA,NA,NA,NA,NA,NA,NA,NA,NA,NA,NA,NA,NA,NA,NA,NA,NA,NA,NA,NA,NA,NA,NA,NA,NA,"",NA,NA,NA,NA,NA,NA,NA,NA,2025-11-18 02:27:41
"13802.89999999106","https://psyc-201.github.io/xiang2023/exp/index1.html?PROLIFIC_PID=REDACTED&STUDY_ID=69168b21477cff9ada6cb980&SESSION_ID=691bd5d46b57be1d7b1b72d3","survey-html-form",16,573257,"0.0-308.0","cbQ0pKUhSj0w+D3yWYQoBGoJvJqjNI+Jo7OBjKWlRugFvqpiXqx9iYzAwURuhYngteh1ishbuW1JDNhA/O6QXlDcfMpHTUSsZkXBf3PFzoKvTNpeHaIV6pGeOIOOJ0sP9I7minTzntYjILGWUG+gFpg68cx8bs0V0QmefNo8+F684XZOWn1OGpSPELIZpE5fm+pMJ2QImio74ZAy9+Mq+ixqaECsid4eVBOvvkDJn7AWE6Uk0ggkP1o9pHRj8JQlF/NeN9etmdTql9DcgfPFpR8oFzIKAYgAKhn3t723XaRkyB5ddwMinvKiIsIvnYkL0VPcdWzWSgnAH6pzLxP31Q==","69168b21477cff9ada6cb980","691bd5d46b57be1d7b1b72d3","index1","<span style='color:red'>Fail,<span style='color:red'>Fail,<span style='color:green'>Lift,<span style='color:green'>Lift,<span style='color:red'>Fail,<span style='color:red'>Fail,<span style='color:red'>Fail,<span style='color:red'>Fail,<span style='color:green'>Lift,<span style='color:red'>Fail,<span style='color:red'>Fail,<span style='color:green'>Lift","<span style='color:red'>Fail,<span style='color:red'>Fail,<span style='color:green'>Lift,<span style='color:green'>Lift,<span style='color:green'>Lift,<span style='color:green'>Lift,<span style='color:red'>Fail,<span style='color:green'>Lift,<span style='color:green'>Lift,<span style='color:green'>Lift,<span style='color:red'>Fail,<span style='color:green'>Lift","<span style='color:red'>Fail,<span style='color:green'>Lift,<span style='color:green'>Lift,<span style='color:red'>Fail,<span style='color:green'>Lift,<span style='color:green'>Lift","0,0,1,1,0,0,0,0,1,0,0,1","0,0,1,1,1,1,0,1,1,1,0,1","0,1,1,0,1,1",10,20,20,"","","","","{""box1"":""9"",""box2"":""2"",""box3"":""50""}","",NA,1,"round1_outcome",1,1,1,9,2,50,NA,1,0,10,9,2,50,NA,1,0,10,NA,NA,NA,NA,NA,NA,NA,NA,NA,NA,NA,NA,NA,NA,NA,NA,NA,NA,NA,NA,NA,NA,NA,"",NA,NA,NA,NA,NA,NA,NA,NA,2025-11-18 02:27:41
"13330.29999999702","https://psyc-201.github.io/xiang2023/exp/index1.html?PROLIFIC_PID=REDACTED&STUDY_ID=69168b21477cff9ada6cb980&SESSION_ID=691bd5d46b57be1d7b1b72d3","survey-html-form",17,586589,"0.0-309.0","cbQ0pKUhSj0w+D3yWYQoBGoJvJqjNI+Jo7OBjKWlRugFvqpiXqx9iYzAwURuhYngteh1ishbuW1JDNhA/O6QXlDcfMpHTUSsZkXBf3PFzoKvTNpeHaIV6pGeOIOOJ0sP9I7minTzntYjILGWUG+gFpg68cx8bs0V0QmefNo8+F684XZOWn1OGpSPELIZpE5fm+pMJ2QImio74ZAy9+Mq+ixqaECsid4eVBOvvkDJn7AWE6Uk0ggkP1o9pHRj8JQlF/NeN9etmdTql9DcgfPFpR8oFzIKAYgAKhn3t723XaRkyB5ddwMinvKiIsIvnYkL0VPcdWzWSgnAH6pzLxP31Q==","69168b21477cff9ada6cb980","691bd5d46b57be1d7b1b72d3","index1","<span style='color:red'>Fail,<span style='color:red'>Fail,<span style='color:green'>Lift,<span style='color:green'>Lift,<span style='color:red'>Fail,<span style='color:red'>Fail,<span style='color:red'>Fail,<span style='color:red'>Fail,<span style='color:green'>Lift,<span style='color:red'>Fail,<span style='color:red'>Fail,<span style='color:green'>Lift","<span style='color:red'>Fail,<span style='color:red'>Fail,<span style='color:green'>Lift,<span style='color:green'>Lift,<span style='color:green'>Lift,<span style='color:green'>Lift,<span style='color:red'>Fail,<span style='color:green'>Lift,<span style='color:green'>Lift,<span style='color:green'>Lift,<span style='color:red'>Fail,<span style='color:green'>Lift","<span style='color:red'>Fail,<span style='color:green'>Lift,<span style='color:green'>Lift,<span style='color:red'>Fail,<span style='color:green'>Lift,<span style='color:green'>Lift","0,0,1,1,0,0,0,0,1,0,0,1","0,0,1,1,1,1,0,1,1,1,0,1","0,1,1,0,1,1",10,20,20,"","","","","{""box1"":""50"",""box2"":""50""}","",NA,1,"round2_ready",2,1,2,NA,NA,NA,NA,NA,NA,NA,NA,NA,NA,NA,NA,NA,NA,50,50,50,50,NA,NA,NA,NA,NA,NA,NA,NA,NA,NA,NA,NA,NA,NA,NA,NA,NA,NA,NA,"",NA,NA,NA,NA,NA,NA,NA,NA,2025-11-18 02:27:41
"16125.39999999106","https://psyc-201.github.io/xiang2023/exp/index1.html?PROLIFIC_PID=REDACTED&STUDY_ID=69168b21477cff9ada6cb980&SESSION_ID=691bd5d46b57be1d7b1b72d3","survey-html-form",18,602716,"0.0-310.0","cbQ0pKUhSj0w+D3yWYQoBGoJvJqjNI+Jo7OBjKWlRugFvqpiXqx9iYzAwURuhYngteh1ishbuW1JDNhA/O6QXlDcfMpHTUSsZkXBf3PFzoKvTNpeHaIV6pGeOIOOJ0sP9I7minTzntYjILGWUG+gFpg68cx8bs0V0QmefNo8+F684XZOWn1OGpSPELIZpE5fm+pMJ2QImio74ZAy9+Mq+ixqaECsid4eVBOvvkDJn7AWE6Uk0ggkP1o9pHRj8JQlF/NeN9etmdTql9DcgfPFpR8oFzIKAYgAKhn3t723XaRkyB5ddwMinvKiIsIvnYkL0VPcdWzWSgnAH6pzLxP31Q==","69168b21477cff9ada6cb980","691bd5d46b57be1d7b1b72d3","index1","<span style='color:red'>Fail,<span style='color:red'>Fail,<span style='color:green'>Lift,<span style='color:green'>Lift,<span style='color:red'>Fail,<span style='color:red'>Fail,<span style='color:red'>Fail,<span style='color:red'>Fail,<span style='color:green'>Lift,<span style='color:red'>Fail,<span style='color:red'>Fail,<span style='color:green'>Lift","<span style='color:red'>Fail,<span style='color:red'>Fail,<span style='color:green'>Lift,<span style='color:green'>Lift,<span style='color:green'>Lift,<span style='color:green'>Lift,<span style='color:red'>Fail,<span style='color:green'>Lift,<span style='color:green'>Lift,<span style='color:green'>Lift,<span style='color:red'>Fail,<span style='color:green'>Lift","<span style='color:red'>Fail,<span style='color:green'>Lift,<span style='color:green'>Lift,<span style='color:red'>Fail,<span style='color:green'>Lift,<span style='color:green'>Lift","0,0,1,1,0,0,0,0,1,0,0,1","0,0,1,1,1,1,0,1,1,1,0,1","0,1,1,0,1,1",10,20,20,"","","","","{""box1"":""7"",""box2"":""7"",""box3"":""60"",""box4"":""60""}","",NA,1,"round2_outcome",3,1,2,7,7,60,60,1,1,20,NA,NA,NA,NA,NA,NA,NA,NA,NA,NA,NA,7,7,60,60,1,1,20,NA,NA,NA,NA,NA,NA,NA,NA,NA,NA,NA,NA,"",NA,NA,NA,NA,NA,NA,NA,NA,2025-11-18 02:27:41
"22841.70000000298","https://psyc-201.github.io/xiang2023/exp/index1.html?PROLIFIC_PID=REDACTED&STUDY_ID=69168b21477cff9ada6cb980&SESSION_ID=691bd5d46b57be1d7b1b72d3","survey-html-form",19,625560,"0.0-311.0","cbQ0pKUhSj0w+D3yWYQoBGoJvJqjNI+Jo7OBjKWlRugFvqpiXqx9iYzAwURuhYngteh1ishbuW1JDNhA/O6QXlDcfMpHTUSsZkXBf3PFzoKvTNpeHaIV6pGeOIOOJ0sP9I7minTzntYjILGWUG+gFpg68cx8bs0V0QmefNo8+F684XZOWn1OGpSPELIZpE5fm+pMJ2QImio74ZAy9+Mq+ixqaECsid4eVBOvvkDJn7AWE6Uk0ggkP1o9pHRj8JQlF/NeN9etmdTql9DcgfPFpR8oFzIKAYgAKhn3t723XaRkyB5ddwMinvKiIsIvnYkL0VPcdWzWSgnAH6pzLxP31Q==","69168b21477cff9ada6cb980","691bd5d46b57be1d7b1b72d3","index1","<span style='color:red'>Fail,<span style='color:red'>Fail,<span style='color:green'>Lift,<span style='color:green'>Lift,<span style='color:red'>Fail,<span style='color:red'>Fail,<span style='color:red'>Fail,<span style='color:red'>Fail,<span style='color:green'>Lift,<span style='color:red'>Fail,<span style='color:red'>Fail,<span style='color:green'>Lift","<span style='color:red'>Fail,<span style='color:red'>Fail,<span style='color:green'>Lift,<span style='color:green'>Lift,<span style='color:green'>Lift,<span style='color:green'>Lift,<span style='color:red'>Fail,<span style='color:green'>Lift,<span style='color:green'>Lift,<span style='color:green'>Lift,<span style='color:red'>Fail,<span style='color:green'>Lift","<span style='color:red'>Fail,<span style='color:green'>Lift,<span style='color:green'>Lift,<span style='color:red'>Fail,<span style='color:green'>Lift,<span style='color:green'>Lift","0,0,1,1,0,0,0,0,1,0,0,1","0,0,1,1,1,1,0,1,1,1,0,1","0,1,1,0,1,1",10,20,20,"","","","","{""box1"":""50""}","",NA,1,"round3_ready",4,1,3,NA,NA,NA,NA,NA,NA,NA,NA,NA,NA,NA,NA,NA,NA,50,50,NA,NA,NA,NA,NA,NA,NA,NA,NA,50,50,NA,NA,NA,NA,NA,NA,NA,NA,NA,NA,"",NA,NA,NA,NA,NA,NA,NA,NA,2025-11-18 02:27:41
"15800.79999999702","https://psyc-201.github.io/xiang2023/exp/index1.html?PROLIFIC_PID=REDACTED&STUDY_ID=69168b21477cff9ada6cb980&SESSION_ID=691bd5d46b57be1d7b1b72d3","survey-html-form",20,641363,"0.0-312.0-0.0","cbQ0pKUhSj0w+D3yWYQoBGoJvJqjNI+Jo7OBjKWlRugFvqpiXqx9iYzAwURuhYngteh1ishbuW1JDNhA/O6QXlDcfMpHTUSsZkXBf3PFzoKvTNpeHaIV6pGeOIOOJ0sP9I7minTzntYjILGWUG+gFpg68cx8bs0V0QmefNo8+F684XZOWn1OGpSPELIZpE5fm+pMJ2QImio74ZAy9+Mq+ixqaECsid4eVBOvvkDJn7AWE6Uk0ggkP1o9pHRj8JQlF/NeN9etmdTql9DcgfPFpR8oFzIKAYgAKhn3t723XaRkyB5ddwMinvKiIsIvnYkL0VPcdWzWSgnAH6pzLxP31Q==","69168b21477cff9ada6cb980","691bd5d46b57be1d7b1b72d3","index1","<span style='color:red'>Fail,<span style='color:red'>Fail,<span style='color:green'>Lift,<span style='color:green'>Lift,<span style='color:red'>Fail,<span style='color:red'>Fail,<span style='color:red'>Fail,<span style='color:red'>Fail,<span style='color:green'>Lift,<span style='color:red'>Fail,<span style='color:red'>Fail,<span style='color:green'>Lift","<span style='color:red'>Fail,<span style='color:red'>Fail,<span style='color:green'>Lift,<span style='color:green'>Lift,<span style='color:green'>Lift,<span style='color:green'>Lift,<span style='color:red'>Fail,<span style='color:green'>Lift,<span style='color:green'>Lift,<span style='color:green'>Lift,<span style='color:red'>Fail,<span style='color:green'>Lift","<span style='color:red'>Fail,<span style='color:green'>Lift,<span style='color:green'>Lift,<span style='color:red'>Fail,<span style='color:green'>Lift,<span style='color:green'>Lift","0,0,1,1,0,0,0,0,1,0,0,1","0,0,1,1,1,1,0,1,1,1,0,1","0,1,1,0,1,1",10,20,20,"","","","","{""box1"":""6"",""box2"":""6"",""box3"":""60"",""box4"":""60""}","",NA,2,"round3_lift",5,1,3,6,6,60,60,1,1,20,NA,NA,NA,NA,NA,NA,NA,NA,NA,NA,NA,NA,NA,NA,NA,NA,NA,NA,NA,NA,6,6,60,60,1,1,20,NA,NA,NA,"",NA,NA,NA,NA,NA,NA,NA,NA,2025-11-18 02:27:41
"null","https://psyc-201.github.io/xiang2023/exp/index1.html?PROLIFIC_PID=REDACTED&STUDY_ID=69168b21477cff9ada6cb980&SESSION_ID=691bd5d46b57be1d7b1b72d3","html-keyboard-response",21,644369,"0.0-316.0","cbQ0pKUhSj0w+D3yWYQoBGoJvJqjNI+Jo7OBjKWlRugFvqpiXqx9iYzAwURuhYngteh1ishbuW1JDNhA/O6QXlDcfMpHTUSsZkXBf3PFzoKvTNpeHaIV6pGeOIOOJ0sP9I7minTzntYjILGWUG+gFpg68cx8bs0V0QmefNo8+F684XZOWn1OGpSPELIZpE5fm+pMJ2QImio74ZAy9+Mq+ixqaECsid4eVBOvvkDJn7AWE6Uk0ggkP1o9pHRj8JQlF/NeN9etmdTql9DcgfPFpR8oFzIKAYgAKhn3t723XaRkyB5ddwMinvKiIsIvnYkL0VPcdWzWSgnAH6pzLxP31Q==","69168b21477cff9ada6cb980","691bd5d46b57be1d7b1b72d3","index1","<span style='color:red'>Fail,<span style='color:red'>Fail,<span style='color:green'>Lift,<span style='color:green'>Lift,<span style='color:red'>Fail,<span style='color:red'>Fail,<span style='color:red'>Fail,<span style='color:red'>Fail,<span style='color:green'>Lift,<span style='color:red'>Fail,<span style='color:red'>Fail,<span style='color:green'>Lift","<span style='color:red'>Fail,<span style='color:red'>Fail,<span style='color:green'>Lift,<span style='color:green'>Lift,<span style='color:green'>Lift,<span style='color:green'>Lift,<span style='color:red'>Fail,<span style='color:green'>Lift,<span style='color:green'>Lift,<span style='color:green'>Lift,<span style='color:red'>Fail,<span style='color:green'>Lift","<span style='color:red'>Fail,<span style='color:green'>Lift,<span style='color:green'>Lift,<span style='color:red'>Fail,<span style='color:green'>Lift,<span style='color:green'>Lift","0,0,1,1,0,0,0,0,1,0,0,1","0,0,1,1,1,1,0,1,1,1,0,1","0,1,1,0,1,1",10,20,20,"","","<p style='font-size:30px'><b> New Contest! </b></p>","null","","",NA,2,"",NA,NA,NA,NA,NA,NA,NA,NA,NA,NA,NA,NA,NA,NA,NA,NA,NA,NA,NA,NA,NA,NA,NA,NA,NA,NA,NA,NA,NA,NA,NA,NA,NA,NA,NA,NA,NA,NA,NA,NA,"",NA,NA,NA,NA,NA,NA,NA,NA,2025-11-18 02:27:41
"5026.4000000059605","https://psyc-201.github.io/xiang2023/exp/index1.html?PROLIFIC_PID=REDACTED&STUDY_ID=69168b21477cff9ada6cb980&SESSION_ID=691bd5d46b57be1d7b1b72d3","survey-html-form",22,649397,"0.0-317.0","cbQ0pKUhSj0w+D3yWYQoBGoJvJqjNI+Jo7OBjKWlRugFvqpiXqx9iYzAwURuhYngteh1ishbuW1JDNhA/O6QXlDcfMpHTUSsZkXBf3PFzoKvTNpeHaIV6pGeOIOOJ0sP9I7minTzntYjILGWUG+gFpg68cx8bs0V0QmefNo8+F684XZOWn1OGpSPELIZpE5fm+pMJ2QImio74ZAy9+Mq+ixqaECsid4eVBOvvkDJn7AWE6Uk0ggkP1o9pHRj8JQlF/NeN9etmdTql9DcgfPFpR8oFzIKAYgAKhn3t723XaRkyB5ddwMinvKiIsIvnYkL0VPcdWzWSgnAH6pzLxP31Q==","69168b21477cff9ada6cb980","691bd5d46b57be1d7b1b72d3","index1","<span style='color:red'>Fail,<span style='color:red'>Fail,<span style='color:green'>Lift,<span style='color:green'>Lift,<span style='color:red'>Fail,<span style='color:red'>Fail,<span style='color:red'>Fail,<span style='color:red'>Fail,<span style='color:green'>Lift,<span style='color:red'>Fail,<span style='color:red'>Fail,<span style='color:green'>Lift","<span style='color:red'>Fail,<span style='color:red'>Fail,<span style='color:green'>Lift,<span style='color:green'>Lift,<span style='color:green'>Lift,<span style='color:green'>Lift,<span style='color:red'>Fail,<span style='color:green'>Lift,<span style='color:green'>Lift,<span style='color:green'>Lift,<span style='color:red'>Fail,<span style='color:green'>Lift","<span style='color:red'>Fail,<span style='color:green'>Lift,<span style='color:green'>Lift,<span style='color:red'>Fail,<span style='color:green'>Lift,<span style='color:green'>Lift","0,0,1,1,0,0,0,0,1,0,0,1","0,0,1,1,1,1,0,1,1,1,0,1","0,1,1,0,1,1",10,20,20,"","","","","{""box1"":""3"",""box2"":""3""}","",NA,2,"round1_outcome",1,2,1,3,3,NA,NA,0,0,10,3,3,NA,NA,0,0,10,NA,NA,NA,NA,NA,NA,NA,NA,NA,NA,NA,NA,NA,NA,NA,NA,NA,NA,NA,NA,NA,NA,NA,"",NA,NA,NA,NA,NA,NA,NA,NA,2025-11-18 02:27:41
"4199.399999991059","https://psyc-201.github.io/xiang2023/exp/index1.html?PROLIFIC_PID=REDACTED&STUDY_ID=69168b21477cff9ada6cb980&SESSION_ID=691bd5d46b57be1d7b1b72d3","survey-html-form",23,653597,"0.0-318.0","cbQ0pKUhSj0w+D3yWYQoBGoJvJqjNI+Jo7OBjKWlRugFvqpiXqx9iYzAwURuhYngteh1ishbuW1JDNhA/O6QXlDcfMpHTUSsZkXBf3PFzoKvTNpeHaIV6pGeOIOOJ0sP9I7minTzntYjILGWUG+gFpg68cx8bs0V0QmefNo8+F684XZOWn1OGpSPELIZpE5fm+pMJ2QImio74ZAy9+Mq+ixqaECsid4eVBOvvkDJn7AWE6Uk0ggkP1o9pHRj8JQlF/NeN9etmdTql9DcgfPFpR8oFzIKAYgAKhn3t723XaRkyB5ddwMinvKiIsIvnYkL0VPcdWzWSgnAH6pzLxP31Q==","69168b21477cff9ada6cb980","691bd5d46b57be1d7b1b72d3","index1","<span style='color:red'>Fail,<span style='color:red'>Fail,<span style='color:green'>Lift,<span style='color:green'>Lift,<span style='color:red'>Fail,<span style='color:red'>Fail,<span style='color:red'>Fail,<span style='color:red'>Fail,<span style='color:green'>Lift,<span style='color:red'>Fail,<span style='color:red'>Fail,<span style='color:green'>Lift","<span style='color:red'>Fail,<span style='color:red'>Fail,<span style='color:green'>Lift,<span style='color:green'>Lift,<span style='color:green'>Lift,<span style='color:green'>Lift,<span style='color:red'>Fail,<span style='color:green'>Lift,<span style='color:green'>Lift,<span style='color:green'>Lift,<span style='color:red'>Fail,<span style='color:green'>Lift","<span style='color:red'>Fail,<span style='color:green'>Lift,<span style='color:green'>Lift,<span style='color:red'>Fail,<span style='color:green'>Lift,<span style='color:green'>Lift","0,0,1,1,0,0,0,0,1,0,0,1","0,0,1,1,1,1,0,1,1,1,0,1","0,1,1,0,1,1",10,20,20,"","","","","{""box1"":""50"",""box2"":""50""}","",NA,2,"round2_ready",2,2,2,NA,NA,NA,NA,NA,NA,NA,NA,NA,NA,NA,NA,NA,NA,50,50,50,50,NA,NA,NA,NA,NA,NA,NA,NA,NA,NA,NA,NA,NA,NA,NA,NA,NA,NA,NA,"",NA,NA,NA,NA,NA,NA,NA,NA,2025-11-18 02:27:41
"10174.10000000894","https://psyc-201.github.io/xiang2023/exp/index1.html?PROLIFIC_PID=REDACTED&STUDY_ID=69168b21477cff9ada6cb980&SESSION_ID=691bd5d46b57be1d7b1b72d3","survey-html-form",24,663773,"0.0-319.0","cbQ0pKUhSj0w+D3yWYQoBGoJvJqjNI+Jo7OBjKWlRugFvqpiXqx9iYzAwURuhYngteh1ishbuW1JDNhA/O6QXlDcfMpHTUSsZkXBf3PFzoKvTNpeHaIV6pGeOIOOJ0sP9I7minTzntYjILGWUG+gFpg68cx8bs0V0QmefNo8+F684XZOWn1OGpSPELIZpE5fm+pMJ2QImio74ZAy9+Mq+ixqaECsid4eVBOvvkDJn7AWE6Uk0ggkP1o9pHRj8JQlF/NeN9etmdTql9DcgfPFpR8oFzIKAYgAKhn3t723XaRkyB5ddwMinvKiIsIvnYkL0VPcdWzWSgnAH6pzLxP31Q==","69168b21477cff9ada6cb980","691bd5d46b57be1d7b1b72d3","index1","<span style='color:red'>Fail,<span style='color:red'>Fail,<span style='color:green'>Lift,<span style='color:green'>Lift,<span style='color:red'>Fail,<span style='color:red'>Fail,<span style='color:red'>Fail,<span style='color:red'>Fail,<span style='color:green'>Lift,<span style='color:red'>Fail,<span style='color:red'>Fail,<span style='color:green'>Lift","<span style='color:red'>Fail,<span style='color:red'>Fail,<span style='color:green'>Lift,<span style='color:green'>Lift,<span style='color:green'>Lift,<span style='color:green'>Lift,<span style='color:red'>Fail,<span style='color:green'>Lift,<span style='color:green'>Lift,<span style='color:green'>Lift,<span style='color:red'>Fail,<span style='color:green'>Lift","<span style='color:red'>Fail,<span style='color:green'>Lift,<span style='color:green'>Lift,<span style='color:red'>Fail,<span style='color:green'>Lift,<span style='color:green'>Lift","0,0,1,1,0,0,0,0,1,0,0,1","0,0,1,1,1,1,0,1,1,1,0,1","0,1,1,0,1,1",10,20,20,"","","","","{""box1"":""5"",""box2"":""8"",""box4"":""88""}","",NA,2,"round2_outcome",3,2,2,5,8,NA,88,0,1,20,NA,NA,NA,NA,NA,NA,NA,NA,NA,NA,NA,5,8,NA,88,0,1,20,NA,NA,NA,NA,NA,NA,NA,NA,NA,NA,NA,NA,"",NA,NA,NA,NA,NA,NA,NA,NA,2025-11-18 02:27:41
"5807.4000000059605","https://psyc-201.github.io/xiang2023/exp/index1.html?PROLIFIC_PID=REDACTED&STUDY_ID=69168b21477cff9ada6cb980&SESSION_ID=691bd5d46b57be1d7b1b72d3","survey-html-form",25,669582,"0.0-320.0","cbQ0pKUhSj0w+D3yWYQoBGoJvJqjNI+Jo7OBjKWlRugFvqpiXqx9iYzAwURuhYngteh1ishbuW1JDNhA/O6QXlDcfMpHTUSsZkXBf3PFzoKvTNpeHaIV6pGeOIOOJ0sP9I7minTzntYjILGWUG+gFpg68cx8bs0V0QmefNo8+F684XZOWn1OGpSPELIZpE5fm+pMJ2QImio74ZAy9+Mq+ixqaECsid4eVBOvvkDJn7AWE6Uk0ggkP1o9pHRj8JQlF/NeN9etmdTql9DcgfPFpR8oFzIKAYgAKhn3t723XaRkyB5ddwMinvKiIsIvnYkL0VPcdWzWSgnAH6pzLxP31Q==","69168b21477cff9ada6cb980","691bd5d46b57be1d7b1b72d3","index1","<span style='color:red'>Fail,<span style='color:red'>Fail,<span style='color:green'>Lift,<span style='color:green'>Lift,<span style='color:red'>Fail,<span style='color:red'>Fail,<span style='color:red'>Fail,<span style='color:red'>Fail,<span style='color:green'>Lift,<span style='color:red'>Fail,<span style='color:red'>Fail,<span style='color:green'>Lift","<span style='color:red'>Fail,<span style='color:red'>Fail,<span style='color:green'>Lift,<span style='color:green'>Lift,<span style='color:green'>Lift,<span style='color:green'>Lift,<span style='color:red'>Fail,<span style='color:green'>Lift,<span style='color:green'>Lift,<span style='color:green'>Lift,<span style='color:red'>Fail,<span style='color:green'>Lift","<span style='color:red'>Fail,<span style='color:green'>Lift,<span style='color:green'>Lift,<span style='color:red'>Fail,<span style='color:green'>Lift,<span style='color:green'>Lift","0,0,1,1,0,0,0,0,1,0,0,1","0,0,1,1,1,1,0,1,1,1,0,1","0,1,1,0,1,1",10,20,20,"","","","","{""box1"":""89""}","",NA,2,"round3_ready",4,2,3,NA,NA,NA,NA,NA,NA,NA,NA,NA,NA,NA,NA,NA,NA,89,89,NA,NA,NA,NA,NA,NA,NA,NA,NA,89,89,NA,NA,NA,NA,NA,NA,NA,NA,NA,NA,"",NA,NA,NA,NA,NA,NA,NA,NA,2025-11-18 02:27:41
"23850.5","https://psyc-201.github.io/xiang2023/exp/index1.html?PROLIFIC_PID=REDACTED&STUDY_ID=69168b21477cff9ada6cb980&SESSION_ID=691bd5d46b57be1d7b1b72d3","survey-html-form",26,693434,"0.0-322.0-0.0","cbQ0pKUhSj0w+D3yWYQoBGoJvJqjNI+Jo7OBjKWlRugFvqpiXqx9iYzAwURuhYngteh1ishbuW1JDNhA/O6QXlDcfMpHTUSsZkXBf3PFzoKvTNpeHaIV6pGeOIOOJ0sP9I7minTzntYjILGWUG+gFpg68cx8bs0V0QmefNo8+F684XZOWn1OGpSPELIZpE5fm+pMJ2QImio74ZAy9+Mq+ixqaECsid4eVBOvvkDJn7AWE6Uk0ggkP1o9pHRj8JQlF/NeN9etmdTql9DcgfPFpR8oFzIKAYgAKhn3t723XaRkyB5ddwMinvKiIsIvnYkL0VPcdWzWSgnAH6pzLxP31Q==","69168b21477cff9ada6cb980","691bd5d46b57be1d7b1b72d3","index1","<span style='color:red'>Fail,<span style='color:red'>Fail,<span style='color:green'>Lift,<span style='color:green'>Lift,<span style='color:red'>Fail,<span style='color:red'>Fail,<span style='color:red'>Fail,<span style='color:red'>Fail,<span style='color:green'>Lift,<span style='color:red'>Fail,<span style='color:red'>Fail,<span style='color:green'>Lift","<span style='color:red'>Fail,<span style='color:red'>Fail,<span style='color:green'>Lift,<span style='color:green'>Lift,<span style='color:green'>Lift,<span style='color:green'>Lift,<span style='color:red'>Fail,<span style='color:green'>Lift,<span style='color:green'>Lift,<span style='color:green'>Lift,<span style='color:red'>Fail,<span style='color:green'>Lift","<span style='color:red'>Fail,<span style='color:green'>Lift,<span style='color:green'>Lift,<span style='color:red'>Fail,<span style='color:green'>Lift,<span style='color:green'>Lift","0,0,1,1,0,0,0,0,1,0,0,1","0,0,1,1,1,1,0,1,1,1,0,1","0,1,1,0,1,1",10,20,20,"","","","","{""box1"":""5"",""box2"":""5"",""box3"":""999"",""box4"":""999""}","",NA,3,"round3_fail",5,2,3,5,5,NA,NA,0,0,20,NA,NA,NA,NA,NA,NA,NA,NA,NA,NA,NA,NA,NA,NA,NA,NA,NA,NA,NA,NA,5,5,NA,NA,0,0,20,1,1,NA,"",NA,NA,NA,NA,NA,NA,NA,NA,2025-11-18 02:27:41
"null","https://psyc-201.github.io/xiang2023/exp/index1.html?PROLIFIC_PID=REDACTED&STUDY_ID=69168b21477cff9ada6cb980&SESSION_ID=691bd5d46b57be1d7b1b72d3","html-keyboard-response",27,696449,"0.0-325.0","cbQ0pKUhSj0w+D3yWYQoBGoJvJqjNI+Jo7OBjKWlRugFvqpiXqx9iYzAwURuhYngteh1ishbuW1JDNhA/O6QXlDcfMpHTUSsZkXBf3PFzoKvTNpeHaIV6pGeOIOOJ0sP9I7minTzntYjILGWUG+gFpg68cx8bs0V0QmefNo8+F684XZOWn1OGpSPELIZpE5fm+pMJ2QImio74ZAy9+Mq+ixqaECsid4eVBOvvkDJn7AWE6Uk0ggkP1o9pHRj8JQlF/NeN9etmdTql9DcgfPFpR8oFzIKAYgAKhn3t723XaRkyB5ddwMinvKiIsIvnYkL0VPcdWzWSgnAH6pzLxP31Q==","69168b21477cff9ada6cb980","691bd5d46b57be1d7b1b72d3","index1","<span style='color:red'>Fail,<span style='color:red'>Fail,<span style='color:green'>Lift,<span style='color:green'>Lift,<span style='color:red'>Fail,<span style='color:red'>Fail,<span style='color:red'>Fail,<span style='color:red'>Fail,<span style='color:green'>Lift,<span style='color:red'>Fail,<span style='color:red'>Fail,<span style='color:green'>Lift","<span style='color:red'>Fail,<span style='color:red'>Fail,<span style='color:green'>Lift,<span style='color:green'>Lift,<span style='color:green'>Lift,<span style='color:green'>Lift,<span style='color:red'>Fail,<span style='color:green'>Lift,<span style='color:green'>Lift,<span style='color:green'>Lift,<span style='color:red'>Fail,<span style='color:green'>Lift","<span style='color:red'>Fail,<span style='color:green'>Lift,<span style='color:green'>Lift,<span style='color:red'>Fail,<span style='color:green'>Lift,<span style='color:green'>Lift","0,0,1,1,0,0,0,0,1,0,0,1","0,0,1,1,1,1,0,1,1,1,0,1","0,1,1,0,1,1",10,20,20,"","","<p style='font-size:30px'><b> New Contest! </b></p>","null","","",NA,3,"",NA,NA,NA,NA,NA,NA,NA,NA,NA,NA,NA,NA,NA,NA,NA,NA,NA,NA,NA,NA,NA,NA,NA,NA,NA,NA,NA,NA,NA,NA,NA,NA,NA,NA,NA,NA,NA,NA,NA,NA,"",NA,NA,NA,NA,NA,NA,NA,NA,2025-11-18 02:27:41
"16994.80000001192","https://psyc-201.github.io/xiang2023/exp/index1.html?PROLIFIC_PID=REDACTED&STUDY_ID=69168b21477cff9ada6cb980&SESSION_ID=691bd5d46b57be1d7b1b72d3","survey-html-form",28,713445,"0.0-326.0","cbQ0pKUhSj0w+D3yWYQoBGoJvJqjNI+Jo7OBjKWlRugFvqpiXqx9iYzAwURuhYngteh1ishbuW1JDNhA/O6QXlDcfMpHTUSsZkXBf3PFzoKvTNpeHaIV6pGeOIOOJ0sP9I7minTzntYjILGWUG+gFpg68cx8bs0V0QmefNo8+F684XZOWn1OGpSPELIZpE5fm+pMJ2QImio74ZAy9+Mq+ixqaECsid4eVBOvvkDJn7AWE6Uk0ggkP1o9pHRj8JQlF/NeN9etmdTql9DcgfPFpR8oFzIKAYgAKhn3t723XaRkyB5ddwMinvKiIsIvnYkL0VPcdWzWSgnAH6pzLxP31Q==","69168b21477cff9ada6cb980","691bd5d46b57be1d7b1b72d3","index1","<span style='color:red'>Fail,<span style='color:red'>Fail,<span style='color:green'>Lift,<span style='color:green'>Lift,<span style='color:red'>Fail,<span style='color:red'>Fail,<span style='color:red'>Fail,<span style='color:red'>Fail,<span style='color:green'>Lift,<span style='color:red'>Fail,<span style='color:red'>Fail,<span style='color:green'>Lift","<span style='color:red'>Fail,<span style='color:red'>Fail,<span style='color:green'>Lift,<span style='color:green'>Lift,<span style='color:green'>Lift,<span style='color:green'>Lift,<span style='color:red'>Fail,<span style='color:green'>Lift,<span style='color:green'>Lift,<span style='color:green'>Lift,<span style='color:red'>Fail,<span style='color:green'>Lift","<span style='color:red'>Fail,<span style='color:green'>Lift,<span style='color:green'>Lift,<span style='color:red'>Fail,<span style='color:green'>Lift,<span style='color:green'>Lift","0,0,1,1,0,0,0,0,1,0,0,1","0,0,1,1,1,1,0,1,1,1,0,1","0,1,1,0,1,1",10,20,20,"","","","","{""box1"":""3"",""box2"":""9"",""box4"":""90""}","",NA,3,"round1_outcome",1,3,1,3,9,NA,90,0,1,10,3,9,NA,90,0,1,10,NA,NA,NA,NA,NA,NA,NA,NA,NA,NA,NA,NA,NA,NA,NA,NA,NA,NA,NA,NA,NA,NA,NA,"",NA,NA,NA,NA,NA,NA,NA,NA,2025-11-18 02:27:41
"4607.5","https://psyc-201.github.io/xiang2023/exp/index1.html?PROLIFIC_PID=REDACTED&STUDY_ID=69168b21477cff9ada6cb980&SESSION_ID=691bd5d46b57be1d7b1b72d3","survey-html-form",29,718054,"0.0-327.0","cbQ0pKUhSj0w+D3yWYQoBGoJvJqjNI+Jo7OBjKWlRugFvqpiXqx9iYzAwURuhYngteh1ishbuW1JDNhA/O6QXlDcfMpHTUSsZkXBf3PFzoKvTNpeHaIV6pGeOIOOJ0sP9I7minTzntYjILGWUG+gFpg68cx8bs0V0QmefNo8+F684XZOWn1OGpSPELIZpE5fm+pMJ2QImio74ZAy9+Mq+ixqaECsid4eVBOvvkDJn7AWE6Uk0ggkP1o9pHRj8JQlF/NeN9etmdTql9DcgfPFpR8oFzIKAYgAKhn3t723XaRkyB5ddwMinvKiIsIvnYkL0VPcdWzWSgnAH6pzLxP31Q==","69168b21477cff9ada6cb980","691bd5d46b57be1d7b1b72d3","index1","<span style='color:red'>Fail,<span style='color:red'>Fail,<span style='color:green'>Lift,<span style='color:green'>Lift,<span style='color:red'>Fail,<span style='color:red'>Fail,<span style='color:red'>Fail,<span style='color:red'>Fail,<span style='color:green'>Lift,<span style='color:red'>Fail,<span style='color:red'>Fail,<span style='color:green'>Lift","<span style='color:red'>Fail,<span style='color:red'>Fail,<span style='color:green'>Lift,<span style='color:green'>Lift,<span style='color:green'>Lift,<span style='color:green'>Lift,<span style='color:red'>Fail,<span style='color:green'>Lift,<span style='color:green'>Lift,<span style='color:green'>Lift,<span style='color:red'>Fail,<span style='color:green'>Lift","<span style='color:red'>Fail,<span style='color:green'>Lift,<span style='color:green'>Lift,<span style='color:red'>Fail,<span style='color:green'>Lift,<span style='color:green'>Lift","0,0,1,1,0,0,0,0,1,0,0,1","0,0,1,1,1,1,0,1,1,1,0,1","0,1,1,0,1,1",10,20,20,"","","","","{""box1"":""50"",""box2"":""50""}","",NA,3,"round2_ready",2,3,2,NA,NA,NA,NA,NA,NA,NA,NA,NA,NA,NA,NA,NA,NA,50,50,50,50,NA,NA,NA,NA,NA,NA,NA,NA,NA,NA,NA,NA,NA,NA,NA,NA,NA,NA,NA,"",NA,NA,NA,NA,NA,NA,NA,NA,2025-11-18 02:27:41
"8247.70000000298","https://psyc-201.github.io/xiang2023/exp/index1.html?PROLIFIC_PID=REDACTED&STUDY_ID=69168b21477cff9ada6cb980&SESSION_ID=691bd5d46b57be1d7b1b72d3","survey-html-form",30,726303,"0.0-328.0","cbQ0pKUhSj0w+D3yWYQoBGoJvJqjNI+Jo7OBjKWlRugFvqpiXqx9iYzAwURuhYngteh1ishbuW1JDNhA/O6QXlDcfMpHTUSsZkXBf3PFzoKvTNpeHaIV6pGeOIOOJ0sP9I7minTzntYjILGWUG+gFpg68cx8bs0V0QmefNo8+F684XZOWn1OGpSPELIZpE5fm+pMJ2QImio74ZAy9+Mq+ixqaECsid4eVBOvvkDJn7AWE6Uk0ggkP1o9pHRj8JQlF/NeN9etmdTql9DcgfPFpR8oFzIKAYgAKhn3t723XaRkyB5ddwMinvKiIsIvnYkL0VPcdWzWSgnAH6pzLxP31Q==","69168b21477cff9ada6cb980","691bd5d46b57be1d7b1b72d3","index1","<span style='color:red'>Fail,<span style='color:red'>Fail,<span style='color:green'>Lift,<span style='color:green'>Lift,<span style='color:red'>Fail,<span style='color:red'>Fail,<span style='color:red'>Fail,<span style='color:red'>Fail,<span style='color:green'>Lift,<span style='color:red'>Fail,<span style='color:red'>Fail,<span style='color:green'>Lift","<span style='color:red'>Fail,<span style='color:red'>Fail,<span style='color:green'>Lift,<span style='color:green'>Lift,<span style='color:green'>Lift,<span style='color:green'>Lift,<span style='color:red'>Fail,<span style='color:green'>Lift,<span style='color:green'>Lift,<span style='color:green'>Lift,<span style='color:red'>Fail,<span style='color:green'>Lift","<span style='color:red'>Fail,<span style='color:green'>Lift,<span style='color:green'>Lift,<span style='color:red'>Fail,<span style='color:green'>Lift,<span style='color:green'>Lift","0,0,1,1,0,0,0,0,1,0,0,1","0,0,1,1,1,1,0,1,1,1,0,1","0,1,1,0,1,1",10,20,20,"","","","","{""box1"":""3"",""box2"":""7"",""box4"":""80""}","",NA,3,"round2_outcome",3,3,2,3,7,NA,80,0,1,20,NA,NA,NA,NA,NA,NA,NA,NA,NA,NA,NA,3,7,NA,80,0,1,20,NA,NA,NA,NA,NA,NA,NA,NA,NA,NA,NA,NA,"",NA,NA,NA,NA,NA,NA,NA,NA,2025-11-18 02:27:41
"4091.7999999970198","https://psyc-201.github.io/xiang2023/exp/index1.html?PROLIFIC_PID=REDACTED&STUDY_ID=69168b21477cff9ada6cb980&SESSION_ID=691bd5d46b57be1d7b1b72d3","survey-html-form",31,730396,"0.0-329.0","cbQ0pKUhSj0w+D3yWYQoBGoJvJqjNI+Jo7OBjKWlRugFvqpiXqx9iYzAwURuhYngteh1ishbuW1JDNhA/O6QXlDcfMpHTUSsZkXBf3PFzoKvTNpeHaIV6pGeOIOOJ0sP9I7minTzntYjILGWUG+gFpg68cx8bs0V0QmefNo8+F684XZOWn1OGpSPELIZpE5fm+pMJ2QImio74ZAy9+Mq+ixqaECsid4eVBOvvkDJn7AWE6Uk0ggkP1o9pHRj8JQlF/NeN9etmdTql9DcgfPFpR8oFzIKAYgAKhn3t723XaRkyB5ddwMinvKiIsIvnYkL0VPcdWzWSgnAH6pzLxP31Q==","69168b21477cff9ada6cb980","691bd5d46b57be1d7b1b72d3","index1","<span style='color:red'>Fail,<span style='color:red'>Fail,<span style='color:green'>Lift,<span style='color:green'>Lift,<span style='color:red'>Fail,<span style='color:red'>Fail,<span style='color:red'>Fail,<span style='color:red'>Fail,<span style='color:green'>Lift,<span style='color:red'>Fail,<span style='color:red'>Fail,<span style='color:green'>Lift","<span style='color:red'>Fail,<span style='color:red'>Fail,<span style='color:green'>Lift,<span style='color:green'>Lift,<span style='color:green'>Lift,<span style='color:green'>Lift,<span style='color:red'>Fail,<span style='color:green'>Lift,<span style='color:green'>Lift,<span style='color:green'>Lift,<span style='color:red'>Fail,<span style='color:green'>Lift","<span style='color:red'>Fail,<span style='color:green'>Lift,<span style='color:green'>Lift,<span style='color:red'>Fail,<span style='color:green'>Lift,<span style='color:green'>Lift","0,0,1,1,0,0,0,0,1,0,0,1","0,0,1,1,1,1,0,1,1,1,0,1","0,1,1,0,1,1",10,20,20,"","","","","{""box1"":""80""}","",NA,3,"round3_ready",4,3,3,NA,NA,NA,NA,NA,NA,NA,NA,NA,NA,NA,NA,NA,NA,80,80,NA,NA,NA,NA,NA,NA,NA,NA,NA,80,80,NA,NA,NA,NA,NA,NA,NA,NA,NA,NA,"",NA,NA,NA,NA,NA,NA,NA,NA,2025-11-18 02:27:41
"8938.70000000298","https://psyc-201.github.io/xiang2023/exp/index1.html?PROLIFIC_PID=REDACTED&STUDY_ID=69168b21477cff9ada6cb980&SESSION_ID=691bd5d46b57be1d7b1b72d3","survey-html-form",32,739336,"0.0-330.0-0.0","cbQ0pKUhSj0w+D3yWYQoBGoJvJqjNI+Jo7OBjKWlRugFvqpiXqx9iYzAwURuhYngteh1ishbuW1JDNhA/O6QXlDcfMpHTUSsZkXBf3PFzoKvTNpeHaIV6pGeOIOOJ0sP9I7minTzntYjILGWUG+gFpg68cx8bs0V0QmefNo8+F684XZOWn1OGpSPELIZpE5fm+pMJ2QImio74ZAy9+Mq+ixqaECsid4eVBOvvkDJn7AWE6Uk0ggkP1o9pHRj8JQlF/NeN9etmdTql9DcgfPFpR8oFzIKAYgAKhn3t723XaRkyB5ddwMinvKiIsIvnYkL0VPcdWzWSgnAH6pzLxP31Q==","69168b21477cff9ada6cb980","691bd5d46b57be1d7b1b72d3","index1","<span style='color:red'>Fail,<span style='color:red'>Fail,<span style='color:green'>Lift,<span style='color:green'>Lift,<span style='color:red'>Fail,<span style='color:red'>Fail,<span style='color:red'>Fail,<span style='color:red'>Fail,<span style='color:green'>Lift,<span style='color:red'>Fail,<span style='color:red'>Fail,<span style='color:green'>Lift","<span style='color:red'>Fail,<span style='color:red'>Fail,<span style='color:green'>Lift,<span style='color:green'>Lift,<span style='color:green'>Lift,<span style='color:green'>Lift,<span style='color:red'>Fail,<span style='color:green'>Lift,<span style='color:green'>Lift,<span style='color:green'>Lift,<span style='color:red'>Fail,<span style='color:green'>Lift","<span style='color:red'>Fail,<span style='color:green'>Lift,<span style='color:green'>Lift,<span style='color:red'>Fail,<span style='color:green'>Lift,<span style='color:green'>Lift","0,0,1,1,0,0,0,0,1,0,0,1","0,0,1,1,1,1,0,1,1,1,0,1","0,1,1,0,1,1",10,20,20,"","","","","{""box1"":""6"",""box2"":""6"",""box3"":""50"",""box4"":""50""}","",NA,4,"round3_lift",5,3,3,6,6,50,50,1,1,20,NA,NA,NA,NA,NA,NA,NA,NA,NA,NA,NA,NA,NA,NA,NA,NA,NA,NA,NA,NA,6,6,50,50,1,1,20,NA,NA,NA,"",NA,NA,NA,NA,NA,NA,NA,NA,2025-11-18 02:27:41
"null","https://psyc-201.github.io/xiang2023/exp/index1.html?PROLIFIC_PID=REDACTED&STUDY_ID=69168b21477cff9ada6cb980&SESSION_ID=691bd5d46b57be1d7b1b72d3","html-keyboard-response",33,742351,"0.0-334.0","cbQ0pKUhSj0w+D3yWYQoBGoJvJqjNI+Jo7OBjKWlRugFvqpiXqx9iYzAwURuhYngteh1ishbuW1JDNhA/O6QXlDcfMpHTUSsZkXBf3PFzoKvTNpeHaIV6pGeOIOOJ0sP9I7minTzntYjILGWUG+gFpg68cx8bs0V0QmefNo8+F684XZOWn1OGpSPELIZpE5fm+pMJ2QImio74ZAy9+Mq+ixqaECsid4eVBOvvkDJn7AWE6Uk0ggkP1o9pHRj8JQlF/NeN9etmdTql9DcgfPFpR8oFzIKAYgAKhn3t723XaRkyB5ddwMinvKiIsIvnYkL0VPcdWzWSgnAH6pzLxP31Q==","69168b21477cff9ada6cb980","691bd5d46b57be1d7b1b72d3","index1","<span style='color:red'>Fail,<span style='color:red'>Fail,<span style='color:green'>Lift,<span style='color:green'>Lift,<span style='color:red'>Fail,<span style='color:red'>Fail,<span style='color:red'>Fail,<span style='color:red'>Fail,<span style='color:green'>Lift,<span style='color:red'>Fail,<span style='color:red'>Fail,<span style='color:green'>Lift","<span style='color:red'>Fail,<span style='color:red'>Fail,<span style='color:green'>Lift,<span style='color:green'>Lift,<span style='color:green'>Lift,<span style='color:green'>Lift,<span style='color:red'>Fail,<span style='color:green'>Lift,<span style='color:green'>Lift,<span style='color:green'>Lift,<span style='color:red'>Fail,<span style='color:green'>Lift","<span style='color:red'>Fail,<span style='color:green'>Lift,<span style='color:green'>Lift,<span style='color:red'>Fail,<span style='color:green'>Lift,<span style='color:green'>Lift","0,0,1,1,0,0,0,0,1,0,0,1","0,0,1,1,1,1,0,1,1,1,0,1","0,1,1,0,1,1",10,20,20,"","","<p style='font-size:30px'><b> New Contest! </b></p>","null","","",NA,4,"",NA,NA,NA,NA,NA,NA,NA,NA,NA,NA,NA,NA,NA,NA,NA,NA,NA,NA,NA,NA,NA,NA,NA,NA,NA,NA,NA,NA,NA,NA,NA,NA,NA,NA,NA,NA,NA,NA,NA,NA,"",NA,NA,NA,NA,NA,NA,NA,NA,2025-11-18 02:27:41
"3200.2000000029802","https://psyc-201.github.io/xiang2023/exp/index1.html?PROLIFIC_PID=REDACTED&STUDY_ID=69168b21477cff9ada6cb980&SESSION_ID=691bd5d46b57be1d7b1b72d3","survey-html-form",34,745552,"0.0-335.0","cbQ0pKUhSj0w+D3yWYQoBGoJvJqjNI+Jo7OBjKWlRugFvqpiXqx9iYzAwURuhYngteh1ishbuW1JDNhA/O6QXlDcfMpHTUSsZkXBf3PFzoKvTNpeHaIV6pGeOIOOJ0sP9I7minTzntYjILGWUG+gFpg68cx8bs0V0QmefNo8+F684XZOWn1OGpSPELIZpE5fm+pMJ2QImio74ZAy9+Mq+ixqaECsid4eVBOvvkDJn7AWE6Uk0ggkP1o9pHRj8JQlF/NeN9etmdTql9DcgfPFpR8oFzIKAYgAKhn3t723XaRkyB5ddwMinvKiIsIvnYkL0VPcdWzWSgnAH6pzLxP31Q==","69168b21477cff9ada6cb980","691bd5d46b57be1d7b1b72d3","index1","<span style='color:red'>Fail,<span style='color:red'>Fail,<span style='color:green'>Lift,<span style='color:green'>Lift,<span style='color:red'>Fail,<span style='color:red'>Fail,<span style='color:red'>Fail,<span style='color:red'>Fail,<span style='color:green'>Lift,<span style='color:red'>Fail,<span style='color:red'>Fail,<span style='color:green'>Lift","<span style='color:red'>Fail,<span style='color:red'>Fail,<span style='color:green'>Lift,<span style='color:green'>Lift,<span style='color:green'>Lift,<span style='color:green'>Lift,<span style='color:red'>Fail,<span style='color:green'>Lift,<span style='color:green'>Lift,<span style='color:green'>Lift,<span style='color:red'>Fail,<span style='color:green'>Lift","<span style='color:red'>Fail,<span style='color:green'>Lift,<span style='color:green'>Lift,<span style='color:red'>Fail,<span style='color:green'>Lift,<span style='color:green'>Lift","0,0,1,1,0,0,0,0,1,0,0,1","0,0,1,1,1,1,0,1,1,1,0,1","0,1,1,0,1,1",10,20,20,"","","","","{""box1"":""5"",""box2"":""5""}","",NA,4,"round1_outcome",1,4,1,5,5,NA,NA,0,0,10,5,5,NA,NA,0,0,10,NA,NA,NA,NA,NA,NA,NA,NA,NA,NA,NA,NA,NA,NA,NA,NA,NA,NA,NA,NA,NA,NA,NA,"",NA,NA,NA,NA,NA,NA,NA,NA,2025-11-18 02:27:41
"4119.899999991059","https://psyc-201.github.io/xiang2023/exp/index1.html?PROLIFIC_PID=REDACTED&STUDY_ID=69168b21477cff9ada6cb980&SESSION_ID=691bd5d46b57be1d7b1b72d3","survey-html-form",35,749673,"0.0-336.0","cbQ0pKUhSj0w+D3yWYQoBGoJvJqjNI+Jo7OBjKWlRugFvqpiXqx9iYzAwURuhYngteh1ishbuW1JDNhA/O6QXlDcfMpHTUSsZkXBf3PFzoKvTNpeHaIV6pGeOIOOJ0sP9I7minTzntYjILGWUG+gFpg68cx8bs0V0QmefNo8+F684XZOWn1OGpSPELIZpE5fm+pMJ2QImio74ZAy9+Mq+ixqaECsid4eVBOvvkDJn7AWE6Uk0ggkP1o9pHRj8JQlF/NeN9etmdTql9DcgfPFpR8oFzIKAYgAKhn3t723XaRkyB5ddwMinvKiIsIvnYkL0VPcdWzWSgnAH6pzLxP31Q==","69168b21477cff9ada6cb980","691bd5d46b57be1d7b1b72d3","index1","<span style='color:red'>Fail,<span style='color:red'>Fail,<span style='color:green'>Lift,<span style='color:green'>Lift,<span style='color:red'>Fail,<span style='color:red'>Fail,<span style='color:red'>Fail,<span style='color:red'>Fail,<span style='color:green'>Lift,<span style='color:red'>Fail,<span style='color:red'>Fail,<span style='color:green'>Lift","<span style='color:red'>Fail,<span style='color:red'>Fail,<span style='color:green'>Lift,<span style='color:green'>Lift,<span style='color:green'>Lift,<span style='color:green'>Lift,<span style='color:red'>Fail,<span style='color:green'>Lift,<span style='color:green'>Lift,<span style='color:green'>Lift,<span style='color:red'>Fail,<span style='color:green'>Lift","<span style='color:red'>Fail,<span style='color:green'>Lift,<span style='color:green'>Lift,<span style='color:red'>Fail,<span style='color:green'>Lift,<span style='color:green'>Lift","0,0,1,1,0,0,0,0,1,0,0,1","0,0,1,1,1,1,0,1,1,1,0,1","0,1,1,0,1,1",10,20,20,"","","","","{""box1"":""50"",""box2"":""50""}","",NA,4,"round2_ready",2,4,2,NA,NA,NA,NA,NA,NA,NA,NA,NA,NA,NA,NA,NA,NA,50,50,50,50,NA,NA,NA,NA,NA,NA,NA,NA,NA,NA,NA,NA,NA,NA,NA,NA,NA,NA,NA,"",NA,NA,NA,NA,NA,NA,NA,NA,2025-11-18 02:27:41
"12348","https://psyc-201.github.io/xiang2023/exp/index1.html?PROLIFIC_PID=REDACTED&STUDY_ID=69168b21477cff9ada6cb980&SESSION_ID=691bd5d46b57be1d7b1b72d3","survey-html-form",36,762023,"0.0-337.0","cbQ0pKUhSj0w+D3yWYQoBGoJvJqjNI+Jo7OBjKWlRugFvqpiXqx9iYzAwURuhYngteh1ishbuW1JDNhA/O6QXlDcfMpHTUSsZkXBf3PFzoKvTNpeHaIV6pGeOIOOJ0sP9I7minTzntYjILGWUG+gFpg68cx8bs0V0QmefNo8+F684XZOWn1OGpSPELIZpE5fm+pMJ2QImio74ZAy9+Mq+ixqaECsid4eVBOvvkDJn7AWE6Uk0ggkP1o9pHRj8JQlF/NeN9etmdTql9DcgfPFpR8oFzIKAYgAKhn3t723XaRkyB5ddwMinvKiIsIvnYkL0VPcdWzWSgnAH6pzLxP31Q==","69168b21477cff9ada6cb980","691bd5d46b57be1d7b1b72d3","index1","<span style='color:red'>Fail,<span style='color:red'>Fail,<span style='color:green'>Lift,<span style='color:green'>Lift,<span style='color:red'>Fail,<span style='color:red'>Fail,<span style='color:red'>Fail,<span style='color:red'>Fail,<span style='color:green'>Lift,<span style='color:red'>Fail,<span style='color:red'>Fail,<span style='color:green'>Lift","<span style='color:red'>Fail,<span style='color:red'>Fail,<span style='color:green'>Lift,<span style='color:green'>Lift,<span style='color:green'>Lift,<span style='color:green'>Lift,<span style='color:red'>Fail,<span style='color:green'>Lift,<span style='color:green'>Lift,<span style='color:green'>Lift,<span style='color:red'>Fail,<span style='color:green'>Lift","<span style='color:red'>Fail,<span style='color:green'>Lift,<span style='color:green'>Lift,<span style='color:red'>Fail,<span style='color:green'>Lift,<span style='color:green'>Lift","0,0,1,1,0,0,0,0,1,0,0,1","0,0,1,1,1,1,0,1,1,1,0,1","0,1,1,0,1,1",10,20,20,"","","","","{""box1"":""7"",""box2"":""7"",""box3"":""70"",""box4"":""70""}","",NA,4,"round2_outcome",3,4,2,7,7,70,70,1,1,20,NA,NA,NA,NA,NA,NA,NA,NA,NA,NA,NA,7,7,70,70,1,1,20,NA,NA,NA,NA,NA,NA,NA,NA,NA,NA,NA,NA,"",NA,NA,NA,NA,NA,NA,NA,NA,2025-11-18 02:27:41
"4120","https://psyc-201.github.io/xiang2023/exp/index1.html?PROLIFIC_PID=REDACTED&STUDY_ID=69168b21477cff9ada6cb980&SESSION_ID=691bd5d46b57be1d7b1b72d3","survey-html-form",37,766144,"0.0-338.0","cbQ0pKUhSj0w+D3yWYQoBGoJvJqjNI+Jo7OBjKWlRugFvqpiXqx9iYzAwURuhYngteh1ishbuW1JDNhA/O6QXlDcfMpHTUSsZkXBf3PFzoKvTNpeHaIV6pGeOIOOJ0sP9I7minTzntYjILGWUG+gFpg68cx8bs0V0QmefNo8+F684XZOWn1OGpSPELIZpE5fm+pMJ2QImio74ZAy9+Mq+ixqaECsid4eVBOvvkDJn7AWE6Uk0ggkP1o9pHRj8JQlF/NeN9etmdTql9DcgfPFpR8oFzIKAYgAKhn3t723XaRkyB5ddwMinvKiIsIvnYkL0VPcdWzWSgnAH6pzLxP31Q==","69168b21477cff9ada6cb980","691bd5d46b57be1d7b1b72d3","index1","<span style='color:red'>Fail,<span style='color:red'>Fail,<span style='color:green'>Lift,<span style='color:green'>Lift,<span style='color:red'>Fail,<span style='color:red'>Fail,<span style='color:red'>Fail,<span style='color:red'>Fail,<span style='color:green'>Lift,<span style='color:red'>Fail,<span style='color:red'>Fail,<span style='color:green'>Lift","<span style='color:red'>Fail,<span style='color:red'>Fail,<span style='color:green'>Lift,<span style='color:green'>Lift,<span style='color:green'>Lift,<span style='color:green'>Lift,<span style='color:red'>Fail,<span style='color:green'>Lift,<span style='color:green'>Lift,<span style='color:green'>Lift,<span style='color:red'>Fail,<span style='color:green'>Lift","<span style='color:red'>Fail,<span style='color:green'>Lift,<span style='color:green'>Lift,<span style='color:red'>Fail,<span style='color:green'>Lift,<span style='color:green'>Lift","0,0,1,1,0,0,0,0,1,0,0,1","0,0,1,1,1,1,0,1,1,1,0,1","0,1,1,0,1,1",10,20,20,"","","","","{""box1"":""89""}","",NA,4,"round3_ready",4,4,3,NA,NA,NA,NA,NA,NA,NA,NA,NA,NA,NA,NA,NA,NA,89,89,NA,NA,NA,NA,NA,NA,NA,NA,NA,89,89,NA,NA,NA,NA,NA,NA,NA,NA,NA,NA,"",NA,NA,NA,NA,NA,NA,NA,NA,2025-11-18 02:27:41
"6417.0999999940395","https://psyc-201.github.io/xiang2023/exp/index1.html?PROLIFIC_PID=REDACTED&STUDY_ID=69168b21477cff9ada6cb980&SESSION_ID=691bd5d46b57be1d7b1b72d3","survey-html-form",38,772562,"0.0-339.0-0.0","cbQ0pKUhSj0w+D3yWYQoBGoJvJqjNI+Jo7OBjKWlRugFvqpiXqx9iYzAwURuhYngteh1ishbuW1JDNhA/O6QXlDcfMpHTUSsZkXBf3PFzoKvTNpeHaIV6pGeOIOOJ0sP9I7minTzntYjILGWUG+gFpg68cx8bs0V0QmefNo8+F684XZOWn1OGpSPELIZpE5fm+pMJ2QImio74ZAy9+Mq+ixqaECsid4eVBOvvkDJn7AWE6Uk0ggkP1o9pHRj8JQlF/NeN9etmdTql9DcgfPFpR8oFzIKAYgAKhn3t723XaRkyB5ddwMinvKiIsIvnYkL0VPcdWzWSgnAH6pzLxP31Q==","69168b21477cff9ada6cb980","691bd5d46b57be1d7b1b72d3","index1","<span style='color:red'>Fail,<span style='color:red'>Fail,<span style='color:green'>Lift,<span style='color:green'>Lift,<span style='color:red'>Fail,<span style='color:red'>Fail,<span style='color:red'>Fail,<span style='color:red'>Fail,<span style='color:green'>Lift,<span style='color:red'>Fail,<span style='color:red'>Fail,<span style='color:green'>Lift","<span style='color:red'>Fail,<span style='color:red'>Fail,<span style='color:green'>Lift,<span style='color:green'>Lift,<span style='color:green'>Lift,<span style='color:green'>Lift,<span style='color:red'>Fail,<span style='color:green'>Lift,<span style='color:green'>Lift,<span style='color:green'>Lift,<span style='color:red'>Fail,<span style='color:green'>Lift","<span style='color:red'>Fail,<span style='color:green'>Lift,<span style='color:green'>Lift,<span style='color:red'>Fail,<span style='color:green'>Lift,<span style='color:green'>Lift","0,0,1,1,0,0,0,0,1,0,0,1","0,0,1,1,1,1,0,1,1,1,0,1","0,1,1,0,1,1",10,20,20,"","","","","{""box1"":""8"",""box2"":""8"",""box3"":""90"",""box4"":""90""}","",NA,5,"round3_lift",5,4,3,8,8,90,90,1,1,20,NA,NA,NA,NA,NA,NA,NA,NA,NA,NA,NA,NA,NA,NA,NA,NA,NA,NA,NA,NA,8,8,90,90,1,1,20,NA,NA,NA,"",NA,NA,NA,NA,NA,NA,NA,NA,2025-11-18 02:27:41
"null","https://psyc-201.github.io/xiang2023/exp/index1.html?PROLIFIC_PID=REDACTED&STUDY_ID=69168b21477cff9ada6cb980&SESSION_ID=691bd5d46b57be1d7b1b72d3","html-keyboard-response",39,775573,"0.0-343.0","cbQ0pKUhSj0w+D3yWYQoBGoJvJqjNI+Jo7OBjKWlRugFvqpiXqx9iYzAwURuhYngteh1ishbuW1JDNhA/O6QXlDcfMpHTUSsZkXBf3PFzoKvTNpeHaIV6pGeOIOOJ0sP9I7minTzntYjILGWUG+gFpg68cx8bs0V0QmefNo8+F684XZOWn1OGpSPELIZpE5fm+pMJ2QImio74ZAy9+Mq+ixqaECsid4eVBOvvkDJn7AWE6Uk0ggkP1o9pHRj8JQlF/NeN9etmdTql9DcgfPFpR8oFzIKAYgAKhn3t723XaRkyB5ddwMinvKiIsIvnYkL0VPcdWzWSgnAH6pzLxP31Q==","69168b21477cff9ada6cb980","691bd5d46b57be1d7b1b72d3","index1","<span style='color:red'>Fail,<span style='color:red'>Fail,<span style='color:green'>Lift,<span style='color:green'>Lift,<span style='color:red'>Fail,<span style='color:red'>Fail,<span style='color:red'>Fail,<span style='color:red'>Fail,<span style='color:green'>Lift,<span style='color:red'>Fail,<span style='color:red'>Fail,<span style='color:green'>Lift","<span style='color:red'>Fail,<span style='color:red'>Fail,<span style='color:green'>Lift,<span style='color:green'>Lift,<span style='color:green'>Lift,<span style='color:green'>Lift,<span style='color:red'>Fail,<span style='color:green'>Lift,<span style='color:green'>Lift,<span style='color:green'>Lift,<span style='color:red'>Fail,<span style='color:green'>Lift","<span style='color:red'>Fail,<span style='color:green'>Lift,<span style='color:green'>Lift,<span style='color:red'>Fail,<span style='color:green'>Lift,<span style='color:green'>Lift","0,0,1,1,0,0,0,0,1,0,0,1","0,0,1,1,1,1,0,1,1,1,0,1","0,1,1,0,1,1",10,20,20,"","","<p style='font-size:30px'><b> New Contest! </b></p>","null","","",NA,5,"",NA,NA,NA,NA,NA,NA,NA,NA,NA,NA,NA,NA,NA,NA,NA,NA,NA,NA,NA,NA,NA,NA,NA,NA,NA,NA,NA,NA,NA,NA,NA,NA,NA,NA,NA,NA,NA,NA,NA,NA,"",NA,NA,NA,NA,NA,NA,NA,NA,2025-11-18 02:27:41
"10320.40000000596","https://psyc-201.github.io/xiang2023/exp/index1.html?PROLIFIC_PID=REDACTED&STUDY_ID=69168b21477cff9ada6cb980&SESSION_ID=691bd5d46b57be1d7b1b72d3","survey-html-form",40,785895,"0.0-344.0","cbQ0pKUhSj0w+D3yWYQoBGoJvJqjNI+Jo7OBjKWlRugFvqpiXqx9iYzAwURuhYngteh1ishbuW1JDNhA/O6QXlDcfMpHTUSsZkXBf3PFzoKvTNpeHaIV6pGeOIOOJ0sP9I7minTzntYjILGWUG+gFpg68cx8bs0V0QmefNo8+F684XZOWn1OGpSPELIZpE5fm+pMJ2QImio74ZAy9+Mq+ixqaECsid4eVBOvvkDJn7AWE6Uk0ggkP1o9pHRj8JQlF/NeN9etmdTql9DcgfPFpR8oFzIKAYgAKhn3t723XaRkyB5ddwMinvKiIsIvnYkL0VPcdWzWSgnAH6pzLxP31Q==","69168b21477cff9ada6cb980","691bd5d46b57be1d7b1b72d3","index1","<span style='color:red'>Fail,<span style='color:red'>Fail,<span style='color:green'>Lift,<span style='color:green'>Lift,<span style='color:red'>Fail,<span style='color:red'>Fail,<span style='color:red'>Fail,<span style='color:red'>Fail,<span style='color:green'>Lift,<span style='color:red'>Fail,<span style='color:red'>Fail,<span style='color:green'>Lift","<span style='color:red'>Fail,<span style='color:red'>Fail,<span style='color:green'>Lift,<span style='color:green'>Lift,<span style='color:green'>Lift,<span style='color:green'>Lift,<span style='color:red'>Fail,<span style='color:green'>Lift,<span style='color:green'>Lift,<span style='color:green'>Lift,<span style='color:red'>Fail,<span style='color:green'>Lift","<span style='color:red'>Fail,<span style='color:green'>Lift,<span style='color:green'>Lift,<span style='color:red'>Fail,<span style='color:green'>Lift,<span style='color:green'>Lift","0,0,1,1,0,0,0,0,1,0,0,1","0,0,1,1,1,1,0,1,1,1,0,1","0,1,1,0,1,1",10,20,20,"","","","","{""box1"":""8"",""box2"":""8"",""box3"":""88"",""box4"":""88""}","",NA,5,"round1_outcome",1,5,1,8,8,88,88,1,1,10,8,8,88,88,1,1,10,NA,NA,NA,NA,NA,NA,NA,NA,NA,NA,NA,NA,NA,NA,NA,NA,NA,NA,NA,NA,NA,NA,NA,"",NA,NA,NA,NA,NA,NA,NA,NA,2025-11-18 02:27:41
"6136.600000008941","https://psyc-201.github.io/xiang2023/exp/index1.html?PROLIFIC_PID=REDACTED&STUDY_ID=69168b21477cff9ada6cb980&SESSION_ID=691bd5d46b57be1d7b1b72d3","survey-html-form",41,792033,"0.0-345.0","cbQ0pKUhSj0w+D3yWYQoBGoJvJqjNI+Jo7OBjKWlRugFvqpiXqx9iYzAwURuhYngteh1ishbuW1JDNhA/O6QXlDcfMpHTUSsZkXBf3PFzoKvTNpeHaIV6pGeOIOOJ0sP9I7minTzntYjILGWUG+gFpg68cx8bs0V0QmefNo8+F684XZOWn1OGpSPELIZpE5fm+pMJ2QImio74ZAy9+Mq+ixqaECsid4eVBOvvkDJn7AWE6Uk0ggkP1o9pHRj8JQlF/NeN9etmdTql9DcgfPFpR8oFzIKAYgAKhn3t723XaRkyB5ddwMinvKiIsIvnYkL0VPcdWzWSgnAH6pzLxP31Q==","69168b21477cff9ada6cb980","691bd5d46b57be1d7b1b72d3","index1","<span style='color:red'>Fail,<span style='color:red'>Fail,<span style='color:green'>Lift,<span style='color:green'>Lift,<span style='color:red'>Fail,<span style='color:red'>Fail,<span style='color:red'>Fail,<span style='color:red'>Fail,<span style='color:green'>Lift,<span style='color:red'>Fail,<span style='color:red'>Fail,<span style='color:green'>Lift","<span style='color:red'>Fail,<span style='color:red'>Fail,<span style='color:green'>Lift,<span style='color:green'>Lift,<span style='color:green'>Lift,<span style='color:green'>Lift,<span style='color:red'>Fail,<span style='color:green'>Lift,<span style='color:green'>Lift,<span style='color:green'>Lift,<span style='color:red'>Fail,<span style='color:green'>Lift","<span style='color:red'>Fail,<span style='color:green'>Lift,<span style='color:green'>Lift,<span style='color:red'>Fail,<span style='color:green'>Lift,<span style='color:green'>Lift","0,0,1,1,0,0,0,0,1,0,0,1","0,0,1,1,1,1,0,1,1,1,0,1","0,1,1,0,1,1",10,20,20,"","","","","{""box1"":""50"",""box2"":""50""}","",NA,5,"round2_ready",2,5,2,NA,NA,NA,NA,NA,NA,NA,NA,NA,NA,NA,NA,NA,NA,50,50,50,50,NA,NA,NA,NA,NA,NA,NA,NA,NA,NA,NA,NA,NA,NA,NA,NA,NA,NA,NA,"",NA,NA,NA,NA,NA,NA,NA,NA,2025-11-18 02:27:41
"25284.90000000596","https://psyc-201.github.io/xiang2023/exp/index1.html?PROLIFIC_PID=REDACTED&STUDY_ID=69168b21477cff9ada6cb980&SESSION_ID=691bd5d46b57be1d7b1b72d3","survey-html-form",42,817319,"0.0-346.0","cbQ0pKUhSj0w+D3yWYQoBGoJvJqjNI+Jo7OBjKWlRugFvqpiXqx9iYzAwURuhYngteh1ishbuW1JDNhA/O6QXlDcfMpHTUSsZkXBf3PFzoKvTNpeHaIV6pGeOIOOJ0sP9I7minTzntYjILGWUG+gFpg68cx8bs0V0QmefNo8+F684XZOWn1OGpSPELIZpE5fm+pMJ2QImio74ZAy9+Mq+ixqaECsid4eVBOvvkDJn7AWE6Uk0ggkP1o9pHRj8JQlF/NeN9etmdTql9DcgfPFpR8oFzIKAYgAKhn3t723XaRkyB5ddwMinvKiIsIvnYkL0VPcdWzWSgnAH6pzLxP31Q==","69168b21477cff9ada6cb980","691bd5d46b57be1d7b1b72d3","index1","<span style='color:red'>Fail,<span style='color:red'>Fail,<span style='color:green'>Lift,<span style='color:green'>Lift,<span style='color:red'>Fail,<span style='color:red'>Fail,<span style='color:red'>Fail,<span style='color:red'>Fail,<span style='color:green'>Lift,<span style='color:red'>Fail,<span style='color:red'>Fail,<span style='color:green'>Lift","<span style='color:red'>Fail,<span style='color:red'>Fail,<span style='color:green'>Lift,<span style='color:green'>Lift,<span style='color:green'>Lift,<span style='color:green'>Lift,<span style='color:red'>Fail,<span style='color:green'>Lift,<span style='color:green'>Lift,<span style='color:green'>Lift,<span style='color:red'>Fail,<span style='color:green'>Lift","<span style='color:red'>Fail,<span style='color:green'>Lift,<span style='color:green'>Lift,<span style='color:red'>Fail,<span style='color:green'>Lift,<span style='color:green'>Lift","0,0,1,1,0,0,0,0,1,0,0,1","0,0,1,1,1,1,0,1,1,1,0,1","0,1,1,0,1,1",10,20,20,"","","","","{""box1"":""9"",""box2"":""9"",""box3"":""80"",""box4"":""80""}","",NA,5,"round2_outcome",3,5,2,9,9,80,80,1,1,20,NA,NA,NA,NA,NA,NA,NA,NA,NA,NA,NA,9,9,80,80,1,1,20,NA,NA,NA,NA,NA,NA,NA,NA,NA,NA,NA,NA,"",NA,NA,NA,NA,NA,NA,NA,NA,2025-11-18 02:27:41
"8543.20000000298","https://psyc-201.github.io/xiang2023/exp/index1.html?PROLIFIC_PID=REDACTED&STUDY_ID=69168b21477cff9ada6cb980&SESSION_ID=691bd5d46b57be1d7b1b72d3","survey-html-form",43,825864,"0.0-347.0","cbQ0pKUhSj0w+D3yWYQoBGoJvJqjNI+Jo7OBjKWlRugFvqpiXqx9iYzAwURuhYngteh1ishbuW1JDNhA/O6QXlDcfMpHTUSsZkXBf3PFzoKvTNpeHaIV6pGeOIOOJ0sP9I7minTzntYjILGWUG+gFpg68cx8bs0V0QmefNo8+F684XZOWn1OGpSPELIZpE5fm+pMJ2QImio74ZAy9+Mq+ixqaECsid4eVBOvvkDJn7AWE6Uk0ggkP1o9pHRj8JQlF/NeN9etmdTql9DcgfPFpR8oFzIKAYgAKhn3t723XaRkyB5ddwMinvKiIsIvnYkL0VPcdWzWSgnAH6pzLxP31Q==","69168b21477cff9ada6cb980","691bd5d46b57be1d7b1b72d3","index1","<span style='color:red'>Fail,<span style='color:red'>Fail,<span style='color:green'>Lift,<span style='color:green'>Lift,<span style='color:red'>Fail,<span style='color:red'>Fail,<span style='color:red'>Fail,<span style='color:red'>Fail,<span style='color:green'>Lift,<span style='color:red'>Fail,<span style='color:red'>Fail,<span style='color:green'>Lift","<span style='color:red'>Fail,<span style='color:red'>Fail,<span style='color:green'>Lift,<span style='color:green'>Lift,<span style='color:green'>Lift,<span style='color:green'>Lift,<span style='color:red'>Fail,<span style='color:green'>Lift,<span style='color:green'>Lift,<span style='color:green'>Lift,<span style='color:red'>Fail,<span style='color:green'>Lift","<span style='color:red'>Fail,<span style='color:green'>Lift,<span style='color:green'>Lift,<span style='color:red'>Fail,<span style='color:green'>Lift,<span style='color:green'>Lift","0,0,1,1,0,0,0,0,1,0,0,1","0,0,1,1,1,1,0,1,1,1,0,1","0,1,1,0,1,1",10,20,20,"","","","","{""box1"":""50""}","",NA,5,"round3_ready",4,5,3,NA,NA,NA,NA,NA,NA,NA,NA,NA,NA,NA,NA,NA,NA,50,50,NA,NA,NA,NA,NA,NA,NA,NA,NA,50,50,NA,NA,NA,NA,NA,NA,NA,NA,NA,NA,"",NA,NA,NA,NA,NA,NA,NA,NA,2025-11-18 02:27:41
"15163.10000000894","https://psyc-201.github.io/xiang2023/exp/index1.html?PROLIFIC_PID=REDACTED&STUDY_ID=69168b21477cff9ada6cb980&SESSION_ID=691bd5d46b57be1d7b1b72d3","survey-html-form",44,841028,"0.0-348.0-0.0","cbQ0pKUhSj0w+D3yWYQoBGoJvJqjNI+Jo7OBjKWlRugFvqpiXqx9iYzAwURuhYngteh1ishbuW1JDNhA/O6QXlDcfMpHTUSsZkXBf3PFzoKvTNpeHaIV6pGeOIOOJ0sP9I7minTzntYjILGWUG+gFpg68cx8bs0V0QmefNo8+F684XZOWn1OGpSPELIZpE5fm+pMJ2QImio74ZAy9+Mq+ixqaECsid4eVBOvvkDJn7AWE6Uk0ggkP1o9pHRj8JQlF/NeN9etmdTql9DcgfPFpR8oFzIKAYgAKhn3t723XaRkyB5ddwMinvKiIsIvnYkL0VPcdWzWSgnAH6pzLxP31Q==","69168b21477cff9ada6cb980","691bd5d46b57be1d7b1b72d3","index1","<span style='color:red'>Fail,<span style='color:red'>Fail,<span style='color:green'>Lift,<span style='color:green'>Lift,<span style='color:red'>Fail,<span style='color:red'>Fail,<span style='color:red'>Fail,<span style='color:red'>Fail,<span style='color:green'>Lift,<span style='color:red'>Fail,<span style='color:red'>Fail,<span style='color:green'>Lift","<span style='color:red'>Fail,<span style='color:red'>Fail,<span style='color:green'>Lift,<span style='color:green'>Lift,<span style='color:green'>Lift,<span style='color:green'>Lift,<span style='color:red'>Fail,<span style='color:green'>Lift,<span style='color:green'>Lift,<span style='color:green'>Lift,<span style='color:red'>Fail,<span style='color:green'>Lift","<span style='color:red'>Fail,<span style='color:green'>Lift,<span style='color:green'>Lift,<span style='color:red'>Fail,<span style='color:green'>Lift,<span style='color:green'>Lift","0,0,1,1,0,0,0,0,1,0,0,1","0,0,1,1,1,1,0,1,1,1,0,1","0,1,1,0,1,1",10,20,20,"","","","","{""box1"":""5"",""box2"":""6"",""box3"":""50"",""box4"":""60""}","",NA,6,"round3_lift",5,5,3,5,6,50,60,1,1,20,NA,NA,NA,NA,NA,NA,NA,NA,NA,NA,NA,NA,NA,NA,NA,NA,NA,NA,NA,NA,5,6,50,60,1,1,20,NA,NA,NA,"",NA,NA,NA,NA,NA,NA,NA,NA,2025-11-18 02:27:41
"null","https://psyc-201.github.io/xiang2023/exp/index1.html?PROLIFIC_PID=REDACTED&STUDY_ID=69168b21477cff9ada6cb980&SESSION_ID=691bd5d46b57be1d7b1b72d3","html-keyboard-response",45,844040,"0.0-352.0","cbQ0pKUhSj0w+D3yWYQoBGoJvJqjNI+Jo7OBjKWlRugFvqpiXqx9iYzAwURuhYngteh1ishbuW1JDNhA/O6QXlDcfMpHTUSsZkXBf3PFzoKvTNpeHaIV6pGeOIOOJ0sP9I7minTzntYjILGWUG+gFpg68cx8bs0V0QmefNo8+F684XZOWn1OGpSPELIZpE5fm+pMJ2QImio74ZAy9+Mq+ixqaECsid4eVBOvvkDJn7AWE6Uk0ggkP1o9pHRj8JQlF/NeN9etmdTql9DcgfPFpR8oFzIKAYgAKhn3t723XaRkyB5ddwMinvKiIsIvnYkL0VPcdWzWSgnAH6pzLxP31Q==","69168b21477cff9ada6cb980","691bd5d46b57be1d7b1b72d3","index1","<span style='color:red'>Fail,<span style='color:red'>Fail,<span style='color:green'>Lift,<span style='color:green'>Lift,<span style='color:red'>Fail,<span style='color:red'>Fail,<span style='color:red'>Fail,<span style='color:red'>Fail,<span style='color:green'>Lift,<span style='color:red'>Fail,<span style='color:red'>Fail,<span style='color:green'>Lift","<span style='color:red'>Fail,<span style='color:red'>Fail,<span style='color:green'>Lift,<span style='color:green'>Lift,<span style='color:green'>Lift,<span style='color:green'>Lift,<span style='color:red'>Fail,<span style='color:green'>Lift,<span style='color:green'>Lift,<span style='color:green'>Lift,<span style='color:red'>Fail,<span style='color:green'>Lift","<span style='color:red'>Fail,<span style='color:green'>Lift,<span style='color:green'>Lift,<span style='color:red'>Fail,<span style='color:green'>Lift,<span style='color:green'>Lift","0,0,1,1,0,0,0,0,1,0,0,1","0,0,1,1,1,1,0,1,1,1,0,1","0,1,1,0,1,1",10,20,20,"","","<p style='font-size:30px'><b> New Contest! </b></p>","null","","",NA,6,"",NA,NA,NA,NA,NA,NA,NA,NA,NA,NA,NA,NA,NA,NA,NA,NA,NA,NA,NA,NA,NA,NA,NA,NA,NA,NA,NA,NA,NA,NA,NA,NA,NA,NA,NA,NA,NA,NA,NA,NA,"",NA,NA,NA,NA,NA,NA,NA,NA,2025-11-18 02:27:41
"14298.29999999702","https://psyc-201.github.io/xiang2023/exp/index1.html?PROLIFIC_PID=REDACTED&STUDY_ID=69168b21477cff9ada6cb980&SESSION_ID=691bd5d46b57be1d7b1b72d3","survey-html-form",46,858339,"0.0-353.0","cbQ0pKUhSj0w+D3yWYQoBGoJvJqjNI+Jo7OBjKWlRugFvqpiXqx9iYzAwURuhYngteh1ishbuW1JDNhA/O6QXlDcfMpHTUSsZkXBf3PFzoKvTNpeHaIV6pGeOIOOJ0sP9I7minTzntYjILGWUG+gFpg68cx8bs0V0QmefNo8+F684XZOWn1OGpSPELIZpE5fm+pMJ2QImio74ZAy9+Mq+ixqaECsid4eVBOvvkDJn7AWE6Uk0ggkP1o9pHRj8JQlF/NeN9etmdTql9DcgfPFpR8oFzIKAYgAKhn3t723XaRkyB5ddwMinvKiIsIvnYkL0VPcdWzWSgnAH6pzLxP31Q==","69168b21477cff9ada6cb980","691bd5d46b57be1d7b1b72d3","index1","<span style='color:red'>Fail,<span style='color:red'>Fail,<span style='color:green'>Lift,<span style='color:green'>Lift,<span style='color:red'>Fail,<span style='color:red'>Fail,<span style='color:red'>Fail,<span style='color:red'>Fail,<span style='color:green'>Lift,<span style='color:red'>Fail,<span style='color:red'>Fail,<span style='color:green'>Lift","<span style='color:red'>Fail,<span style='color:red'>Fail,<span style='color:green'>Lift,<span style='color:green'>Lift,<span style='color:green'>Lift,<span style='color:green'>Lift,<span style='color:red'>Fail,<span style='color:green'>Lift,<span style='color:green'>Lift,<span style='color:green'>Lift,<span style='color:red'>Fail,<span style='color:green'>Lift","<span style='color:red'>Fail,<span style='color:green'>Lift,<span style='color:green'>Lift,<span style='color:red'>Fail,<span style='color:green'>Lift,<span style='color:green'>Lift","0,0,1,1,0,0,0,0,1,0,0,1","0,0,1,1,1,1,0,1,1,1,0,1","0,1,1,0,1,1",10,20,20,"","","","","{""box1"":""5"",""box2"":""5""}","",NA,6,"round1_outcome",1,6,1,5,5,NA,NA,0,0,10,5,5,NA,NA,0,0,10,NA,NA,NA,NA,NA,NA,NA,NA,NA,NA,NA,NA,NA,NA,NA,NA,NA,NA,NA,NA,NA,NA,NA,"",NA,NA,NA,NA,NA,NA,NA,NA,2025-11-18 02:27:41
"12693.59999999404","https://psyc-201.github.io/xiang2023/exp/index1.html?PROLIFIC_PID=REDACTED&STUDY_ID=69168b21477cff9ada6cb980&SESSION_ID=691bd5d46b57be1d7b1b72d3","survey-html-form",47,871034,"0.0-354.0","cbQ0pKUhSj0w+D3yWYQoBGoJvJqjNI+Jo7OBjKWlRugFvqpiXqx9iYzAwURuhYngteh1ishbuW1JDNhA/O6QXlDcfMpHTUSsZkXBf3PFzoKvTNpeHaIV6pGeOIOOJ0sP9I7minTzntYjILGWUG+gFpg68cx8bs0V0QmefNo8+F684XZOWn1OGpSPELIZpE5fm+pMJ2QImio74ZAy9+Mq+ixqaECsid4eVBOvvkDJn7AWE6Uk0ggkP1o9pHRj8JQlF/NeN9etmdTql9DcgfPFpR8oFzIKAYgAKhn3t723XaRkyB5ddwMinvKiIsIvnYkL0VPcdWzWSgnAH6pzLxP31Q==","69168b21477cff9ada6cb980","691bd5d46b57be1d7b1b72d3","index1","<span style='color:red'>Fail,<span style='color:red'>Fail,<span style='color:green'>Lift,<span style='color:green'>Lift,<span style='color:red'>Fail,<span style='color:red'>Fail,<span style='color:red'>Fail,<span style='color:red'>Fail,<span style='color:green'>Lift,<span style='color:red'>Fail,<span style='color:red'>Fail,<span style='color:green'>Lift","<span style='color:red'>Fail,<span style='color:red'>Fail,<span style='color:green'>Lift,<span style='color:green'>Lift,<span style='color:green'>Lift,<span style='color:green'>Lift,<span style='color:red'>Fail,<span style='color:green'>Lift,<span style='color:green'>Lift,<span style='color:green'>Lift,<span style='color:red'>Fail,<span style='color:green'>Lift","<span style='color:red'>Fail,<span style='color:green'>Lift,<span style='color:green'>Lift,<span style='color:red'>Fail,<span style='color:green'>Lift,<span style='color:green'>Lift","0,0,1,1,0,0,0,0,1,0,0,1","0,0,1,1,1,1,0,1,1,1,0,1","0,1,1,0,1,1",10,20,20,"","","","","{""box1"":""50"",""box2"":""50""}","",NA,6,"round2_ready",2,6,2,NA,NA,NA,NA,NA,NA,NA,NA,NA,NA,NA,NA,NA,NA,50,50,50,50,NA,NA,NA,NA,NA,NA,NA,NA,NA,NA,NA,NA,NA,NA,NA,NA,NA,NA,NA,"",NA,NA,NA,NA,NA,NA,NA,NA,2025-11-18 02:27:41
"12917.39999999106","https://psyc-201.github.io/xiang2023/exp/index1.html?PROLIFIC_PID=REDACTED&STUDY_ID=69168b21477cff9ada6cb980&SESSION_ID=691bd5d46b57be1d7b1b72d3","survey-html-form",48,883953,"0.0-355.0","cbQ0pKUhSj0w+D3yWYQoBGoJvJqjNI+Jo7OBjKWlRugFvqpiXqx9iYzAwURuhYngteh1ishbuW1JDNhA/O6QXlDcfMpHTUSsZkXBf3PFzoKvTNpeHaIV6pGeOIOOJ0sP9I7minTzntYjILGWUG+gFpg68cx8bs0V0QmefNo8+F684XZOWn1OGpSPELIZpE5fm+pMJ2QImio74ZAy9+Mq+ixqaECsid4eVBOvvkDJn7AWE6Uk0ggkP1o9pHRj8JQlF/NeN9etmdTql9DcgfPFpR8oFzIKAYgAKhn3t723XaRkyB5ddwMinvKiIsIvnYkL0VPcdWzWSgnAH6pzLxP31Q==","69168b21477cff9ada6cb980","691bd5d46b57be1d7b1b72d3","index1","<span style='color:red'>Fail,<span style='color:red'>Fail,<span style='color:green'>Lift,<span style='color:green'>Lift,<span style='color:red'>Fail,<span style='color:red'>Fail,<span style='color:red'>Fail,<span style='color:red'>Fail,<span style='color:green'>Lift,<span style='color:red'>Fail,<span style='color:red'>Fail,<span style='color:green'>Lift","<span style='color:red'>Fail,<span style='color:red'>Fail,<span style='color:green'>Lift,<span style='color:green'>Lift,<span style='color:green'>Lift,<span style='color:green'>Lift,<span style='color:red'>Fail,<span style='color:green'>Lift,<span style='color:green'>Lift,<span style='color:green'>Lift,<span style='color:red'>Fail,<span style='color:green'>Lift","<span style='color:red'>Fail,<span style='color:green'>Lift,<span style='color:green'>Lift,<span style='color:red'>Fail,<span style='color:green'>Lift,<span style='color:green'>Lift","0,0,1,1,0,0,0,0,1,0,0,1","0,0,1,1,1,1,0,1,1,1,0,1","0,1,1,0,1,1",10,20,20,"","","","","{""box1"":""5"",""box2"":""5""}","",NA,6,"round2_outcome",3,6,2,5,5,NA,NA,0,0,20,NA,NA,NA,NA,NA,NA,NA,NA,NA,NA,NA,5,5,NA,NA,0,0,20,NA,NA,NA,NA,NA,NA,NA,NA,NA,NA,NA,NA,"",NA,NA,NA,NA,NA,NA,NA,NA,2025-11-18 02:27:41
"3559.9000000059605","https://psyc-201.github.io/xiang2023/exp/index1.html?PROLIFIC_PID=REDACTED&STUDY_ID=69168b21477cff9ada6cb980&SESSION_ID=691bd5d46b57be1d7b1b72d3","survey-html-form",49,887514,"0.0-356.0","cbQ0pKUhSj0w+D3yWYQoBGoJvJqjNI+Jo7OBjKWlRugFvqpiXqx9iYzAwURuhYngteh1ishbuW1JDNhA/O6QXlDcfMpHTUSsZkXBf3PFzoKvTNpeHaIV6pGeOIOOJ0sP9I7minTzntYjILGWUG+gFpg68cx8bs0V0QmefNo8+F684XZOWn1OGpSPELIZpE5fm+pMJ2QImio74ZAy9+Mq+ixqaECsid4eVBOvvkDJn7AWE6Uk0ggkP1o9pHRj8JQlF/NeN9etmdTql9DcgfPFpR8oFzIKAYgAKhn3t723XaRkyB5ddwMinvKiIsIvnYkL0VPcdWzWSgnAH6pzLxP31Q==","69168b21477cff9ada6cb980","691bd5d46b57be1d7b1b72d3","index1","<span style='color:red'>Fail,<span style='color:red'>Fail,<span style='color:green'>Lift,<span style='color:green'>Lift,<span style='color:red'>Fail,<span style='color:red'>Fail,<span style='color:red'>Fail,<span style='color:red'>Fail,<span style='color:green'>Lift,<span style='color:red'>Fail,<span style='color:red'>Fail,<span style='color:green'>Lift","<span style='color:red'>Fail,<span style='color:red'>Fail,<span style='color:green'>Lift,<span style='color:green'>Lift,<span style='color:green'>Lift,<span style='color:green'>Lift,<span style='color:red'>Fail,<span style='color:green'>Lift,<span style='color:green'>Lift,<span style='color:green'>Lift,<span style='color:red'>Fail,<span style='color:green'>Lift","<span style='color:red'>Fail,<span style='color:green'>Lift,<span style='color:green'>Lift,<span style='color:red'>Fail,<span style='color:green'>Lift,<span style='color:green'>Lift","0,0,1,1,0,0,0,0,1,0,0,1","0,0,1,1,1,1,0,1,1,1,0,1","0,1,1,0,1,1",10,20,20,"","","","","{""box1"":""50""}","",NA,6,"round3_ready",4,6,3,NA,NA,NA,NA,NA,NA,NA,NA,NA,NA,NA,NA,NA,NA,50,50,NA,NA,NA,NA,NA,NA,NA,NA,NA,50,50,NA,NA,NA,NA,NA,NA,NA,NA,NA,NA,"",NA,NA,NA,NA,NA,NA,NA,NA,2025-11-18 02:27:41
"8126.4000000059605","https://psyc-201.github.io/xiang2023/exp/index1.html?PROLIFIC_PID=REDACTED&STUDY_ID=69168b21477cff9ada6cb980&SESSION_ID=691bd5d46b57be1d7b1b72d3","survey-html-form",50,895641,"0.0-358.0-0.0","cbQ0pKUhSj0w+D3yWYQoBGoJvJqjNI+Jo7OBjKWlRugFvqpiXqx9iYzAwURuhYngteh1ishbuW1JDNhA/O6QXlDcfMpHTUSsZkXBf3PFzoKvTNpeHaIV6pGeOIOOJ0sP9I7minTzntYjILGWUG+gFpg68cx8bs0V0QmefNo8+F684XZOWn1OGpSPELIZpE5fm+pMJ2QImio74ZAy9+Mq+ixqaECsid4eVBOvvkDJn7AWE6Uk0ggkP1o9pHRj8JQlF/NeN9etmdTql9DcgfPFpR8oFzIKAYgAKhn3t723XaRkyB5ddwMinvKiIsIvnYkL0VPcdWzWSgnAH6pzLxP31Q==","69168b21477cff9ada6cb980","691bd5d46b57be1d7b1b72d3","index1","<span style='color:red'>Fail,<span style='color:red'>Fail,<span style='color:green'>Lift,<span style='color:green'>Lift,<span style='color:red'>Fail,<span style='color:red'>Fail,<span style='color:red'>Fail,<span style='color:red'>Fail,<span style='color:green'>Lift,<span style='color:red'>Fail,<span style='color:red'>Fail,<span style='color:green'>Lift","<span style='color:red'>Fail,<span style='color:red'>Fail,<span style='color:green'>Lift,<span style='color:green'>Lift,<span style='color:green'>Lift,<span style='color:green'>Lift,<span style='color:red'>Fail,<span style='color:green'>Lift,<span style='color:green'>Lift,<span style='color:green'>Lift,<span style='color:red'>Fail,<span style='color:green'>Lift","<span style='color:red'>Fail,<span style='color:green'>Lift,<span style='color:green'>Lift,<span style='color:red'>Fail,<span style='color:green'>Lift,<span style='color:green'>Lift","0,0,1,1,0,0,0,0,1,0,0,1","0,0,1,1,1,1,0,1,1,1,0,1","0,1,1,0,1,1",10,20,20,"","","","","{""box1"":""5"",""box2"":""5"",""box3"":""50"",""box4"":""50""}","",NA,6,"round3_fail",5,6,3,5,5,NA,NA,0,0,20,NA,NA,NA,NA,NA,NA,NA,NA,NA,NA,NA,NA,NA,NA,NA,NA,NA,NA,NA,NA,5,5,NA,NA,0,0,20,0,1,NA,"",NA,NA,NA,NA,NA,NA,NA,NA,2025-11-18 02:27:41
"null","https://psyc-201.github.io/xiang2023/exp/index1.html?PROLIFIC_PID=REDACTED&STUDY_ID=69168b21477cff9ada6cb980&SESSION_ID=691bd5d46b57be1d7b1b72d3","html-keyboard-response",51,900650,"0.0-359.0-0.0","cbQ0pKUhSj0w+D3yWYQoBGoJvJqjNI+Jo7OBjKWlRugFvqpiXqx9iYzAwURuhYngteh1ishbuW1JDNhA/O6QXlDcfMpHTUSsZkXBf3PFzoKvTNpeHaIV6pGeOIOOJ0sP9I7minTzntYjILGWUG+gFpg68cx8bs0V0QmefNo8+F684XZOWn1OGpSPELIZpE5fm+pMJ2QImio74ZAy9+Mq+ixqaECsid4eVBOvvkDJn7AWE6Uk0ggkP1o9pHRj8JQlF/NeN9etmdTql9DcgfPFpR8oFzIKAYgAKhn3t723XaRkyB5ddwMinvKiIsIvnYkL0VPcdWzWSgnAH6pzLxP31Q==","69168b21477cff9ada6cb980","691bd5d46b57be1d7b1b72d3","index1","<span style='color:red'>Fail,<span style='color:red'>Fail,<span style='color:green'>Lift,<span style='color:green'>Lift,<span style='color:red'>Fail,<span style='color:red'>Fail,<span style='color:red'>Fail,<span style='color:red'>Fail,<span style='color:green'>Lift,<span style='color:red'>Fail,<span style='color:red'>Fail,<span style='color:green'>Lift","<span style='color:red'>Fail,<span style='color:red'>Fail,<span style='color:green'>Lift,<span style='color:green'>Lift,<span style='color:green'>Lift,<span style='color:green'>Lift,<span style='color:red'>Fail,<span style='color:green'>Lift,<span style='color:green'>Lift,<span style='color:green'>Lift,<span style='color:red'>Fail,<span style='color:green'>Lift","<span style='color:red'>Fail,<span style='color:green'>Lift,<span style='color:green'>Lift,<span style='color:red'>Fail,<span style='color:green'>Lift,<span style='color:green'>Lift","0,0,1,1,0,0,0,0,1,0,0,1","0,0,1,1,1,1,0,1,1,1,0,1","0,1,1,0,1,1",10,20,20,"","","<p> <b>Oops you failed an attention check!</b> </p><p> <b>We will have to discard your data if you fail another one.</b> </p><p> <b>Please pay more attention!</b> </p>","null","","",NA,6,"warning",NA,NA,NA,NA,NA,NA,NA,NA,NA,NA,NA,NA,NA,NA,NA,NA,NA,NA,NA,NA,NA,NA,NA,NA,NA,NA,NA,NA,NA,NA,NA,NA,NA,NA,NA,NA,NA,NA,NA,1,"",NA,NA,NA,NA,NA,NA,NA,NA,2025-11-18 02:27:41
