"rt","url","trial_type","trial_index","time_elapsed","internal_node_id","encryptedProlificId","studyId","sessionId","expIndex","round1_outcomes","round2_outcomes","round3_outcomes","round1_o","round2_o","round3_o","round1_reward","round2_reward","round3_reward","success","view_history","stimulus","key_press","responses","question_order","j","Stage","stage","contest","round","strength_a","strength_b","effort_a","effort_b","outcome_a","outcome_b","reward","r1_strength_a","r1_strength_b","r1_effort_a","r1_effort_b","r1_outcome_a","r1_outcome_b","r1_reward","probability_a","probability_b","r2_prob_a","r2_prob_b","r2_strength_a","r2_strength_b","r2_effort_a","r2_effort_b","r2_outcome_a","r2_outcome_b","r2_reward","r3_prob_a","r3_prob_b","r3_strength_a","r3_strength_b","r3_effort_a","r3_effort_b","r3_outcome_a","r3_outcome_b","r3_reward","attention_check","count","screen","pick_contest","pick_round","pick_side","trial_probability","trial_outcome","bonus","button_pressed","attention_sum","attention","datapipe_meta.attributes.date_modified"
"58165.700000047684","https://psyc-201.github.io/xiang2023/exp/index1.html?PROLIFIC_PID=REDACTED&STUDY_ID=69168b21477cff9ada6cb980&SESSION_ID=691bd8df1d3639c4e561c76e","external-html",0,58285,"0.0-0.0","nBx8ynMBR46TuR9c3j3gLiZE3SWxB/+XSRehjNnK18cL+6N6ICPYgvsgJ7COmEA+J2D5rFxZ+jhMv6o+T4+MyGT3unJ4LaLrqaLDE+rMCIARyVG2UAcuRWnsHjGxwbOzuNv8SwwLODOvZV2iRUM02eMwocQUR52Noa2CS0QHvLAQoaAZbQK7OMvW7EK2l3gskr9YwKXgnveu8nBu1m2xTXMYZ4KYRbNPz3MJziTjByznMJYLiCMXlsRwz7+WBpLQ1+qBRskzh6CNdyOnnztmBuxEFuYvzyTCwJXiCKjyzJ8JJYwIEPDqBswwqVR2+G4+zccTbMZLqJIb3uN6IMhpeg==","69168b21477cff9ada6cb980","691bd8df1d3639c4e561c76e","index1","<span style='color:red'>Fail,<span style='color:red'>Fail,<span style='color:green'>Lift,<span style='color:green'>Lift,<span style='color:red'>Fail,<span style='color:red'>Fail,<span style='color:red'>Fail,<span style='color:red'>Fail,<span style='color:green'>Lift,<span style='color:red'>Fail,<span style='color:red'>Fail,<span style='color:green'>Lift","<span style='color:red'>Fail,<span style='color:red'>Fail,<span style='color:green'>Lift,<span style='color:green'>Lift,<span style='color:green'>Lift,<span style='color:green'>Lift,<span style='color:green'>Lift,<span style='color:red'>Fail,<span style='color:green'>Lift,<span style='color:green'>Lift,<span style='color:red'>Fail,<span style='color:green'>Lift","<span style='color:red'>Fail,<span style='color:green'>Lift,<span style='color:green'>Lift,<span style='color:red'>Fail,<span style='color:green'>Lift,<span style='color:green'>Lift","0,0,1,1,0,0,0,0,1,0,0,1","0,0,1,1,1,1,1,0,1,1,0,1","0,1,1,0,1,1",10,20,20,"","","","","","",NA,"",NA,NA,NA,NA,NA,NA,NA,NA,NA,NA,NA,NA,NA,NA,NA,NA,NA,NA,NA,NA,NA,NA,NA,NA,NA,NA,NA,NA,NA,NA,NA,NA,NA,NA,NA,NA,NA,NA,NA,"",NA,NA,NA,NA,NA,NA,NA,NA,NA,NA
"","https://psyc-201.github.io/xiang2023/exp/index1.html?PROLIFIC_PID=REDACTED&STUDY_ID=69168b21477cff9ada6cb980&SESSION_ID=691bd8df1d3639c4e561c76e","fullscreen",1,65773,"0.0-1.0","nBx8ynMBR46TuR9c3j3gLiZE3SWxB/+XSRehjNnK18cL+6N6ICPYgvsgJ7COmEA+J2D5rFxZ+jhMv6o+T4+MyGT3unJ4LaLrqaLDE+rMCIARyVG2UAcuRWnsHjGxwbOzuNv8SwwLODOvZV2iRUM02eMwocQUR52Noa2CS0QHvLAQoaAZbQK7OMvW7EK2l3gskr9YwKXgnveu8nBu1m2xTXMYZ4KYRbNPz3MJziTjByznMJYLiCMXlsRwz7+WBpLQ1+qBRskzh6CNdyOnnztmBuxEFuYvzyTCwJXiCKjyzJ8JJYwIEPDqBswwqVR2+G4+zccTbMZLqJIb3uN6IMhpeg==","69168b21477cff9ada6cb980","691bd8df1d3639c4e561c76e","index1","<span style='color:red'>Fail,<span style='color:red'>Fail,<span style='color:green'>Lift,<span style='color:green'>Lift,<span style='color:red'>Fail,<span style='color:red'>Fail,<span style='color:red'>Fail,<span style='color:red'>Fail,<span style='color:green'>Lift,<span style='color:red'>Fail,<span style='color:red'>Fail,<span style='color:green'>Lift","<span style='color:red'>Fail,<span style='color:red'>Fail,<span style='color:green'>Lift,<span style='color:green'>Lift,<span style='color:green'>Lift,<span style='color:green'>Lift,<span style='color:green'>Lift,<span style='color:red'>Fail,<span style='color:green'>Lift,<span style='color:green'>Lift,<span style='color:red'>Fail,<span style='color:green'>Lift","<span style='color:red'>Fail,<span style='color:green'>Lift,<span style='color:green'>Lift,<span style='color:red'>Fail,<span style='color:green'>Lift,<span style='color:green'>Lift","0,0,1,1,0,0,0,0,1,0,0,1","0,0,1,1,1,1,1,0,1,1,0,1","0,1,1,0,1,1",10,20,20,"true","","","","","",NA,"",NA,NA,NA,NA,NA,NA,NA,NA,NA,NA,NA,NA,NA,NA,NA,NA,NA,NA,NA,NA,NA,NA,NA,NA,NA,NA,NA,NA,NA,NA,NA,NA,NA,NA,NA,NA,NA,NA,NA,"",NA,NA,NA,NA,NA,NA,NA,NA,NA,NA
"150070.39999997616","https://psyc-201.github.io/xiang2023/exp/index1.html?PROLIFIC_PID=REDACTED&STUDY_ID=69168b21477cff9ada6cb980&SESSION_ID=691bd8df1d3639c4e561c76e","instructions",2,215844,"0.0-2.0","nBx8ynMBR46TuR9c3j3gLiZE3SWxB/+XSRehjNnK18cL+6N6ICPYgvsgJ7COmEA+J2D5rFxZ+jhMv6o+T4+MyGT3unJ4LaLrqaLDE+rMCIARyVG2UAcuRWnsHjGxwbOzuNv8SwwLODOvZV2iRUM02eMwocQUR52Noa2CS0QHvLAQoaAZbQK7OMvW7EK2l3gskr9YwKXgnveu8nBu1m2xTXMYZ4KYRbNPz3MJziTjByznMJYLiCMXlsRwz7+WBpLQ1+qBRskzh6CNdyOnnztmBuxEFuYvzyTCwJXiCKjyzJ8JJYwIEPDqBswwqVR2+G4+zccTbMZLqJIb3uN6IMhpeg==","69168b21477cff9ada6cb980","691bd8df1d3639c4e561c76e","index1","<span style='color:red'>Fail,<span style='color:red'>Fail,<span style='color:green'>Lift,<span style='color:green'>Lift,<span style='color:red'>Fail,<span style='color:red'>Fail,<span style='color:red'>Fail,<span style='color:red'>Fail,<span style='color:green'>Lift,<span style='color:red'>Fail,<span style='color:red'>Fail,<span style='color:green'>Lift","<span style='color:red'>Fail,<span style='color:red'>Fail,<span style='color:green'>Lift,<span style='color:green'>Lift,<span style='color:green'>Lift,<span style='color:green'>Lift,<span style='color:green'>Lift,<span style='color:red'>Fail,<span style='color:green'>Lift,<span style='color:green'>Lift,<span style='color:red'>Fail,<span style='color:green'>Lift","<span style='color:red'>Fail,<span style='color:green'>Lift,<span style='color:green'>Lift,<span style='color:red'>Fail,<span style='color:green'>Lift,<span style='color:green'>Lift","0,0,1,1,0,0,0,0,1,0,0,1","0,0,1,1,1,1,1,0,1,1,0,1","0,1,1,0,1,1",10,20,20,"","[{""page_index"":0,""viewing_time"":28381.899999976158},{""page_index"":1,""viewing_time"":17968},{""page_index"":2,""viewing_time"":26063.899999976158},{""page_index"":3,""viewing_time"":47088},{""page_index"":4,""viewing_time"":10967.899999976158},{""page_index"":5,""viewing_time"":14168},{""page_index"":6,""viewing_time"":5432.399999976158}]","","","","",NA,"",NA,NA,NA,NA,NA,NA,NA,NA,NA,NA,NA,NA,NA,NA,NA,NA,NA,NA,NA,NA,NA,NA,NA,NA,NA,NA,NA,NA,NA,NA,NA,NA,NA,NA,NA,NA,NA,NA,NA,"",NA,NA,NA,NA,NA,NA,NA,NA,NA,NA
"null","https://psyc-201.github.io/xiang2023/exp/index1.html?PROLIFIC_PID=REDACTED&STUDY_ID=69168b21477cff9ada6cb980&SESSION_ID=691bd8df1d3639c4e561c76e","html-keyboard-response",3,216846,"0.0-3.0","nBx8ynMBR46TuR9c3j3gLiZE3SWxB/+XSRehjNnK18cL+6N6ICPYgvsgJ7COmEA+J2D5rFxZ+jhMv6o+T4+MyGT3unJ4LaLrqaLDE+rMCIARyVG2UAcuRWnsHjGxwbOzuNv8SwwLODOvZV2iRUM02eMwocQUR52Noa2CS0QHvLAQoaAZbQK7OMvW7EK2l3gskr9YwKXgnveu8nBu1m2xTXMYZ4KYRbNPz3MJziTjByznMJYLiCMXlsRwz7+WBpLQ1+qBRskzh6CNdyOnnztmBuxEFuYvzyTCwJXiCKjyzJ8JJYwIEPDqBswwqVR2+G4+zccTbMZLqJIb3uN6IMhpeg==","69168b21477cff9ada6cb980","691bd8df1d3639c4e561c76e","index1","<span style='color:red'>Fail,<span style='color:red'>Fail,<span style='color:green'>Lift,<span style='color:green'>Lift,<span style='color:red'>Fail,<span style='color:red'>Fail,<span style='color:red'>Fail,<span style='color:red'>Fail,<span style='color:green'>Lift,<span style='color:red'>Fail,<span style='color:red'>Fail,<span style='color:green'>Lift","<span style='color:red'>Fail,<span style='color:red'>Fail,<span style='color:green'>Lift,<span style='color:green'>Lift,<span style='color:green'>Lift,<span style='color:green'>Lift,<span style='color:green'>Lift,<span style='color:red'>Fail,<span style='color:green'>Lift,<span style='color:green'>Lift,<span style='color:red'>Fail,<span style='color:green'>Lift","<span style='color:red'>Fail,<span style='color:green'>Lift,<span style='color:green'>Lift,<span style='color:red'>Fail,<span style='color:green'>Lift,<span style='color:green'>Lift","0,0,1,1,0,0,0,0,1,0,0,1","0,0,1,1,1,1,1,0,1,1,0,1","0,1,1,0,1,1",10,20,20,"",""," ","null","","",NA,"",NA,NA,NA,NA,NA,NA,NA,NA,NA,NA,NA,NA,NA,NA,NA,NA,NA,NA,NA,NA,NA,NA,NA,NA,NA,NA,NA,NA,NA,NA,NA,NA,NA,NA,NA,NA,NA,NA,NA,"",NA,NA,NA,NA,NA,NA,NA,NA,NA,NA
"34631.199999928474","https://psyc-201.github.io/xiang2023/exp/index1.html?PROLIFIC_PID=REDACTED&STUDY_ID=69168b21477cff9ada6cb980&SESSION_ID=691bd8df1d3639c4e561c76e","survey-multi-choice",4,251478,"0.0-4.0","nBx8ynMBR46TuR9c3j3gLiZE3SWxB/+XSRehjNnK18cL+6N6ICPYgvsgJ7COmEA+J2D5rFxZ+jhMv6o+T4+MyGT3unJ4LaLrqaLDE+rMCIARyVG2UAcuRWnsHjGxwbOzuNv8SwwLODOvZV2iRUM02eMwocQUR52Noa2CS0QHvLAQoaAZbQK7OMvW7EK2l3gskr9YwKXgnveu8nBu1m2xTXMYZ4KYRbNPz3MJziTjByznMJYLiCMXlsRwz7+WBpLQ1+qBRskzh6CNdyOnnztmBuxEFuYvzyTCwJXiCKjyzJ8JJYwIEPDqBswwqVR2+G4+zccTbMZLqJIb3uN6IMhpeg==","69168b21477cff9ada6cb980","691bd8df1d3639c4e561c76e","index1","<span style='color:red'>Fail,<span style='color:red'>Fail,<span style='color:green'>Lift,<span style='color:green'>Lift,<span style='color:red'>Fail,<span style='color:red'>Fail,<span style='color:red'>Fail,<span style='color:red'>Fail,<span style='color:green'>Lift,<span style='color:red'>Fail,<span style='color:red'>Fail,<span style='color:green'>Lift","<span style='color:red'>Fail,<span style='color:red'>Fail,<span style='color:green'>Lift,<span style='color:green'>Lift,<span style='color:green'>Lift,<span style='color:green'>Lift,<span style='color:green'>Lift,<span style='color:red'>Fail,<span style='color:green'>Lift,<span style='color:green'>Lift,<span style='color:red'>Fail,<span style='color:green'>Lift","<span style='color:red'>Fail,<span style='color:green'>Lift,<span style='color:green'>Lift,<span style='color:red'>Fail,<span style='color:green'>Lift,<span style='color:green'>Lift","0,0,1,1,0,0,0,0,1,0,0,1","0,0,1,1,1,1,1,0,1,1,0,1","0,1,1,0,1,1",10,20,20,"","","","","{""Q0"":""It consists of multiple contests, each contest with three rounds."",""Q1"":""When a new contest begins."",""Q2"":""The box weight always stays the same (equivalent to strength of 5)."",""Q3"":""Each will get $20."",""Q4"":""How close my guesses are to the actual outcome.""}","[0,1,2,3,4]",NA,"",NA,NA,NA,NA,NA,NA,NA,NA,NA,NA,NA,NA,NA,NA,NA,NA,NA,NA,NA,NA,NA,NA,NA,NA,NA,NA,NA,NA,NA,NA,NA,NA,NA,NA,NA,NA,NA,NA,NA,"",NA,NA,NA,NA,NA,NA,NA,NA,NA,NA
"12873.600000023842","https://psyc-201.github.io/xiang2023/exp/index1.html?PROLIFIC_PID=REDACTED&STUDY_ID=69168b21477cff9ada6cb980&SESSION_ID=691bd8df1d3639c4e561c76e","instructions",5,264356,"0.0-305.0","nBx8ynMBR46TuR9c3j3gLiZE3SWxB/+XSRehjNnK18cL+6N6ICPYgvsgJ7COmEA+J2D5rFxZ+jhMv6o+T4+MyGT3unJ4LaLrqaLDE+rMCIARyVG2UAcuRWnsHjGxwbOzuNv8SwwLODOvZV2iRUM02eMwocQUR52Noa2CS0QHvLAQoaAZbQK7OMvW7EK2l3gskr9YwKXgnveu8nBu1m2xTXMYZ4KYRbNPz3MJziTjByznMJYLiCMXlsRwz7+WBpLQ1+qBRskzh6CNdyOnnztmBuxEFuYvzyTCwJXiCKjyzJ8JJYwIEPDqBswwqVR2+G4+zccTbMZLqJIb3uN6IMhpeg==","69168b21477cff9ada6cb980","691bd8df1d3639c4e561c76e","index1","<span style='color:red'>Fail,<span style='color:red'>Fail,<span style='color:green'>Lift,<span style='color:green'>Lift,<span style='color:red'>Fail,<span style='color:red'>Fail,<span style='color:red'>Fail,<span style='color:red'>Fail,<span style='color:green'>Lift,<span style='color:red'>Fail,<span style='color:red'>Fail,<span style='color:green'>Lift","<span style='color:red'>Fail,<span style='color:red'>Fail,<span style='color:green'>Lift,<span style='color:green'>Lift,<span style='color:green'>Lift,<span style='color:green'>Lift,<span style='color:green'>Lift,<span style='color:red'>Fail,<span style='color:green'>Lift,<span style='color:green'>Lift,<span style='color:red'>Fail,<span style='color:green'>Lift","<span style='color:red'>Fail,<span style='color:green'>Lift,<span style='color:green'>Lift,<span style='color:red'>Fail,<span style='color:green'>Lift,<span style='color:green'>Lift","0,0,1,1,0,0,0,0,1,0,0,1","0,0,1,1,1,1,1,0,1,1,0,1","0,1,1,0,1,1",10,20,20,"","[{""page_index"":0,""viewing_time"":8345.399999976158},{""page_index"":1,""viewing_time"":4528}]","","","","",NA,"",NA,NA,NA,NA,NA,NA,NA,NA,NA,NA,NA,NA,NA,NA,NA,NA,NA,NA,NA,NA,NA,NA,NA,NA,NA,NA,NA,NA,NA,NA,NA,NA,NA,NA,NA,NA,NA,NA,NA,"",NA,NA,NA,NA,NA,NA,NA,NA,NA,NA
"null","https://psyc-201.github.io/xiang2023/exp/index1.html?PROLIFIC_PID=REDACTED&STUDY_ID=69168b21477cff9ada6cb980&SESSION_ID=691bd8df1d3639c4e561c76e","html-keyboard-response",6,265357,"0.0-306.0","nBx8ynMBR46TuR9c3j3gLiZE3SWxB/+XSRehjNnK18cL+6N6ICPYgvsgJ7COmEA+J2D5rFxZ+jhMv6o+T4+MyGT3unJ4LaLrqaLDE+rMCIARyVG2UAcuRWnsHjGxwbOzuNv8SwwLODOvZV2iRUM02eMwocQUR52Noa2CS0QHvLAQoaAZbQK7OMvW7EK2l3gskr9YwKXgnveu8nBu1m2xTXMYZ4KYRbNPz3MJziTjByznMJYLiCMXlsRwz7+WBpLQ1+qBRskzh6CNdyOnnztmBuxEFuYvzyTCwJXiCKjyzJ8JJYwIEPDqBswwqVR2+G4+zccTbMZLqJIb3uN6IMhpeg==","69168b21477cff9ada6cb980","691bd8df1d3639c4e561c76e","index1","<span style='color:red'>Fail,<span style='color:red'>Fail,<span style='color:green'>Lift,<span style='color:green'>Lift,<span style='color:red'>Fail,<span style='color:red'>Fail,<span style='color:red'>Fail,<span style='color:red'>Fail,<span style='color:green'>Lift,<span style='color:red'>Fail,<span style='color:red'>Fail,<span style='color:green'>Lift","<span style='color:red'>Fail,<span style='color:red'>Fail,<span style='color:green'>Lift,<span style='color:green'>Lift,<span style='color:green'>Lift,<span style='color:green'>Lift,<span style='color:green'>Lift,<span style='color:red'>Fail,<span style='color:green'>Lift,<span style='color:green'>Lift,<span style='color:red'>Fail,<span style='color:green'>Lift","<span style='color:red'>Fail,<span style='color:green'>Lift,<span style='color:green'>Lift,<span style='color:red'>Fail,<span style='color:green'>Lift,<span style='color:green'>Lift","0,0,1,1,0,0,0,0,1,0,0,1","0,0,1,1,1,1,1,0,1,1,0,1","0,1,1,0,1,1",10,20,20,"",""," ","null","","",1,"",NA,NA,NA,NA,NA,NA,NA,NA,NA,NA,NA,NA,NA,NA,NA,NA,NA,NA,NA,NA,NA,NA,NA,NA,NA,NA,NA,NA,NA,NA,NA,NA,NA,NA,NA,NA,NA,NA,NA,"",NA,NA,NA,NA,NA,NA,NA,NA,NA,NA
"null","https://psyc-201.github.io/xiang2023/exp/index1.html?PROLIFIC_PID=REDACTED&STUDY_ID=69168b21477cff9ada6cb980&SESSION_ID=691bd8df1d3639c4e561c76e","html-keyboard-response",7,268358,"0.0-307.0","nBx8ynMBR46TuR9c3j3gLiZE3SWxB/+XSRehjNnK18cL+6N6ICPYgvsgJ7COmEA+J2D5rFxZ+jhMv6o+T4+MyGT3unJ4LaLrqaLDE+rMCIARyVG2UAcuRWnsHjGxwbOzuNv8SwwLODOvZV2iRUM02eMwocQUR52Noa2CS0QHvLAQoaAZbQK7OMvW7EK2l3gskr9YwKXgnveu8nBu1m2xTXMYZ4KYRbNPz3MJziTjByznMJYLiCMXlsRwz7+WBpLQ1+qBRskzh6CNdyOnnztmBuxEFuYvzyTCwJXiCKjyzJ8JJYwIEPDqBswwqVR2+G4+zccTbMZLqJIb3uN6IMhpeg==","69168b21477cff9ada6cb980","691bd8df1d3639c4e561c76e","index1","<span style='color:red'>Fail,<span style='color:red'>Fail,<span style='color:green'>Lift,<span style='color:green'>Lift,<span style='color:red'>Fail,<span style='color:red'>Fail,<span style='color:red'>Fail,<span style='color:red'>Fail,<span style='color:green'>Lift,<span style='color:red'>Fail,<span style='color:red'>Fail,<span style='color:green'>Lift","<span style='color:red'>Fail,<span style='color:red'>Fail,<span style='color:green'>Lift,<span style='color:green'>Lift,<span style='color:green'>Lift,<span style='color:green'>Lift,<span style='color:green'>Lift,<span style='color:red'>Fail,<span style='color:green'>Lift,<span style='color:green'>Lift,<span style='color:red'>Fail,<span style='color:green'>Lift","<span style='color:red'>Fail,<span style='color:green'>Lift,<span style='color:green'>Lift,<span style='color:red'>Fail,<span style='color:green'>Lift,<span style='color:green'>Lift","0,0,1,1,0,0,0,0,1,0,0,1","0,0,1,1,1,1,1,0,1,1,0,1","0,1,1,0,1,1",10,20,20,"","","<p style='font-size:30px'><b> New Contest! </b></p>","null","","",1,"",NA,NA,NA,NA,NA,NA,NA,NA,NA,NA,NA,NA,NA,NA,NA,NA,NA,NA,NA,NA,NA,NA,NA,NA,NA,NA,NA,NA,NA,NA,NA,NA,NA,NA,NA,NA,NA,NA,NA,"",NA,NA,NA,NA,NA,NA,NA,NA,NA,NA
"50436.200000047684","https://psyc-201.github.io/xiang2023/exp/index1.html?PROLIFIC_PID=REDACTED&STUDY_ID=69168b21477cff9ada6cb980&SESSION_ID=691bd8df1d3639c4e561c76e","survey-html-form",8,318796,"0.0-308.0","nBx8ynMBR46TuR9c3j3gLiZE3SWxB/+XSRehjNnK18cL+6N6ICPYgvsgJ7COmEA+J2D5rFxZ+jhMv6o+T4+MyGT3unJ4LaLrqaLDE+rMCIARyVG2UAcuRWnsHjGxwbOzuNv8SwwLODOvZV2iRUM02eMwocQUR52Noa2CS0QHvLAQoaAZbQK7OMvW7EK2l3gskr9YwKXgnveu8nBu1m2xTXMYZ4KYRbNPz3MJziTjByznMJYLiCMXlsRwz7+WBpLQ1+qBRskzh6CNdyOnnztmBuxEFuYvzyTCwJXiCKjyzJ8JJYwIEPDqBswwqVR2+G4+zccTbMZLqJIb3uN6IMhpeg==","69168b21477cff9ada6cb980","691bd8df1d3639c4e561c76e","index1","<span style='color:red'>Fail,<span style='color:red'>Fail,<span style='color:green'>Lift,<span style='color:green'>Lift,<span style='color:red'>Fail,<span style='color:red'>Fail,<span style='color:red'>Fail,<span style='color:red'>Fail,<span style='color:green'>Lift,<span style='color:red'>Fail,<span style='color:red'>Fail,<span style='color:green'>Lift","<span style='color:red'>Fail,<span style='color:red'>Fail,<span style='color:green'>Lift,<span style='color:green'>Lift,<span style='color:green'>Lift,<span style='color:green'>Lift,<span style='color:green'>Lift,<span style='color:red'>Fail,<span style='color:green'>Lift,<span style='color:green'>Lift,<span style='color:red'>Fail,<span style='color:green'>Lift","<span style='color:red'>Fail,<span style='color:green'>Lift,<span style='color:green'>Lift,<span style='color:red'>Fail,<span style='color:green'>Lift,<span style='color:green'>Lift","0,0,1,1,0,0,0,0,1,0,0,1","0,0,1,1,1,1,1,0,1,1,0,1","0,1,1,0,1,1",10,20,20,"","","","","{""box1"":""5"",""box2"":""5"",""box3"":""100"",""box4"":""100""}","",1,"round1_outcome",1,1,1,5,5,100,100,1,1,10,5,5,100,100,1,1,10,NA,NA,NA,NA,NA,NA,NA,NA,NA,NA,NA,NA,NA,NA,NA,NA,NA,NA,NA,NA,NA,NA,"",NA,NA,NA,NA,NA,NA,NA,NA,NA,NA
"11870.700000047684","https://psyc-201.github.io/xiang2023/exp/index1.html?PROLIFIC_PID=REDACTED&STUDY_ID=69168b21477cff9ada6cb980&SESSION_ID=691bd8df1d3639c4e561c76e","survey-html-form",9,330668,"0.0-309.0","nBx8ynMBR46TuR9c3j3gLiZE3SWxB/+XSRehjNnK18cL+6N6ICPYgvsgJ7COmEA+J2D5rFxZ+jhMv6o+T4+MyGT3unJ4LaLrqaLDE+rMCIARyVG2UAcuRWnsHjGxwbOzuNv8SwwLODOvZV2iRUM02eMwocQUR52Noa2CS0QHvLAQoaAZbQK7OMvW7EK2l3gskr9YwKXgnveu8nBu1m2xTXMYZ4KYRbNPz3MJziTjByznMJYLiCMXlsRwz7+WBpLQ1+qBRskzh6CNdyOnnztmBuxEFuYvzyTCwJXiCKjyzJ8JJYwIEPDqBswwqVR2+G4+zccTbMZLqJIb3uN6IMhpeg==","69168b21477cff9ada6cb980","691bd8df1d3639c4e561c76e","index1","<span style='color:red'>Fail,<span style='color:red'>Fail,<span style='color:green'>Lift,<span style='color:green'>Lift,<span style='color:red'>Fail,<span style='color:red'>Fail,<span style='color:red'>Fail,<span style='color:red'>Fail,<span style='color:green'>Lift,<span style='color:red'>Fail,<span style='color:red'>Fail,<span style='color:green'>Lift","<span style='color:red'>Fail,<span style='color:red'>Fail,<span style='color:green'>Lift,<span style='color:green'>Lift,<span style='color:green'>Lift,<span style='color:green'>Lift,<span style='color:green'>Lift,<span style='color:red'>Fail,<span style='color:green'>Lift,<span style='color:green'>Lift,<span style='color:red'>Fail,<span style='color:green'>Lift","<span style='color:red'>Fail,<span style='color:green'>Lift,<span style='color:green'>Lift,<span style='color:red'>Fail,<span style='color:green'>Lift,<span style='color:green'>Lift","0,0,1,1,0,0,0,0,1,0,0,1","0,0,1,1,1,1,1,0,1,1,0,1","0,1,1,0,1,1",10,20,20,"","","","","{""box1"":""100"",""box2"":""100""}","",1,"round2_ready",2,1,2,NA,NA,NA,NA,NA,NA,NA,NA,NA,NA,NA,NA,NA,NA,100,100,100,100,NA,NA,NA,NA,NA,NA,NA,NA,NA,NA,NA,NA,NA,NA,NA,NA,NA,NA,"",NA,NA,NA,NA,NA,NA,NA,NA,NA,NA
"16990.600000023842","https://psyc-201.github.io/xiang2023/exp/index1.html?PROLIFIC_PID=REDACTED&STUDY_ID=69168b21477cff9ada6cb980&SESSION_ID=691bd8df1d3639c4e561c76e","survey-html-form",10,347660,"0.0-310.0","nBx8ynMBR46TuR9c3j3gLiZE3SWxB/+XSRehjNnK18cL+6N6ICPYgvsgJ7COmEA+J2D5rFxZ+jhMv6o+T4+MyGT3unJ4LaLrqaLDE+rMCIARyVG2UAcuRWnsHjGxwbOzuNv8SwwLODOvZV2iRUM02eMwocQUR52Noa2CS0QHvLAQoaAZbQK7OMvW7EK2l3gskr9YwKXgnveu8nBu1m2xTXMYZ4KYRbNPz3MJziTjByznMJYLiCMXlsRwz7+WBpLQ1+qBRskzh6CNdyOnnztmBuxEFuYvzyTCwJXiCKjyzJ8JJYwIEPDqBswwqVR2+G4+zccTbMZLqJIb3uN6IMhpeg==","69168b21477cff9ada6cb980","691bd8df1d3639c4e561c76e","index1","<span style='color:red'>Fail,<span style='color:red'>Fail,<span style='color:green'>Lift,<span style='color:green'>Lift,<span style='color:red'>Fail,<span style='color:red'>Fail,<span style='color:red'>Fail,<span style='color:red'>Fail,<span style='color:green'>Lift,<span style='color:red'>Fail,<span style='color:red'>Fail,<span style='color:green'>Lift","<span style='color:red'>Fail,<span style='color:red'>Fail,<span style='color:green'>Lift,<span style='color:green'>Lift,<span style='color:green'>Lift,<span style='color:green'>Lift,<span style='color:green'>Lift,<span style='color:red'>Fail,<span style='color:green'>Lift,<span style='color:green'>Lift,<span style='color:red'>Fail,<span style='color:green'>Lift","<span style='color:red'>Fail,<span style='color:green'>Lift,<span style='color:green'>Lift,<span style='color:red'>Fail,<span style='color:green'>Lift,<span style='color:green'>Lift","0,0,1,1,0,0,0,0,1,0,0,1","0,0,1,1,1,1,1,0,1,1,0,1","0,1,1,0,1,1",10,20,20,"","","","","{""box1"":""5"",""box2"":""5"",""box3"":""100"",""box4"":""100""}","",1,"round2_outcome",3,1,2,5,5,100,100,1,1,20,NA,NA,NA,NA,NA,NA,NA,NA,NA,NA,NA,5,5,100,100,1,1,20,NA,NA,NA,NA,NA,NA,NA,NA,NA,NA,NA,"",NA,NA,NA,NA,NA,NA,NA,NA,NA,NA
"5350.399999976158","https://psyc-201.github.io/xiang2023/exp/index1.html?PROLIFIC_PID=REDACTED&STUDY_ID=69168b21477cff9ada6cb980&SESSION_ID=691bd8df1d3639c4e561c76e","survey-html-form",11,353012,"0.0-311.0","nBx8ynMBR46TuR9c3j3gLiZE3SWxB/+XSRehjNnK18cL+6N6ICPYgvsgJ7COmEA+J2D5rFxZ+jhMv6o+T4+MyGT3unJ4LaLrqaLDE+rMCIARyVG2UAcuRWnsHjGxwbOzuNv8SwwLODOvZV2iRUM02eMwocQUR52Noa2CS0QHvLAQoaAZbQK7OMvW7EK2l3gskr9YwKXgnveu8nBu1m2xTXMYZ4KYRbNPz3MJziTjByznMJYLiCMXlsRwz7+WBpLQ1+qBRskzh6CNdyOnnztmBuxEFuYvzyTCwJXiCKjyzJ8JJYwIEPDqBswwqVR2+G4+zccTbMZLqJIb3uN6IMhpeg==","69168b21477cff9ada6cb980","691bd8df1d3639c4e561c76e","index1","<span style='color:red'>Fail,<span style='color:red'>Fail,<span style='color:green'>Lift,<span style='color:green'>Lift,<span style='color:red'>Fail,<span style='color:red'>Fail,<span style='color:red'>Fail,<span style='color:red'>Fail,<span style='color:green'>Lift,<span style='color:red'>Fail,<span style='color:red'>Fail,<span style='color:green'>Lift","<span style='color:red'>Fail,<span style='color:red'>Fail,<span style='color:green'>Lift,<span style='color:green'>Lift,<span style='color:green'>Lift,<span style='color:green'>Lift,<span style='color:green'>Lift,<span style='color:red'>Fail,<span style='color:green'>Lift,<span style='color:green'>Lift,<span style='color:red'>Fail,<span style='color:green'>Lift","<span style='color:red'>Fail,<span style='color:green'>Lift,<span style='color:green'>Lift,<span style='color:red'>Fail,<span style='color:green'>Lift,<span style='color:green'>Lift","0,0,1,1,0,0,0,0,1,0,0,1","0,0,1,1,1,1,1,0,1,1,0,1","0,1,1,0,1,1",10,20,20,"","","","","{""box1"":""100""}","",1,"round3_ready",4,1,3,NA,NA,NA,NA,NA,NA,NA,NA,NA,NA,NA,NA,NA,NA,100,100,NA,NA,NA,NA,NA,NA,NA,NA,NA,100,100,NA,NA,NA,NA,NA,NA,NA,NA,NA,"",NA,NA,NA,NA,NA,NA,NA,NA,NA,NA
"20046.700000047684","https://psyc-201.github.io/xiang2023/exp/index1.html?PROLIFIC_PID=REDACTED&STUDY_ID=69168b21477cff9ada6cb980&SESSION_ID=691bd8df1d3639c4e561c76e","survey-html-form",12,373060,"0.0-312.0-0.0","nBx8ynMBR46TuR9c3j3gLiZE3SWxB/+XSRehjNnK18cL+6N6ICPYgvsgJ7COmEA+J2D5rFxZ+jhMv6o+T4+MyGT3unJ4LaLrqaLDE+rMCIARyVG2UAcuRWnsHjGxwbOzuNv8SwwLODOvZV2iRUM02eMwocQUR52Noa2CS0QHvLAQoaAZbQK7OMvW7EK2l3gskr9YwKXgnveu8nBu1m2xTXMYZ4KYRbNPz3MJziTjByznMJYLiCMXlsRwz7+WBpLQ1+qBRskzh6CNdyOnnztmBuxEFuYvzyTCwJXiCKjyzJ8JJYwIEPDqBswwqVR2+G4+zccTbMZLqJIb3uN6IMhpeg==","69168b21477cff9ada6cb980","691bd8df1d3639c4e561c76e","index1","<span style='color:red'>Fail,<span style='color:red'>Fail,<span style='color:green'>Lift,<span style='color:green'>Lift,<span style='color:red'>Fail,<span style='color:red'>Fail,<span style='color:red'>Fail,<span style='color:red'>Fail,<span style='color:green'>Lift,<span style='color:red'>Fail,<span style='color:red'>Fail,<span style='color:green'>Lift","<span style='color:red'>Fail,<span style='color:red'>Fail,<span style='color:green'>Lift,<span style='color:green'>Lift,<span style='color:green'>Lift,<span style='color:green'>Lift,<span style='color:green'>Lift,<span style='color:red'>Fail,<span style='color:green'>Lift,<span style='color:green'>Lift,<span style='color:red'>Fail,<span style='color:green'>Lift","<span style='color:red'>Fail,<span style='color:green'>Lift,<span style='color:green'>Lift,<span style='color:red'>Fail,<span style='color:green'>Lift,<span style='color:green'>Lift","0,0,1,1,0,0,0,0,1,0,0,1","0,0,1,1,1,1,1,0,1,1,0,1","0,1,1,0,1,1",10,20,20,"","","","","{""box1"":""5"",""box2"":""5"",""box3"":""50"",""box4"":""50""}","",2,"round3_lift",5,1,3,5,5,50,50,1,1,20,NA,NA,NA,NA,NA,NA,NA,NA,NA,NA,NA,NA,NA,NA,NA,NA,NA,NA,NA,NA,5,5,50,50,1,1,20,NA,NA,"",NA,NA,NA,NA,NA,NA,NA,NA,NA,NA
"null","https://psyc-201.github.io/xiang2023/exp/index1.html?PROLIFIC_PID=REDACTED&STUDY_ID=69168b21477cff9ada6cb980&SESSION_ID=691bd8df1d3639c4e561c76e","html-keyboard-response",13,376061,"0.0-316.0","nBx8ynMBR46TuR9c3j3gLiZE3SWxB/+XSRehjNnK18cL+6N6ICPYgvsgJ7COmEA+J2D5rFxZ+jhMv6o+T4+MyGT3unJ4LaLrqaLDE+rMCIARyVG2UAcuRWnsHjGxwbOzuNv8SwwLODOvZV2iRUM02eMwocQUR52Noa2CS0QHvLAQoaAZbQK7OMvW7EK2l3gskr9YwKXgnveu8nBu1m2xTXMYZ4KYRbNPz3MJziTjByznMJYLiCMXlsRwz7+WBpLQ1+qBRskzh6CNdyOnnztmBuxEFuYvzyTCwJXiCKjyzJ8JJYwIEPDqBswwqVR2+G4+zccTbMZLqJIb3uN6IMhpeg==","69168b21477cff9ada6cb980","691bd8df1d3639c4e561c76e","index1","<span style='color:red'>Fail,<span style='color:red'>Fail,<span style='color:green'>Lift,<span style='color:green'>Lift,<span style='color:red'>Fail,<span style='color:red'>Fail,<span style='color:red'>Fail,<span style='color:red'>Fail,<span style='color:green'>Lift,<span style='color:red'>Fail,<span style='color:red'>Fail,<span style='color:green'>Lift","<span style='color:red'>Fail,<span style='color:red'>Fail,<span style='color:green'>Lift,<span style='color:green'>Lift,<span style='color:green'>Lift,<span style='color:green'>Lift,<span style='color:green'>Lift,<span style='color:red'>Fail,<span style='color:green'>Lift,<span style='color:green'>Lift,<span style='color:red'>Fail,<span style='color:green'>Lift","<span style='color:red'>Fail,<span style='color:green'>Lift,<span style='color:green'>Lift,<span style='color:red'>Fail,<span style='color:green'>Lift,<span style='color:green'>Lift","0,0,1,1,0,0,0,0,1,0,0,1","0,0,1,1,1,1,1,0,1,1,0,1","0,1,1,0,1,1",10,20,20,"","","<p style='font-size:30px'><b> New Contest! </b></p>","null","","",2,"",NA,NA,NA,NA,NA,NA,NA,NA,NA,NA,NA,NA,NA,NA,NA,NA,NA,NA,NA,NA,NA,NA,NA,NA,NA,NA,NA,NA,NA,NA,NA,NA,NA,NA,NA,NA,NA,NA,NA,"",NA,NA,NA,NA,NA,NA,NA,NA,NA,NA
"25053.5","https://psyc-201.github.io/xiang2023/exp/index1.html?PROLIFIC_PID=REDACTED&STUDY_ID=69168b21477cff9ada6cb980&SESSION_ID=691bd8df1d3639c4e561c76e","survey-html-form",14,401115,"0.0-317.0","nBx8ynMBR46TuR9c3j3gLiZE3SWxB/+XSRehjNnK18cL+6N6ICPYgvsgJ7COmEA+J2D5rFxZ+jhMv6o+T4+MyGT3unJ4LaLrqaLDE+rMCIARyVG2UAcuRWnsHjGxwbOzuNv8SwwLODOvZV2iRUM02eMwocQUR52Noa2CS0QHvLAQoaAZbQK7OMvW7EK2l3gskr9YwKXgnveu8nBu1m2xTXMYZ4KYRbNPz3MJziTjByznMJYLiCMXlsRwz7+WBpLQ1+qBRskzh6CNdyOnnztmBuxEFuYvzyTCwJXiCKjyzJ8JJYwIEPDqBswwqVR2+G4+zccTbMZLqJIb3uN6IMhpeg==","69168b21477cff9ada6cb980","691bd8df1d3639c4e561c76e","index1","<span style='color:red'>Fail,<span style='color:red'>Fail,<span style='color:green'>Lift,<span style='color:green'>Lift,<span style='color:red'>Fail,<span style='color:red'>Fail,<span style='color:red'>Fail,<span style='color:red'>Fail,<span style='color:green'>Lift,<span style='color:red'>Fail,<span style='color:red'>Fail,<span style='color:green'>Lift","<span style='color:red'>Fail,<span style='color:red'>Fail,<span style='color:green'>Lift,<span style='color:green'>Lift,<span style='color:green'>Lift,<span style='color:green'>Lift,<span style='color:green'>Lift,<span style='color:red'>Fail,<span style='color:green'>Lift,<span style='color:green'>Lift,<span style='color:red'>Fail,<span style='color:green'>Lift","<span style='color:red'>Fail,<span style='color:green'>Lift,<span style='color:green'>Lift,<span style='color:red'>Fail,<span style='color:green'>Lift,<span style='color:green'>Lift","0,0,1,1,0,0,0,0,1,0,0,1","0,0,1,1,1,1,1,0,1,1,0,1","0,1,1,0,1,1",10,20,20,"","","","","{""box1"":""4"",""box2"":""4""}","",2,"round1_outcome",1,2,1,4,4,NA,NA,0,0,10,4,4,NA,NA,0,0,10,NA,NA,NA,NA,NA,NA,NA,NA,NA,NA,NA,NA,NA,NA,NA,NA,NA,NA,NA,NA,NA,NA,"",NA,NA,NA,NA,NA,NA,NA,NA,NA,NA
"18343.299999952316","https://psyc-201.github.io/xiang2023/exp/index1.html?PROLIFIC_PID=REDACTED&STUDY_ID=69168b21477cff9ada6cb980&SESSION_ID=691bd8df1d3639c4e561c76e","survey-html-form",15,419460,"0.0-318.0","nBx8ynMBR46TuR9c3j3gLiZE3SWxB/+XSRehjNnK18cL+6N6ICPYgvsgJ7COmEA+J2D5rFxZ+jhMv6o+T4+MyGT3unJ4LaLrqaLDE+rMCIARyVG2UAcuRWnsHjGxwbOzuNv8SwwLODOvZV2iRUM02eMwocQUR52Noa2CS0QHvLAQoaAZbQK7OMvW7EK2l3gskr9YwKXgnveu8nBu1m2xTXMYZ4KYRbNPz3MJziTjByznMJYLiCMXlsRwz7+WBpLQ1+qBRskzh6CNdyOnnztmBuxEFuYvzyTCwJXiCKjyzJ8JJYwIEPDqBswwqVR2+G4+zccTbMZLqJIb3uN6IMhpeg==","69168b21477cff9ada6cb980","691bd8df1d3639c4e561c76e","index1","<span style='color:red'>Fail,<span style='color:red'>Fail,<span style='color:green'>Lift,<span style='color:green'>Lift,<span style='color:red'>Fail,<span style='color:red'>Fail,<span style='color:red'>Fail,<span style='color:red'>Fail,<span style='color:green'>Lift,<span style='color:red'>Fail,<span style='color:red'>Fail,<span style='color:green'>Lift","<span style='color:red'>Fail,<span style='color:red'>Fail,<span style='color:green'>Lift,<span style='color:green'>Lift,<span style='color:green'>Lift,<span style='color:green'>Lift,<span style='color:green'>Lift,<span style='color:red'>Fail,<span style='color:green'>Lift,<span style='color:green'>Lift,<span style='color:red'>Fail,<span style='color:green'>Lift","<span style='color:red'>Fail,<span style='color:green'>Lift,<span style='color:green'>Lift,<span style='color:red'>Fail,<span style='color:green'>Lift,<span style='color:green'>Lift","0,0,1,1,0,0,0,0,1,0,0,1","0,0,1,1,1,1,1,0,1,1,0,1","0,1,1,0,1,1",10,20,20,"","","","","{""box1"":""50"",""box2"":""50""}","",2,"round2_ready",2,2,2,NA,NA,NA,NA,NA,NA,NA,NA,NA,NA,NA,NA,NA,NA,50,50,50,50,NA,NA,NA,NA,NA,NA,NA,NA,NA,NA,NA,NA,NA,NA,NA,NA,NA,NA,"",NA,NA,NA,NA,NA,NA,NA,NA,NA,NA
"21439.5","https://psyc-201.github.io/xiang2023/exp/index1.html?PROLIFIC_PID=REDACTED&STUDY_ID=69168b21477cff9ada6cb980&SESSION_ID=691bd8df1d3639c4e561c76e","survey-html-form",16,440900,"0.0-319.0","nBx8ynMBR46TuR9c3j3gLiZE3SWxB/+XSRehjNnK18cL+6N6ICPYgvsgJ7COmEA+J2D5rFxZ+jhMv6o+T4+MyGT3unJ4LaLrqaLDE+rMCIARyVG2UAcuRWnsHjGxwbOzuNv8SwwLODOvZV2iRUM02eMwocQUR52Noa2CS0QHvLAQoaAZbQK7OMvW7EK2l3gskr9YwKXgnveu8nBu1m2xTXMYZ4KYRbNPz3MJziTjByznMJYLiCMXlsRwz7+WBpLQ1+qBRskzh6CNdyOnnztmBuxEFuYvzyTCwJXiCKjyzJ8JJYwIEPDqBswwqVR2+G4+zccTbMZLqJIb3uN6IMhpeg==","69168b21477cff9ada6cb980","691bd8df1d3639c4e561c76e","index1","<span style='color:red'>Fail,<span style='color:red'>Fail,<span style='color:green'>Lift,<span style='color:green'>Lift,<span style='color:red'>Fail,<span style='color:red'>Fail,<span style='color:red'>Fail,<span style='color:red'>Fail,<span style='color:green'>Lift,<span style='color:red'>Fail,<span style='color:red'>Fail,<span style='color:green'>Lift","<span style='color:red'>Fail,<span style='color:red'>Fail,<span style='color:green'>Lift,<span style='color:green'>Lift,<span style='color:green'>Lift,<span style='color:green'>Lift,<span style='color:green'>Lift,<span style='color:red'>Fail,<span style='color:green'>Lift,<span style='color:green'>Lift,<span style='color:red'>Fail,<span style='color:green'>Lift","<span style='color:red'>Fail,<span style='color:green'>Lift,<span style='color:green'>Lift,<span style='color:red'>Fail,<span style='color:green'>Lift,<span style='color:green'>Lift","0,0,1,1,0,0,0,0,1,0,0,1","0,0,1,1,1,1,1,0,1,1,0,1","0,1,1,0,1,1",10,20,20,"","","","","{""box1"":""5"",""box2"":""4"",""box3"":""100""}","",2,"round2_outcome",3,2,2,5,4,100,NA,1,0,20,NA,NA,NA,NA,NA,NA,NA,NA,NA,NA,NA,5,4,100,NA,1,0,20,NA,NA,NA,NA,NA,NA,NA,NA,NA,NA,NA,"",NA,NA,NA,NA,NA,NA,NA,NA,NA,NA
"5238.399999976158","https://psyc-201.github.io/xiang2023/exp/index1.html?PROLIFIC_PID=REDACTED&STUDY_ID=69168b21477cff9ada6cb980&SESSION_ID=691bd8df1d3639c4e561c76e","survey-html-form",17,446140,"0.0-320.0","nBx8ynMBR46TuR9c3j3gLiZE3SWxB/+XSRehjNnK18cL+6N6ICPYgvsgJ7COmEA+J2D5rFxZ+jhMv6o+T4+MyGT3unJ4LaLrqaLDE+rMCIARyVG2UAcuRWnsHjGxwbOzuNv8SwwLODOvZV2iRUM02eMwocQUR52Noa2CS0QHvLAQoaAZbQK7OMvW7EK2l3gskr9YwKXgnveu8nBu1m2xTXMYZ4KYRbNPz3MJziTjByznMJYLiCMXlsRwz7+WBpLQ1+qBRskzh6CNdyOnnztmBuxEFuYvzyTCwJXiCKjyzJ8JJYwIEPDqBswwqVR2+G4+zccTbMZLqJIb3uN6IMhpeg==","69168b21477cff9ada6cb980","691bd8df1d3639c4e561c76e","index1","<span style='color:red'>Fail,<span style='color:red'>Fail,<span style='color:green'>Lift,<span style='color:green'>Lift,<span style='color:red'>Fail,<span style='color:red'>Fail,<span style='color:red'>Fail,<span style='color:red'>Fail,<span style='color:green'>Lift,<span style='color:red'>Fail,<span style='color:red'>Fail,<span style='color:green'>Lift","<span style='color:red'>Fail,<span style='color:red'>Fail,<span style='color:green'>Lift,<span style='color:green'>Lift,<span style='color:green'>Lift,<span style='color:green'>Lift,<span style='color:green'>Lift,<span style='color:red'>Fail,<span style='color:green'>Lift,<span style='color:green'>Lift,<span style='color:red'>Fail,<span style='color:green'>Lift","<span style='color:red'>Fail,<span style='color:green'>Lift,<span style='color:green'>Lift,<span style='color:red'>Fail,<span style='color:green'>Lift,<span style='color:green'>Lift","0,0,1,1,0,0,0,0,1,0,0,1","0,0,1,1,1,1,1,0,1,1,0,1","0,1,1,0,1,1",10,20,20,"","","","","{""box1"":""75""}","",2,"round3_ready",4,2,3,NA,NA,NA,NA,NA,NA,NA,NA,NA,NA,NA,NA,NA,NA,75,75,NA,NA,NA,NA,NA,NA,NA,NA,NA,75,75,NA,NA,NA,NA,NA,NA,NA,NA,NA,"",NA,NA,NA,NA,NA,NA,NA,NA,NA,NA
"28702.700000047684","https://psyc-201.github.io/xiang2023/exp/index1.html?PROLIFIC_PID=REDACTED&STUDY_ID=69168b21477cff9ada6cb980&SESSION_ID=691bd8df1d3639c4e561c76e","survey-html-form",18,474844,"0.0-322.0-0.0","nBx8ynMBR46TuR9c3j3gLiZE3SWxB/+XSRehjNnK18cL+6N6ICPYgvsgJ7COmEA+J2D5rFxZ+jhMv6o+T4+MyGT3unJ4LaLrqaLDE+rMCIARyVG2UAcuRWnsHjGxwbOzuNv8SwwLODOvZV2iRUM02eMwocQUR52Noa2CS0QHvLAQoaAZbQK7OMvW7EK2l3gskr9YwKXgnveu8nBu1m2xTXMYZ4KYRbNPz3MJziTjByznMJYLiCMXlsRwz7+WBpLQ1+qBRskzh6CNdyOnnztmBuxEFuYvzyTCwJXiCKjyzJ8JJYwIEPDqBswwqVR2+G4+zccTbMZLqJIb3uN6IMhpeg==","69168b21477cff9ada6cb980","691bd8df1d3639c4e561c76e","index1","<span style='color:red'>Fail,<span style='color:red'>Fail,<span style='color:green'>Lift,<span style='color:green'>Lift,<span style='color:red'>Fail,<span style='color:red'>Fail,<span style='color:red'>Fail,<span style='color:red'>Fail,<span style='color:green'>Lift,<span style='color:red'>Fail,<span style='color:red'>Fail,<span style='color:green'>Lift","<span style='color:red'>Fail,<span style='color:red'>Fail,<span style='color:green'>Lift,<span style='color:green'>Lift,<span style='color:green'>Lift,<span style='color:green'>Lift,<span style='color:green'>Lift,<span style='color:red'>Fail,<span style='color:green'>Lift,<span style='color:green'>Lift,<span style='color:red'>Fail,<span style='color:green'>Lift","<span style='color:red'>Fail,<span style='color:green'>Lift,<span style='color:green'>Lift,<span style='color:red'>Fail,<span style='color:green'>Lift,<span style='color:green'>Lift","0,0,1,1,0,0,0,0,1,0,0,1","0,0,1,1,1,1,1,0,1,1,0,1","0,1,1,0,1,1",10,20,20,"","","","","{""box1"":""5"",""box2"":""4"",""box3"":""999"",""box4"":""999""}","",3,"round3_fail",5,2,3,5,4,NA,NA,0,0,20,NA,NA,NA,NA,NA,NA,NA,NA,NA,NA,NA,NA,NA,NA,NA,NA,NA,NA,NA,NA,5,4,NA,NA,0,0,20,1,1,"",NA,NA,NA,NA,NA,NA,NA,NA,NA,NA
"null","https://psyc-201.github.io/xiang2023/exp/index1.html?PROLIFIC_PID=REDACTED&STUDY_ID=69168b21477cff9ada6cb980&SESSION_ID=691bd8df1d3639c4e561c76e","html-keyboard-response",19,477845,"0.0-325.0","nBx8ynMBR46TuR9c3j3gLiZE3SWxB/+XSRehjNnK18cL+6N6ICPYgvsgJ7COmEA+J2D5rFxZ+jhMv6o+T4+MyGT3unJ4LaLrqaLDE+rMCIARyVG2UAcuRWnsHjGxwbOzuNv8SwwLODOvZV2iRUM02eMwocQUR52Noa2CS0QHvLAQoaAZbQK7OMvW7EK2l3gskr9YwKXgnveu8nBu1m2xTXMYZ4KYRbNPz3MJziTjByznMJYLiCMXlsRwz7+WBpLQ1+qBRskzh6CNdyOnnztmBuxEFuYvzyTCwJXiCKjyzJ8JJYwIEPDqBswwqVR2+G4+zccTbMZLqJIb3uN6IMhpeg==","69168b21477cff9ada6cb980","691bd8df1d3639c4e561c76e","index1","<span style='color:red'>Fail,<span style='color:red'>Fail,<span style='color:green'>Lift,<span style='color:green'>Lift,<span style='color:red'>Fail,<span style='color:red'>Fail,<span style='color:red'>Fail,<span style='color:red'>Fail,<span style='color:green'>Lift,<span style='color:red'>Fail,<span style='color:red'>Fail,<span style='color:green'>Lift","<span style='color:red'>Fail,<span style='color:red'>Fail,<span style='color:green'>Lift,<span style='color:green'>Lift,<span style='color:green'>Lift,<span style='color:green'>Lift,<span style='color:green'>Lift,<span style='color:red'>Fail,<span style='color:green'>Lift,<span style='color:green'>Lift,<span style='color:red'>Fail,<span style='color:green'>Lift","<span style='color:red'>Fail,<span style='color:green'>Lift,<span style='color:green'>Lift,<span style='color:red'>Fail,<span style='color:green'>Lift,<span style='color:green'>Lift","0,0,1,1,0,0,0,0,1,0,0,1","0,0,1,1,1,1,1,0,1,1,0,1","0,1,1,0,1,1",10,20,20,"","","<p style='font-size:30px'><b> New Contest! </b></p>","null","","",3,"",NA,NA,NA,NA,NA,NA,NA,NA,NA,NA,NA,NA,NA,NA,NA,NA,NA,NA,NA,NA,NA,NA,NA,NA,NA,NA,NA,NA,NA,NA,NA,NA,NA,NA,NA,NA,NA,NA,NA,"",NA,NA,NA,NA,NA,NA,NA,NA,NA,NA
"14085.600000023842","https://psyc-201.github.io/xiang2023/exp/index1.html?PROLIFIC_PID=REDACTED&STUDY_ID=69168b21477cff9ada6cb980&SESSION_ID=691bd8df1d3639c4e561c76e","survey-html-form",20,491931,"0.0-326.0","nBx8ynMBR46TuR9c3j3gLiZE3SWxB/+XSRehjNnK18cL+6N6ICPYgvsgJ7COmEA+J2D5rFxZ+jhMv6o+T4+MyGT3unJ4LaLrqaLDE+rMCIARyVG2UAcuRWnsHjGxwbOzuNv8SwwLODOvZV2iRUM02eMwocQUR52Noa2CS0QHvLAQoaAZbQK7OMvW7EK2l3gskr9YwKXgnveu8nBu1m2xTXMYZ4KYRbNPz3MJziTjByznMJYLiCMXlsRwz7+WBpLQ1+qBRskzh6CNdyOnnztmBuxEFuYvzyTCwJXiCKjyzJ8JJYwIEPDqBswwqVR2+G4+zccTbMZLqJIb3uN6IMhpeg==","69168b21477cff9ada6cb980","691bd8df1d3639c4e561c76e","index1","<span style='color:red'>Fail,<span style='color:red'>Fail,<span style='color:green'>Lift,<span style='color:green'>Lift,<span style='color:red'>Fail,<span style='color:red'>Fail,<span style='color:red'>Fail,<span style='color:red'>Fail,<span style='color:green'>Lift,<span style='color:red'>Fail,<span style='color:red'>Fail,<span style='color:green'>Lift","<span style='color:red'>Fail,<span style='color:red'>Fail,<span style='color:green'>Lift,<span style='color:green'>Lift,<span style='color:green'>Lift,<span style='color:green'>Lift,<span style='color:green'>Lift,<span style='color:red'>Fail,<span style='color:green'>Lift,<span style='color:green'>Lift,<span style='color:red'>Fail,<span style='color:green'>Lift","<span style='color:red'>Fail,<span style='color:green'>Lift,<span style='color:green'>Lift,<span style='color:red'>Fail,<span style='color:green'>Lift,<span style='color:green'>Lift","0,0,1,1,0,0,0,0,1,0,0,1","0,0,1,1,1,1,1,0,1,1,0,1","0,1,1,0,1,1",10,20,20,"","","","","{""box1"":""5"",""box2"":""5""}","",3,"round1_outcome",1,3,1,5,5,NA,NA,0,0,10,5,5,NA,NA,0,0,10,NA,NA,NA,NA,NA,NA,NA,NA,NA,NA,NA,NA,NA,NA,NA,NA,NA,NA,NA,NA,NA,NA,"",NA,NA,NA,NA,NA,NA,NA,NA,NA,NA
"6823.100000023842","https://psyc-201.github.io/xiang2023/exp/index1.html?PROLIFIC_PID=REDACTED&STUDY_ID=69168b21477cff9ada6cb980&SESSION_ID=691bd8df1d3639c4e561c76e","survey-html-form",21,498755,"0.0-327.0","nBx8ynMBR46TuR9c3j3gLiZE3SWxB/+XSRehjNnK18cL+6N6ICPYgvsgJ7COmEA+J2D5rFxZ+jhMv6o+T4+MyGT3unJ4LaLrqaLDE+rMCIARyVG2UAcuRWnsHjGxwbOzuNv8SwwLODOvZV2iRUM02eMwocQUR52Noa2CS0QHvLAQoaAZbQK7OMvW7EK2l3gskr9YwKXgnveu8nBu1m2xTXMYZ4KYRbNPz3MJziTjByznMJYLiCMXlsRwz7+WBpLQ1+qBRskzh6CNdyOnnztmBuxEFuYvzyTCwJXiCKjyzJ8JJYwIEPDqBswwqVR2+G4+zccTbMZLqJIb3uN6IMhpeg==","69168b21477cff9ada6cb980","691bd8df1d3639c4e561c76e","index1","<span style='color:red'>Fail,<span style='color:red'>Fail,<span style='color:green'>Lift,<span style='color:green'>Lift,<span style='color:red'>Fail,<span style='color:red'>Fail,<span style='color:red'>Fail,<span style='color:red'>Fail,<span style='color:green'>Lift,<span style='color:red'>Fail,<span style='color:red'>Fail,<span style='color:green'>Lift","<span style='color:red'>Fail,<span style='color:red'>Fail,<span style='color:green'>Lift,<span style='color:green'>Lift,<span style='color:green'>Lift,<span style='color:green'>Lift,<span style='color:green'>Lift,<span style='color:red'>Fail,<span style='color:green'>Lift,<span style='color:green'>Lift,<span style='color:red'>Fail,<span style='color:green'>Lift","<span style='color:red'>Fail,<span style='color:green'>Lift,<span style='color:green'>Lift,<span style='color:red'>Fail,<span style='color:green'>Lift,<span style='color:green'>Lift","0,0,1,1,0,0,0,0,1,0,0,1","0,0,1,1,1,1,1,0,1,1,0,1","0,1,1,0,1,1",10,20,20,"","","","","{""box1"":""50"",""box2"":""50""}","",3,"round2_ready",2,3,2,NA,NA,NA,NA,NA,NA,NA,NA,NA,NA,NA,NA,NA,NA,50,50,50,50,NA,NA,NA,NA,NA,NA,NA,NA,NA,NA,NA,NA,NA,NA,NA,NA,NA,NA,"",NA,NA,NA,NA,NA,NA,NA,NA,NA,NA
"8831.300000071526","https://psyc-201.github.io/xiang2023/exp/index1.html?PROLIFIC_PID=REDACTED&STUDY_ID=69168b21477cff9ada6cb980&SESSION_ID=691bd8df1d3639c4e561c76e","survey-html-form",22,507588,"0.0-328.0","nBx8ynMBR46TuR9c3j3gLiZE3SWxB/+XSRehjNnK18cL+6N6ICPYgvsgJ7COmEA+J2D5rFxZ+jhMv6o+T4+MyGT3unJ4LaLrqaLDE+rMCIARyVG2UAcuRWnsHjGxwbOzuNv8SwwLODOvZV2iRUM02eMwocQUR52Noa2CS0QHvLAQoaAZbQK7OMvW7EK2l3gskr9YwKXgnveu8nBu1m2xTXMYZ4KYRbNPz3MJziTjByznMJYLiCMXlsRwz7+WBpLQ1+qBRskzh6CNdyOnnztmBuxEFuYvzyTCwJXiCKjyzJ8JJYwIEPDqBswwqVR2+G4+zccTbMZLqJIb3uN6IMhpeg==","69168b21477cff9ada6cb980","691bd8df1d3639c4e561c76e","index1","<span style='color:red'>Fail,<span style='color:red'>Fail,<span style='color:green'>Lift,<span style='color:green'>Lift,<span style='color:red'>Fail,<span style='color:red'>Fail,<span style='color:red'>Fail,<span style='color:red'>Fail,<span style='color:green'>Lift,<span style='color:red'>Fail,<span style='color:red'>Fail,<span style='color:green'>Lift","<span style='color:red'>Fail,<span style='color:red'>Fail,<span style='color:green'>Lift,<span style='color:green'>Lift,<span style='color:green'>Lift,<span style='color:green'>Lift,<span style='color:green'>Lift,<span style='color:red'>Fail,<span style='color:green'>Lift,<span style='color:green'>Lift,<span style='color:red'>Fail,<span style='color:green'>Lift","<span style='color:red'>Fail,<span style='color:green'>Lift,<span style='color:green'>Lift,<span style='color:red'>Fail,<span style='color:green'>Lift,<span style='color:green'>Lift","0,0,1,1,0,0,0,0,1,0,0,1","0,0,1,1,1,1,1,0,1,1,0,1","0,1,1,0,1,1",10,20,20,"","","","","{""box1"":""3"",""box2"":""3""}","",3,"round2_outcome",3,3,2,3,3,NA,NA,0,0,20,NA,NA,NA,NA,NA,NA,NA,NA,NA,NA,NA,3,3,NA,NA,0,0,20,NA,NA,NA,NA,NA,NA,NA,NA,NA,NA,NA,"",NA,NA,NA,NA,NA,NA,NA,NA,NA,NA
"2166.899999976158","https://psyc-201.github.io/xiang2023/exp/index1.html?PROLIFIC_PID=REDACTED&STUDY_ID=69168b21477cff9ada6cb980&SESSION_ID=691bd8df1d3639c4e561c76e","survey-html-form",23,509756,"0.0-329.0","nBx8ynMBR46TuR9c3j3gLiZE3SWxB/+XSRehjNnK18cL+6N6ICPYgvsgJ7COmEA+J2D5rFxZ+jhMv6o+T4+MyGT3unJ4LaLrqaLDE+rMCIARyVG2UAcuRWnsHjGxwbOzuNv8SwwLODOvZV2iRUM02eMwocQUR52Noa2CS0QHvLAQoaAZbQK7OMvW7EK2l3gskr9YwKXgnveu8nBu1m2xTXMYZ4KYRbNPz3MJziTjByznMJYLiCMXlsRwz7+WBpLQ1+qBRskzh6CNdyOnnztmBuxEFuYvzyTCwJXiCKjyzJ8JJYwIEPDqBswwqVR2+G4+zccTbMZLqJIb3uN6IMhpeg==","69168b21477cff9ada6cb980","691bd8df1d3639c4e561c76e","index1","<span style='color:red'>Fail,<span style='color:red'>Fail,<span style='color:green'>Lift,<span style='color:green'>Lift,<span style='color:red'>Fail,<span style='color:red'>Fail,<span style='color:red'>Fail,<span style='color:red'>Fail,<span style='color:green'>Lift,<span style='color:red'>Fail,<span style='color:red'>Fail,<span style='color:green'>Lift","<span style='color:red'>Fail,<span style='color:red'>Fail,<span style='color:green'>Lift,<span style='color:green'>Lift,<span style='color:green'>Lift,<span style='color:green'>Lift,<span style='color:green'>Lift,<span style='color:red'>Fail,<span style='color:green'>Lift,<span style='color:green'>Lift,<span style='color:red'>Fail,<span style='color:green'>Lift","<span style='color:red'>Fail,<span style='color:green'>Lift,<span style='color:green'>Lift,<span style='color:red'>Fail,<span style='color:green'>Lift,<span style='color:green'>Lift","0,0,1,1,0,0,0,0,1,0,0,1","0,0,1,1,1,1,1,0,1,1,0,1","0,1,1,0,1,1",10,20,20,"","","","","{""box1"":""0""}","",3,"round3_ready",4,3,3,NA,NA,NA,NA,NA,NA,NA,NA,NA,NA,NA,NA,NA,NA,0,0,NA,NA,NA,NA,NA,NA,NA,NA,NA,0,0,NA,NA,NA,NA,NA,NA,NA,NA,NA,"",NA,NA,NA,NA,NA,NA,NA,NA,NA,NA
"15023","https://psyc-201.github.io/xiang2023/exp/index1.html?PROLIFIC_PID=REDACTED&STUDY_ID=69168b21477cff9ada6cb980&SESSION_ID=691bd8df1d3639c4e561c76e","survey-html-form",24,524780,"0.0-331.0-0.0","nBx8ynMBR46TuR9c3j3gLiZE3SWxB/+XSRehjNnK18cL+6N6ICPYgvsgJ7COmEA+J2D5rFxZ+jhMv6o+T4+MyGT3unJ4LaLrqaLDE+rMCIARyVG2UAcuRWnsHjGxwbOzuNv8SwwLODOvZV2iRUM02eMwocQUR52Noa2CS0QHvLAQoaAZbQK7OMvW7EK2l3gskr9YwKXgnveu8nBu1m2xTXMYZ4KYRbNPz3MJziTjByznMJYLiCMXlsRwz7+WBpLQ1+qBRskzh6CNdyOnnztmBuxEFuYvzyTCwJXiCKjyzJ8JJYwIEPDqBswwqVR2+G4+zccTbMZLqJIb3uN6IMhpeg==","69168b21477cff9ada6cb980","691bd8df1d3639c4e561c76e","index1","<span style='color:red'>Fail,<span style='color:red'>Fail,<span style='color:green'>Lift,<span style='color:green'>Lift,<span style='color:red'>Fail,<span style='color:red'>Fail,<span style='color:red'>Fail,<span style='color:red'>Fail,<span style='color:green'>Lift,<span style='color:red'>Fail,<span style='color:red'>Fail,<span style='color:green'>Lift","<span style='color:red'>Fail,<span style='color:red'>Fail,<span style='color:green'>Lift,<span style='color:green'>Lift,<span style='color:green'>Lift,<span style='color:green'>Lift,<span style='color:green'>Lift,<span style='color:red'>Fail,<span style='color:green'>Lift,<span style='color:green'>Lift,<span style='color:red'>Fail,<span style='color:green'>Lift","<span style='color:red'>Fail,<span style='color:green'>Lift,<span style='color:green'>Lift,<span style='color:red'>Fail,<span style='color:green'>Lift,<span style='color:green'>Lift","0,0,1,1,0,0,0,0,1,0,0,1","0,0,1,1,1,1,1,0,1,1,0,1","0,1,1,0,1,1",10,20,20,"","","","","{""box1"":""3"",""box2"":""3"",""box3"":""999"",""box4"":""999""}","",4,"round3_fail",5,3,3,3,3,NA,NA,0,0,20,NA,NA,NA,NA,NA,NA,NA,NA,NA,NA,NA,NA,NA,NA,NA,NA,NA,NA,NA,NA,3,3,NA,NA,0,0,20,1,1,"",NA,NA,NA,NA,NA,NA,NA,NA,NA,NA
"null","https://psyc-201.github.io/xiang2023/exp/index1.html?PROLIFIC_PID=REDACTED&STUDY_ID=69168b21477cff9ada6cb980&SESSION_ID=691bd8df1d3639c4e561c76e","html-keyboard-response",25,527781,"0.0-334.0","nBx8ynMBR46TuR9c3j3gLiZE3SWxB/+XSRehjNnK18cL+6N6ICPYgvsgJ7COmEA+J2D5rFxZ+jhMv6o+T4+MyGT3unJ4LaLrqaLDE+rMCIARyVG2UAcuRWnsHjGxwbOzuNv8SwwLODOvZV2iRUM02eMwocQUR52Noa2CS0QHvLAQoaAZbQK7OMvW7EK2l3gskr9YwKXgnveu8nBu1m2xTXMYZ4KYRbNPz3MJziTjByznMJYLiCMXlsRwz7+WBpLQ1+qBRskzh6CNdyOnnztmBuxEFuYvzyTCwJXiCKjyzJ8JJYwIEPDqBswwqVR2+G4+zccTbMZLqJIb3uN6IMhpeg==","69168b21477cff9ada6cb980","691bd8df1d3639c4e561c76e","index1","<span style='color:red'>Fail,<span style='color:red'>Fail,<span style='color:green'>Lift,<span style='color:green'>Lift,<span style='color:red'>Fail,<span style='color:red'>Fail,<span style='color:red'>Fail,<span style='color:red'>Fail,<span style='color:green'>Lift,<span style='color:red'>Fail,<span style='color:red'>Fail,<span style='color:green'>Lift","<span style='color:red'>Fail,<span style='color:red'>Fail,<span style='color:green'>Lift,<span style='color:green'>Lift,<span style='color:green'>Lift,<span style='color:green'>Lift,<span style='color:green'>Lift,<span style='color:red'>Fail,<span style='color:green'>Lift,<span style='color:green'>Lift,<span style='color:red'>Fail,<span style='color:green'>Lift","<span style='color:red'>Fail,<span style='color:green'>Lift,<span style='color:green'>Lift,<span style='color:red'>Fail,<span style='color:green'>Lift,<span style='color:green'>Lift","0,0,1,1,0,0,0,0,1,0,0,1","0,0,1,1,1,1,1,0,1,1,0,1","0,1,1,0,1,1",10,20,20,"","","<p style='font-size:30px'><b> New Contest! </b></p>","null","","",4,"",NA,NA,NA,NA,NA,NA,NA,NA,NA,NA,NA,NA,NA,NA,NA,NA,NA,NA,NA,NA,NA,NA,NA,NA,NA,NA,NA,NA,NA,NA,NA,NA,NA,NA,NA,NA,NA,NA,NA,"",NA,NA,NA,NA,NA,NA,NA,NA,NA,NA
"12461.800000071526","https://psyc-201.github.io/xiang2023/exp/index1.html?PROLIFIC_PID=REDACTED&STUDY_ID=69168b21477cff9ada6cb980&SESSION_ID=691bd8df1d3639c4e561c76e","survey-html-form",26,540244,"0.0-335.0","nBx8ynMBR46TuR9c3j3gLiZE3SWxB/+XSRehjNnK18cL+6N6ICPYgvsgJ7COmEA+J2D5rFxZ+jhMv6o+T4+MyGT3unJ4LaLrqaLDE+rMCIARyVG2UAcuRWnsHjGxwbOzuNv8SwwLODOvZV2iRUM02eMwocQUR52Noa2CS0QHvLAQoaAZbQK7OMvW7EK2l3gskr9YwKXgnveu8nBu1m2xTXMYZ4KYRbNPz3MJziTjByznMJYLiCMXlsRwz7+WBpLQ1+qBRskzh6CNdyOnnztmBuxEFuYvzyTCwJXiCKjyzJ8JJYwIEPDqBswwqVR2+G4+zccTbMZLqJIb3uN6IMhpeg==","69168b21477cff9ada6cb980","691bd8df1d3639c4e561c76e","index1","<span style='color:red'>Fail,<span style='color:red'>Fail,<span style='color:green'>Lift,<span style='color:green'>Lift,<span style='color:red'>Fail,<span style='color:red'>Fail,<span style='color:red'>Fail,<span style='color:red'>Fail,<span style='color:green'>Lift,<span style='color:red'>Fail,<span style='color:red'>Fail,<span style='color:green'>Lift","<span style='color:red'>Fail,<span style='color:red'>Fail,<span style='color:green'>Lift,<span style='color:green'>Lift,<span style='color:green'>Lift,<span style='color:green'>Lift,<span style='color:green'>Lift,<span style='color:red'>Fail,<span style='color:green'>Lift,<span style='color:green'>Lift,<span style='color:red'>Fail,<span style='color:green'>Lift","<span style='color:red'>Fail,<span style='color:green'>Lift,<span style='color:green'>Lift,<span style='color:red'>Fail,<span style='color:green'>Lift,<span style='color:green'>Lift","0,0,1,1,0,0,0,0,1,0,0,1","0,0,1,1,1,1,1,0,1,1,0,1","0,1,1,0,1,1",10,20,20,"","","","","{""box1"":""5"",""box2"":""5""}","",4,"round1_outcome",1,4,1,5,5,NA,NA,0,0,10,5,5,NA,NA,0,0,10,NA,NA,NA,NA,NA,NA,NA,NA,NA,NA,NA,NA,NA,NA,NA,NA,NA,NA,NA,NA,NA,NA,"",NA,NA,NA,NA,NA,NA,NA,NA,NA,NA
"5550.899999976158","https://psyc-201.github.io/xiang2023/exp/index1.html?PROLIFIC_PID=REDACTED&STUDY_ID=69168b21477cff9ada6cb980&SESSION_ID=691bd8df1d3639c4e561c76e","survey-html-form",27,545796,"0.0-336.0","nBx8ynMBR46TuR9c3j3gLiZE3SWxB/+XSRehjNnK18cL+6N6ICPYgvsgJ7COmEA+J2D5rFxZ+jhMv6o+T4+MyGT3unJ4LaLrqaLDE+rMCIARyVG2UAcuRWnsHjGxwbOzuNv8SwwLODOvZV2iRUM02eMwocQUR52Noa2CS0QHvLAQoaAZbQK7OMvW7EK2l3gskr9YwKXgnveu8nBu1m2xTXMYZ4KYRbNPz3MJziTjByznMJYLiCMXlsRwz7+WBpLQ1+qBRskzh6CNdyOnnztmBuxEFuYvzyTCwJXiCKjyzJ8JJYwIEPDqBswwqVR2+G4+zccTbMZLqJIb3uN6IMhpeg==","69168b21477cff9ada6cb980","691bd8df1d3639c4e561c76e","index1","<span style='color:red'>Fail,<span style='color:red'>Fail,<span style='color:green'>Lift,<span style='color:green'>Lift,<span style='color:red'>Fail,<span style='color:red'>Fail,<span style='color:red'>Fail,<span style='color:red'>Fail,<span style='color:green'>Lift,<span style='color:red'>Fail,<span style='color:red'>Fail,<span style='color:green'>Lift","<span style='color:red'>Fail,<span style='color:red'>Fail,<span style='color:green'>Lift,<span style='color:green'>Lift,<span style='color:green'>Lift,<span style='color:green'>Lift,<span style='color:green'>Lift,<span style='color:red'>Fail,<span style='color:green'>Lift,<span style='color:green'>Lift,<span style='color:red'>Fail,<span style='color:green'>Lift","<span style='color:red'>Fail,<span style='color:green'>Lift,<span style='color:green'>Lift,<span style='color:red'>Fail,<span style='color:green'>Lift,<span style='color:green'>Lift","0,0,1,1,0,0,0,0,1,0,0,1","0,0,1,1,1,1,1,0,1,1,0,1","0,1,1,0,1,1",10,20,20,"","","","","{""box1"":""50"",""box2"":""50""}","",4,"round2_ready",2,4,2,NA,NA,NA,NA,NA,NA,NA,NA,NA,NA,NA,NA,NA,NA,50,50,50,50,NA,NA,NA,NA,NA,NA,NA,NA,NA,NA,NA,NA,NA,NA,NA,NA,NA,NA,"",NA,NA,NA,NA,NA,NA,NA,NA,NA,NA
"9374.899999976158","https://psyc-201.github.io/xiang2023/exp/index1.html?PROLIFIC_PID=REDACTED&STUDY_ID=69168b21477cff9ada6cb980&SESSION_ID=691bd8df1d3639c4e561c76e","survey-html-form",28,555172,"0.0-337.0","nBx8ynMBR46TuR9c3j3gLiZE3SWxB/+XSRehjNnK18cL+6N6ICPYgvsgJ7COmEA+J2D5rFxZ+jhMv6o+T4+MyGT3unJ4LaLrqaLDE+rMCIARyVG2UAcuRWnsHjGxwbOzuNv8SwwLODOvZV2iRUM02eMwocQUR52Noa2CS0QHvLAQoaAZbQK7OMvW7EK2l3gskr9YwKXgnveu8nBu1m2xTXMYZ4KYRbNPz3MJziTjByznMJYLiCMXlsRwz7+WBpLQ1+qBRskzh6CNdyOnnztmBuxEFuYvzyTCwJXiCKjyzJ8JJYwIEPDqBswwqVR2+G4+zccTbMZLqJIb3uN6IMhpeg==","69168b21477cff9ada6cb980","691bd8df1d3639c4e561c76e","index1","<span style='color:red'>Fail,<span style='color:red'>Fail,<span style='color:green'>Lift,<span style='color:green'>Lift,<span style='color:red'>Fail,<span style='color:red'>Fail,<span style='color:red'>Fail,<span style='color:red'>Fail,<span style='color:green'>Lift,<span style='color:red'>Fail,<span style='color:red'>Fail,<span style='color:green'>Lift","<span style='color:red'>Fail,<span style='color:red'>Fail,<span style='color:green'>Lift,<span style='color:green'>Lift,<span style='color:green'>Lift,<span style='color:green'>Lift,<span style='color:green'>Lift,<span style='color:red'>Fail,<span style='color:green'>Lift,<span style='color:green'>Lift,<span style='color:red'>Fail,<span style='color:green'>Lift","<span style='color:red'>Fail,<span style='color:green'>Lift,<span style='color:green'>Lift,<span style='color:red'>Fail,<span style='color:green'>Lift,<span style='color:green'>Lift","0,0,1,1,0,0,0,0,1,0,0,1","0,0,1,1,1,1,1,0,1,1,0,1","0,1,1,0,1,1",10,20,20,"","","","","{""box1"":""5"",""box2"":""5"",""box3"":""100"",""box4"":""100""}","",4,"round2_outcome",3,4,2,5,5,100,100,1,1,20,NA,NA,NA,NA,NA,NA,NA,NA,NA,NA,NA,5,5,100,100,1,1,20,NA,NA,NA,NA,NA,NA,NA,NA,NA,NA,NA,"",NA,NA,NA,NA,NA,NA,NA,NA,NA,NA
"2966.4000000953674","https://psyc-201.github.io/xiang2023/exp/index1.html?PROLIFIC_PID=REDACTED&STUDY_ID=69168b21477cff9ada6cb980&SESSION_ID=691bd8df1d3639c4e561c76e","survey-html-form",29,558140,"0.0-338.0","nBx8ynMBR46TuR9c3j3gLiZE3SWxB/+XSRehjNnK18cL+6N6ICPYgvsgJ7COmEA+J2D5rFxZ+jhMv6o+T4+MyGT3unJ4LaLrqaLDE+rMCIARyVG2UAcuRWnsHjGxwbOzuNv8SwwLODOvZV2iRUM02eMwocQUR52Noa2CS0QHvLAQoaAZbQK7OMvW7EK2l3gskr9YwKXgnveu8nBu1m2xTXMYZ4KYRbNPz3MJziTjByznMJYLiCMXlsRwz7+WBpLQ1+qBRskzh6CNdyOnnztmBuxEFuYvzyTCwJXiCKjyzJ8JJYwIEPDqBswwqVR2+G4+zccTbMZLqJIb3uN6IMhpeg==","69168b21477cff9ada6cb980","691bd8df1d3639c4e561c76e","index1","<span style='color:red'>Fail,<span style='color:red'>Fail,<span style='color:green'>Lift,<span style='color:green'>Lift,<span style='color:red'>Fail,<span style='color:red'>Fail,<span style='color:red'>Fail,<span style='color:red'>Fail,<span style='color:green'>Lift,<span style='color:red'>Fail,<span style='color:red'>Fail,<span style='color:green'>Lift","<span style='color:red'>Fail,<span style='color:red'>Fail,<span style='color:green'>Lift,<span style='color:green'>Lift,<span style='color:green'>Lift,<span style='color:green'>Lift,<span style='color:green'>Lift,<span style='color:red'>Fail,<span style='color:green'>Lift,<span style='color:green'>Lift,<span style='color:red'>Fail,<span style='color:green'>Lift","<span style='color:red'>Fail,<span style='color:green'>Lift,<span style='color:green'>Lift,<span style='color:red'>Fail,<span style='color:green'>Lift,<span style='color:green'>Lift","0,0,1,1,0,0,0,0,1,0,0,1","0,0,1,1,1,1,1,0,1,1,0,1","0,1,1,0,1,1",10,20,20,"","","","","{""box1"":""100""}","",4,"round3_ready",4,4,3,NA,NA,NA,NA,NA,NA,NA,NA,NA,NA,NA,NA,NA,NA,100,100,NA,NA,NA,NA,NA,NA,NA,NA,NA,100,100,NA,NA,NA,NA,NA,NA,NA,NA,NA,"",NA,NA,NA,NA,NA,NA,NA,NA,NA,NA
"13942.700000047684","https://psyc-201.github.io/xiang2023/exp/index1.html?PROLIFIC_PID=REDACTED&STUDY_ID=69168b21477cff9ada6cb980&SESSION_ID=691bd8df1d3639c4e561c76e","survey-html-form",30,572084,"0.0-339.0-0.0","nBx8ynMBR46TuR9c3j3gLiZE3SWxB/+XSRehjNnK18cL+6N6ICPYgvsgJ7COmEA+J2D5rFxZ+jhMv6o+T4+MyGT3unJ4LaLrqaLDE+rMCIARyVG2UAcuRWnsHjGxwbOzuNv8SwwLODOvZV2iRUM02eMwocQUR52Noa2CS0QHvLAQoaAZbQK7OMvW7EK2l3gskr9YwKXgnveu8nBu1m2xTXMYZ4KYRbNPz3MJziTjByznMJYLiCMXlsRwz7+WBpLQ1+qBRskzh6CNdyOnnztmBuxEFuYvzyTCwJXiCKjyzJ8JJYwIEPDqBswwqVR2+G4+zccTbMZLqJIb3uN6IMhpeg==","69168b21477cff9ada6cb980","691bd8df1d3639c4e561c76e","index1","<span style='color:red'>Fail,<span style='color:red'>Fail,<span style='color:green'>Lift,<span style='color:green'>Lift,<span style='color:red'>Fail,<span style='color:red'>Fail,<span style='color:red'>Fail,<span style='color:red'>Fail,<span style='color:green'>Lift,<span style='color:red'>Fail,<span style='color:red'>Fail,<span style='color:green'>Lift","<span style='color:red'>Fail,<span style='color:red'>Fail,<span style='color:green'>Lift,<span style='color:green'>Lift,<span style='color:green'>Lift,<span style='color:green'>Lift,<span style='color:green'>Lift,<span style='color:red'>Fail,<span style='color:green'>Lift,<span style='color:green'>Lift,<span style='color:red'>Fail,<span style='color:green'>Lift","<span style='color:red'>Fail,<span style='color:green'>Lift,<span style='color:green'>Lift,<span style='color:red'>Fail,<span style='color:green'>Lift,<span style='color:green'>Lift","0,0,1,1,0,0,0,0,1,0,0,1","0,0,1,1,1,1,1,0,1,1,0,1","0,1,1,0,1,1",10,20,20,"","","","","{""box1"":""5"",""box2"":""5"",""box3"":""50"",""box4"":""50""}","",5,"round3_lift",5,4,3,5,5,50,50,1,1,20,NA,NA,NA,NA,NA,NA,NA,NA,NA,NA,NA,NA,NA,NA,NA,NA,NA,NA,NA,NA,5,5,50,50,1,1,20,NA,NA,"",NA,NA,NA,NA,NA,NA,NA,NA,NA,NA
"null","https://psyc-201.github.io/xiang2023/exp/index1.html?PROLIFIC_PID=REDACTED&STUDY_ID=69168b21477cff9ada6cb980&SESSION_ID=691bd8df1d3639c4e561c76e","html-keyboard-response",31,575085,"0.0-343.0","nBx8ynMBR46TuR9c3j3gLiZE3SWxB/+XSRehjNnK18cL+6N6ICPYgvsgJ7COmEA+J2D5rFxZ+jhMv6o+T4+MyGT3unJ4LaLrqaLDE+rMCIARyVG2UAcuRWnsHjGxwbOzuNv8SwwLODOvZV2iRUM02eMwocQUR52Noa2CS0QHvLAQoaAZbQK7OMvW7EK2l3gskr9YwKXgnveu8nBu1m2xTXMYZ4KYRbNPz3MJziTjByznMJYLiCMXlsRwz7+WBpLQ1+qBRskzh6CNdyOnnztmBuxEFuYvzyTCwJXiCKjyzJ8JJYwIEPDqBswwqVR2+G4+zccTbMZLqJIb3uN6IMhpeg==","69168b21477cff9ada6cb980","691bd8df1d3639c4e561c76e","index1","<span style='color:red'>Fail,<span style='color:red'>Fail,<span style='color:green'>Lift,<span style='color:green'>Lift,<span style='color:red'>Fail,<span style='color:red'>Fail,<span style='color:red'>Fail,<span style='color:red'>Fail,<span style='color:green'>Lift,<span style='color:red'>Fail,<span style='color:red'>Fail,<span style='color:green'>Lift","<span style='color:red'>Fail,<span style='color:red'>Fail,<span style='color:green'>Lift,<span style='color:green'>Lift,<span style='color:green'>Lift,<span style='color:green'>Lift,<span style='color:green'>Lift,<span style='color:red'>Fail,<span style='color:green'>Lift,<span style='color:green'>Lift,<span style='color:red'>Fail,<span style='color:green'>Lift","<span style='color:red'>Fail,<span style='color:green'>Lift,<span style='color:green'>Lift,<span style='color:red'>Fail,<span style='color:green'>Lift,<span style='color:green'>Lift","0,0,1,1,0,0,0,0,1,0,0,1","0,0,1,1,1,1,1,0,1,1,0,1","0,1,1,0,1,1",10,20,20,"","","<p style='font-size:30px'><b> New Contest! </b></p>","null","","",5,"",NA,NA,NA,NA,NA,NA,NA,NA,NA,NA,NA,NA,NA,NA,NA,NA,NA,NA,NA,NA,NA,NA,NA,NA,NA,NA,NA,NA,NA,NA,NA,NA,NA,NA,NA,NA,NA,NA,NA,"",NA,NA,NA,NA,NA,NA,NA,NA,NA,NA
"24126.100000023842","https://psyc-201.github.io/xiang2023/exp/index1.html?PROLIFIC_PID=REDACTED&STUDY_ID=69168b21477cff9ada6cb980&SESSION_ID=691bd8df1d3639c4e561c76e","survey-html-form",32,599211,"0.0-344.0","nBx8ynMBR46TuR9c3j3gLiZE3SWxB/+XSRehjNnK18cL+6N6ICPYgvsgJ7COmEA+J2D5rFxZ+jhMv6o+T4+MyGT3unJ4LaLrqaLDE+rMCIARyVG2UAcuRWnsHjGxwbOzuNv8SwwLODOvZV2iRUM02eMwocQUR52Noa2CS0QHvLAQoaAZbQK7OMvW7EK2l3gskr9YwKXgnveu8nBu1m2xTXMYZ4KYRbNPz3MJziTjByznMJYLiCMXlsRwz7+WBpLQ1+qBRskzh6CNdyOnnztmBuxEFuYvzyTCwJXiCKjyzJ8JJYwIEPDqBswwqVR2+G4+zccTbMZLqJIb3uN6IMhpeg==","69168b21477cff9ada6cb980","691bd8df1d3639c4e561c76e","index1","<span style='color:red'>Fail,<span style='color:red'>Fail,<span style='color:green'>Lift,<span style='color:green'>Lift,<span style='color:red'>Fail,<span style='color:red'>Fail,<span style='color:red'>Fail,<span style='color:red'>Fail,<span style='color:green'>Lift,<span style='color:red'>Fail,<span style='color:red'>Fail,<span style='color:green'>Lift","<span style='color:red'>Fail,<span style='color:red'>Fail,<span style='color:green'>Lift,<span style='color:green'>Lift,<span style='color:green'>Lift,<span style='color:green'>Lift,<span style='color:green'>Lift,<span style='color:red'>Fail,<span style='color:green'>Lift,<span style='color:green'>Lift,<span style='color:red'>Fail,<span style='color:green'>Lift","<span style='color:red'>Fail,<span style='color:green'>Lift,<span style='color:green'>Lift,<span style='color:red'>Fail,<span style='color:green'>Lift,<span style='color:green'>Lift","0,0,1,1,0,0,0,0,1,0,0,1","0,0,1,1,1,1,1,0,1,1,0,1","0,1,1,0,1,1",10,20,20,"","","","","{""box1"":""5"",""box2"":""6"",""box4"":""40""}","",5,"round1_outcome",1,5,1,5,6,NA,40,0,1,10,5,6,NA,40,0,1,10,NA,NA,NA,NA,NA,NA,NA,NA,NA,NA,NA,NA,NA,NA,NA,NA,NA,NA,NA,NA,NA,NA,"",NA,NA,NA,NA,NA,NA,NA,NA,NA,NA
"7719.100000023842","https://psyc-201.github.io/xiang2023/exp/index1.html?PROLIFIC_PID=REDACTED&STUDY_ID=69168b21477cff9ada6cb980&SESSION_ID=691bd8df1d3639c4e561c76e","survey-html-form",33,606932,"0.0-345.0","nBx8ynMBR46TuR9c3j3gLiZE3SWxB/+XSRehjNnK18cL+6N6ICPYgvsgJ7COmEA+J2D5rFxZ+jhMv6o+T4+MyGT3unJ4LaLrqaLDE+rMCIARyVG2UAcuRWnsHjGxwbOzuNv8SwwLODOvZV2iRUM02eMwocQUR52Noa2CS0QHvLAQoaAZbQK7OMvW7EK2l3gskr9YwKXgnveu8nBu1m2xTXMYZ4KYRbNPz3MJziTjByznMJYLiCMXlsRwz7+WBpLQ1+qBRskzh6CNdyOnnztmBuxEFuYvzyTCwJXiCKjyzJ8JJYwIEPDqBswwqVR2+G4+zccTbMZLqJIb3uN6IMhpeg==","69168b21477cff9ada6cb980","691bd8df1d3639c4e561c76e","index1","<span style='color:red'>Fail,<span style='color:red'>Fail,<span style='color:green'>Lift,<span style='color:green'>Lift,<span style='color:red'>Fail,<span style='color:red'>Fail,<span style='color:red'>Fail,<span style='color:red'>Fail,<span style='color:green'>Lift,<span style='color:red'>Fail,<span style='color:red'>Fail,<span style='color:green'>Lift","<span style='color:red'>Fail,<span style='color:red'>Fail,<span style='color:green'>Lift,<span style='color:green'>Lift,<span style='color:green'>Lift,<span style='color:green'>Lift,<span style='color:green'>Lift,<span style='color:red'>Fail,<span style='color:green'>Lift,<span style='color:green'>Lift,<span style='color:red'>Fail,<span style='color:green'>Lift","<span style='color:red'>Fail,<span style='color:green'>Lift,<span style='color:green'>Lift,<span style='color:red'>Fail,<span style='color:green'>Lift,<span style='color:green'>Lift","0,0,1,1,0,0,0,0,1,0,0,1","0,0,1,1,1,1,1,0,1,1,0,1","0,1,1,0,1,1",10,20,20,"","","","","{""box1"":""50"",""box2"":""100""}","",5,"round2_ready",2,5,2,NA,NA,NA,NA,NA,NA,NA,NA,NA,NA,NA,NA,NA,NA,50,100,50,100,NA,NA,NA,NA,NA,NA,NA,NA,NA,NA,NA,NA,NA,NA,NA,NA,NA,NA,"",NA,NA,NA,NA,NA,NA,NA,NA,NA,NA
"20463.100000023842","https://psyc-201.github.io/xiang2023/exp/index1.html?PROLIFIC_PID=REDACTED&STUDY_ID=69168b21477cff9ada6cb980&SESSION_ID=691bd8df1d3639c4e561c76e","survey-html-form",34,627396,"0.0-346.0","nBx8ynMBR46TuR9c3j3gLiZE3SWxB/+XSRehjNnK18cL+6N6ICPYgvsgJ7COmEA+J2D5rFxZ+jhMv6o+T4+MyGT3unJ4LaLrqaLDE+rMCIARyVG2UAcuRWnsHjGxwbOzuNv8SwwLODOvZV2iRUM02eMwocQUR52Noa2CS0QHvLAQoaAZbQK7OMvW7EK2l3gskr9YwKXgnveu8nBu1m2xTXMYZ4KYRbNPz3MJziTjByznMJYLiCMXlsRwz7+WBpLQ1+qBRskzh6CNdyOnnztmBuxEFuYvzyTCwJXiCKjyzJ8JJYwIEPDqBswwqVR2+G4+zccTbMZLqJIb3uN6IMhpeg==","69168b21477cff9ada6cb980","691bd8df1d3639c4e561c76e","index1","<span style='color:red'>Fail,<span style='color:red'>Fail,<span style='color:green'>Lift,<span style='color:green'>Lift,<span style='color:red'>Fail,<span style='color:red'>Fail,<span style='color:red'>Fail,<span style='color:red'>Fail,<span style='color:green'>Lift,<span style='color:red'>Fail,<span style='color:red'>Fail,<span style='color:green'>Lift","<span style='color:red'>Fail,<span style='color:red'>Fail,<span style='color:green'>Lift,<span style='color:green'>Lift,<span style='color:green'>Lift,<span style='color:green'>Lift,<span style='color:green'>Lift,<span style='color:red'>Fail,<span style='color:green'>Lift,<span style='color:green'>Lift,<span style='color:red'>Fail,<span style='color:green'>Lift","<span style='color:red'>Fail,<span style='color:green'>Lift,<span style='color:green'>Lift,<span style='color:red'>Fail,<span style='color:green'>Lift,<span style='color:green'>Lift","0,0,1,1,0,0,0,0,1,0,0,1","0,0,1,1,1,1,1,0,1,1,0,1","0,1,1,0,1,1",10,20,20,"","","","","{""box1"":""4"",""box2"":""6"",""box4"":""40""}","",5,"round2_outcome",3,5,2,4,6,NA,40,0,1,20,NA,NA,NA,NA,NA,NA,NA,NA,NA,NA,NA,4,6,NA,40,0,1,20,NA,NA,NA,NA,NA,NA,NA,NA,NA,NA,NA,"",NA,NA,NA,NA,NA,NA,NA,NA,NA,NA
"3847.100000023842","https://psyc-201.github.io/xiang2023/exp/index1.html?PROLIFIC_PID=REDACTED&STUDY_ID=69168b21477cff9ada6cb980&SESSION_ID=691bd8df1d3639c4e561c76e","survey-html-form",35,631244,"0.0-347.0","nBx8ynMBR46TuR9c3j3gLiZE3SWxB/+XSRehjNnK18cL+6N6ICPYgvsgJ7COmEA+J2D5rFxZ+jhMv6o+T4+MyGT3unJ4LaLrqaLDE+rMCIARyVG2UAcuRWnsHjGxwbOzuNv8SwwLODOvZV2iRUM02eMwocQUR52Noa2CS0QHvLAQoaAZbQK7OMvW7EK2l3gskr9YwKXgnveu8nBu1m2xTXMYZ4KYRbNPz3MJziTjByznMJYLiCMXlsRwz7+WBpLQ1+qBRskzh6CNdyOnnztmBuxEFuYvzyTCwJXiCKjyzJ8JJYwIEPDqBswwqVR2+G4+zccTbMZLqJIb3uN6IMhpeg==","69168b21477cff9ada6cb980","691bd8df1d3639c4e561c76e","index1","<span style='color:red'>Fail,<span style='color:red'>Fail,<span style='color:green'>Lift,<span style='color:green'>Lift,<span style='color:red'>Fail,<span style='color:red'>Fail,<span style='color:red'>Fail,<span style='color:red'>Fail,<span style='color:green'>Lift,<span style='color:red'>Fail,<span style='color:red'>Fail,<span style='color:green'>Lift","<span style='color:red'>Fail,<span style='color:red'>Fail,<span style='color:green'>Lift,<span style='color:green'>Lift,<span style='color:green'>Lift,<span style='color:green'>Lift,<span style='color:green'>Lift,<span style='color:red'>Fail,<span style='color:green'>Lift,<span style='color:green'>Lift,<span style='color:red'>Fail,<span style='color:green'>Lift","<span style='color:red'>Fail,<span style='color:green'>Lift,<span style='color:green'>Lift,<span style='color:red'>Fail,<span style='color:green'>Lift,<span style='color:green'>Lift","0,0,1,1,0,0,0,0,1,0,0,1","0,0,1,1,1,1,1,0,1,1,0,1","0,1,1,0,1,1",10,20,20,"","","","","{""box1"":""75""}","",5,"round3_ready",4,5,3,NA,NA,NA,NA,NA,NA,NA,NA,NA,NA,NA,NA,NA,NA,75,75,NA,NA,NA,NA,NA,NA,NA,NA,NA,75,75,NA,NA,NA,NA,NA,NA,NA,NA,NA,"",NA,NA,NA,NA,NA,NA,NA,NA,NA,NA
"30102.899999976158","https://psyc-201.github.io/xiang2023/exp/index1.html?PROLIFIC_PID=REDACTED&STUDY_ID=69168b21477cff9ada6cb980&SESSION_ID=691bd8df1d3639c4e561c76e","survey-html-form",36,661348,"0.0-348.0-0.0","nBx8ynMBR46TuR9c3j3gLiZE3SWxB/+XSRehjNnK18cL+6N6ICPYgvsgJ7COmEA+J2D5rFxZ+jhMv6o+T4+MyGT3unJ4LaLrqaLDE+rMCIARyVG2UAcuRWnsHjGxwbOzuNv8SwwLODOvZV2iRUM02eMwocQUR52Noa2CS0QHvLAQoaAZbQK7OMvW7EK2l3gskr9YwKXgnveu8nBu1m2xTXMYZ4KYRbNPz3MJziTjByznMJYLiCMXlsRwz7+WBpLQ1+qBRskzh6CNdyOnnztmBuxEFuYvzyTCwJXiCKjyzJ8JJYwIEPDqBswwqVR2+G4+zccTbMZLqJIb3uN6IMhpeg==","69168b21477cff9ada6cb980","691bd8df1d3639c4e561c76e","index1","<span style='color:red'>Fail,<span style='color:red'>Fail,<span style='color:green'>Lift,<span style='color:green'>Lift,<span style='color:red'>Fail,<span style='color:red'>Fail,<span style='color:red'>Fail,<span style='color:red'>Fail,<span style='color:green'>Lift,<span style='color:red'>Fail,<span style='color:red'>Fail,<span style='color:green'>Lift","<span style='color:red'>Fail,<span style='color:red'>Fail,<span style='color:green'>Lift,<span style='color:green'>Lift,<span style='color:green'>Lift,<span style='color:green'>Lift,<span style='color:green'>Lift,<span style='color:red'>Fail,<span style='color:green'>Lift,<span style='color:green'>Lift,<span style='color:red'>Fail,<span style='color:green'>Lift","<span style='color:red'>Fail,<span style='color:green'>Lift,<span style='color:green'>Lift,<span style='color:red'>Fail,<span style='color:green'>Lift,<span style='color:green'>Lift","0,0,1,1,0,0,0,0,1,0,0,1","0,0,1,1,1,1,1,0,1,1,0,1","0,1,1,0,1,1",10,20,20,"","","","","{""box1"":""4"",""box2"":""6"",""box3"":""60"",""box4"":""40""}","",6,"round3_lift",5,5,3,4,6,60,40,1,1,20,NA,NA,NA,NA,NA,NA,NA,NA,NA,NA,NA,NA,NA,NA,NA,NA,NA,NA,NA,NA,4,6,60,40,1,1,20,NA,NA,"",NA,NA,NA,NA,NA,NA,NA,NA,NA,NA
"null","https://psyc-201.github.io/xiang2023/exp/index1.html?PROLIFIC_PID=REDACTED&STUDY_ID=69168b21477cff9ada6cb980&SESSION_ID=691bd8df1d3639c4e561c76e","html-keyboard-response",37,664350,"0.0-352.0","nBx8ynMBR46TuR9c3j3gLiZE3SWxB/+XSRehjNnK18cL+6N6ICPYgvsgJ7COmEA+J2D5rFxZ+jhMv6o+T4+MyGT3unJ4LaLrqaLDE+rMCIARyVG2UAcuRWnsHjGxwbOzuNv8SwwLODOvZV2iRUM02eMwocQUR52Noa2CS0QHvLAQoaAZbQK7OMvW7EK2l3gskr9YwKXgnveu8nBu1m2xTXMYZ4KYRbNPz3MJziTjByznMJYLiCMXlsRwz7+WBpLQ1+qBRskzh6CNdyOnnztmBuxEFuYvzyTCwJXiCKjyzJ8JJYwIEPDqBswwqVR2+G4+zccTbMZLqJIb3uN6IMhpeg==","69168b21477cff9ada6cb980","691bd8df1d3639c4e561c76e","index1","<span style='color:red'>Fail,<span style='color:red'>Fail,<span style='color:green'>Lift,<span style='color:green'>Lift,<span style='color:red'>Fail,<span style='color:red'>Fail,<span style='color:red'>Fail,<span style='color:red'>Fail,<span style='color:green'>Lift,<span style='color:red'>Fail,<span style='color:red'>Fail,<span style='color:green'>Lift","<span style='color:red'>Fail,<span style='color:red'>Fail,<span style='color:green'>Lift,<span style='color:green'>Lift,<span style='color:green'>Lift,<span style='color:green'>Lift,<span style='color:green'>Lift,<span style='color:red'>Fail,<span style='color:green'>Lift,<span style='color:green'>Lift,<span style='color:red'>Fail,<span style='color:green'>Lift","<span style='color:red'>Fail,<span style='color:green'>Lift,<span style='color:green'>Lift,<span style='color:red'>Fail,<span style='color:green'>Lift,<span style='color:green'>Lift","0,0,1,1,0,0,0,0,1,0,0,1","0,0,1,1,1,1,1,0,1,1,0,1","0,1,1,0,1,1",10,20,20,"","","<p style='font-size:30px'><b> New Contest! </b></p>","null","","",6,"",NA,NA,NA,NA,NA,NA,NA,NA,NA,NA,NA,NA,NA,NA,NA,NA,NA,NA,NA,NA,NA,NA,NA,NA,NA,NA,NA,NA,NA,NA,NA,NA,NA,NA,NA,NA,NA,NA,NA,"",NA,NA,NA,NA,NA,NA,NA,NA,NA,NA
"18613.200000047684","https://psyc-201.github.io/xiang2023/exp/index1.html?PROLIFIC_PID=REDACTED&STUDY_ID=69168b21477cff9ada6cb980&SESSION_ID=691bd8df1d3639c4e561c76e","survey-html-form",38,682964,"0.0-353.0","nBx8ynMBR46TuR9c3j3gLiZE3SWxB/+XSRehjNnK18cL+6N6ICPYgvsgJ7COmEA+J2D5rFxZ+jhMv6o+T4+MyGT3unJ4LaLrqaLDE+rMCIARyVG2UAcuRWnsHjGxwbOzuNv8SwwLODOvZV2iRUM02eMwocQUR52Noa2CS0QHvLAQoaAZbQK7OMvW7EK2l3gskr9YwKXgnveu8nBu1m2xTXMYZ4KYRbNPz3MJziTjByznMJYLiCMXlsRwz7+WBpLQ1+qBRskzh6CNdyOnnztmBuxEFuYvzyTCwJXiCKjyzJ8JJYwIEPDqBswwqVR2+G4+zccTbMZLqJIb3uN6IMhpeg==","69168b21477cff9ada6cb980","691bd8df1d3639c4e561c76e","index1","<span style='color:red'>Fail,<span style='color:red'>Fail,<span style='color:green'>Lift,<span style='color:green'>Lift,<span style='color:red'>Fail,<span style='color:red'>Fail,<span style='color:red'>Fail,<span style='color:red'>Fail,<span style='color:green'>Lift,<span style='color:red'>Fail,<span style='color:red'>Fail,<span style='color:green'>Lift","<span style='color:red'>Fail,<span style='color:red'>Fail,<span style='color:green'>Lift,<span style='color:green'>Lift,<span style='color:green'>Lift,<span style='color:green'>Lift,<span style='color:green'>Lift,<span style='color:red'>Fail,<span style='color:green'>Lift,<span style='color:green'>Lift,<span style='color:red'>Fail,<span style='color:green'>Lift","<span style='color:red'>Fail,<span style='color:green'>Lift,<span style='color:green'>Lift,<span style='color:red'>Fail,<span style='color:green'>Lift,<span style='color:green'>Lift","0,0,1,1,0,0,0,0,1,0,0,1","0,0,1,1,1,1,1,0,1,1,0,1","0,1,1,0,1,1",10,20,20,"","","","","{""box1"":""6"",""box2"":""4"",""box3"":""40""}","",6,"round1_outcome",1,6,1,6,4,40,NA,1,0,10,6,4,40,NA,1,0,10,NA,NA,NA,NA,NA,NA,NA,NA,NA,NA,NA,NA,NA,NA,NA,NA,NA,NA,NA,NA,NA,NA,"",NA,NA,NA,NA,NA,NA,NA,NA,NA,NA
"10622.400000095367","https://psyc-201.github.io/xiang2023/exp/index1.html?PROLIFIC_PID=REDACTED&STUDY_ID=69168b21477cff9ada6cb980&SESSION_ID=691bd8df1d3639c4e561c76e","survey-html-form",39,693587,"0.0-354.0","nBx8ynMBR46TuR9c3j3gLiZE3SWxB/+XSRehjNnK18cL+6N6ICPYgvsgJ7COmEA+J2D5rFxZ+jhMv6o+T4+MyGT3unJ4LaLrqaLDE+rMCIARyVG2UAcuRWnsHjGxwbOzuNv8SwwLODOvZV2iRUM02eMwocQUR52Noa2CS0QHvLAQoaAZbQK7OMvW7EK2l3gskr9YwKXgnveu8nBu1m2xTXMYZ4KYRbNPz3MJziTjByznMJYLiCMXlsRwz7+WBpLQ1+qBRskzh6CNdyOnnztmBuxEFuYvzyTCwJXiCKjyzJ8JJYwIEPDqBswwqVR2+G4+zccTbMZLqJIb3uN6IMhpeg==","69168b21477cff9ada6cb980","691bd8df1d3639c4e561c76e","index1","<span style='color:red'>Fail,<span style='color:red'>Fail,<span style='color:green'>Lift,<span style='color:green'>Lift,<span style='color:red'>Fail,<span style='color:red'>Fail,<span style='color:red'>Fail,<span style='color:red'>Fail,<span style='color:green'>Lift,<span style='color:red'>Fail,<span style='color:red'>Fail,<span style='color:green'>Lift","<span style='color:red'>Fail,<span style='color:red'>Fail,<span style='color:green'>Lift,<span style='color:green'>Lift,<span style='color:green'>Lift,<span style='color:green'>Lift,<span style='color:green'>Lift,<span style='color:red'>Fail,<span style='color:green'>Lift,<span style='color:green'>Lift,<span style='color:red'>Fail,<span style='color:green'>Lift","<span style='color:red'>Fail,<span style='color:green'>Lift,<span style='color:green'>Lift,<span style='color:red'>Fail,<span style='color:green'>Lift,<span style='color:green'>Lift","0,0,1,1,0,0,0,0,1,0,0,1","0,0,1,1,1,1,1,0,1,1,0,1","0,1,1,0,1,1",10,20,20,"","","","","{""box1"":""100"",""box2"":""50""}","",6,"round2_ready",2,6,2,NA,NA,NA,NA,NA,NA,NA,NA,NA,NA,NA,NA,NA,NA,100,50,100,50,NA,NA,NA,NA,NA,NA,NA,NA,NA,NA,NA,NA,NA,NA,NA,NA,NA,NA,"",NA,NA,NA,NA,NA,NA,NA,NA,NA,NA
"12031.399999976158","https://psyc-201.github.io/xiang2023/exp/index1.html?PROLIFIC_PID=REDACTED&STUDY_ID=69168b21477cff9ada6cb980&SESSION_ID=691bd8df1d3639c4e561c76e","survey-html-form",40,705620,"0.0-355.0","nBx8ynMBR46TuR9c3j3gLiZE3SWxB/+XSRehjNnK18cL+6N6ICPYgvsgJ7COmEA+J2D5rFxZ+jhMv6o+T4+MyGT3unJ4LaLrqaLDE+rMCIARyVG2UAcuRWnsHjGxwbOzuNv8SwwLODOvZV2iRUM02eMwocQUR52Noa2CS0QHvLAQoaAZbQK7OMvW7EK2l3gskr9YwKXgnveu8nBu1m2xTXMYZ4KYRbNPz3MJziTjByznMJYLiCMXlsRwz7+WBpLQ1+qBRskzh6CNdyOnnztmBuxEFuYvzyTCwJXiCKjyzJ8JJYwIEPDqBswwqVR2+G4+zccTbMZLqJIb3uN6IMhpeg==","69168b21477cff9ada6cb980","691bd8df1d3639c4e561c76e","index1","<span style='color:red'>Fail,<span style='color:red'>Fail,<span style='color:green'>Lift,<span style='color:green'>Lift,<span style='color:red'>Fail,<span style='color:red'>Fail,<span style='color:red'>Fail,<span style='color:red'>Fail,<span style='color:green'>Lift,<span style='color:red'>Fail,<span style='color:red'>Fail,<span style='color:green'>Lift","<span style='color:red'>Fail,<span style='color:red'>Fail,<span style='color:green'>Lift,<span style='color:green'>Lift,<span style='color:green'>Lift,<span style='color:green'>Lift,<span style='color:green'>Lift,<span style='color:red'>Fail,<span style='color:green'>Lift,<span style='color:green'>Lift,<span style='color:red'>Fail,<span style='color:green'>Lift","<span style='color:red'>Fail,<span style='color:green'>Lift,<span style='color:green'>Lift,<span style='color:red'>Fail,<span style='color:green'>Lift,<span style='color:green'>Lift","0,0,1,1,0,0,0,0,1,0,0,1","0,0,1,1,1,1,1,0,1,1,0,1","0,1,1,0,1,1",10,20,20,"","","","","{""box1"":""5"",""box2"":""5"",""box3"":""100"",""box4"":""100""}","",6,"round2_outcome",3,6,2,5,5,100,100,1,1,20,NA,NA,NA,NA,NA,NA,NA,NA,NA,NA,NA,5,5,100,100,1,1,20,NA,NA,NA,NA,NA,NA,NA,NA,NA,NA,NA,"",NA,NA,NA,NA,NA,NA,NA,NA,NA,NA
"2878.899999976158","https://psyc-201.github.io/xiang2023/exp/index1.html?PROLIFIC_PID=REDACTED&STUDY_ID=69168b21477cff9ada6cb980&SESSION_ID=691bd8df1d3639c4e561c76e","survey-html-form",41,708500,"0.0-356.0","nBx8ynMBR46TuR9c3j3gLiZE3SWxB/+XSRehjNnK18cL+6N6ICPYgvsgJ7COmEA+J2D5rFxZ+jhMv6o+T4+MyGT3unJ4LaLrqaLDE+rMCIARyVG2UAcuRWnsHjGxwbOzuNv8SwwLODOvZV2iRUM02eMwocQUR52Noa2CS0QHvLAQoaAZbQK7OMvW7EK2l3gskr9YwKXgnveu8nBu1m2xTXMYZ4KYRbNPz3MJziTjByznMJYLiCMXlsRwz7+WBpLQ1+qBRskzh6CNdyOnnztmBuxEFuYvzyTCwJXiCKjyzJ8JJYwIEPDqBswwqVR2+G4+zccTbMZLqJIb3uN6IMhpeg==","69168b21477cff9ada6cb980","691bd8df1d3639c4e561c76e","index1","<span style='color:red'>Fail,<span style='color:red'>Fail,<span style='color:green'>Lift,<span style='color:green'>Lift,<span style='color:red'>Fail,<span style='color:red'>Fail,<span style='color:red'>Fail,<span style='color:red'>Fail,<span style='color:green'>Lift,<span style='color:red'>Fail,<span style='color:red'>Fail,<span style='color:green'>Lift","<span style='color:red'>Fail,<span style='color:red'>Fail,<span style='color:green'>Lift,<span style='color:green'>Lift,<span style='color:green'>Lift,<span style='color:green'>Lift,<span style='color:green'>Lift,<span style='color:red'>Fail,<span style='color:green'>Lift,<span style='color:green'>Lift,<span style='color:red'>Fail,<span style='color:green'>Lift","<span style='color:red'>Fail,<span style='color:green'>Lift,<span style='color:green'>Lift,<span style='color:red'>Fail,<span style='color:green'>Lift,<span style='color:green'>Lift","0,0,1,1,0,0,0,0,1,0,0,1","0,0,1,1,1,1,1,0,1,1,0,1","0,1,1,0,1,1",10,20,20,"","","","","{""box1"":""100""}","",6,"round3_ready",4,6,3,NA,NA,NA,NA,NA,NA,NA,NA,NA,NA,NA,NA,NA,NA,100,100,NA,NA,NA,NA,NA,NA,NA,NA,NA,100,100,NA,NA,NA,NA,NA,NA,NA,NA,NA,"",NA,NA,NA,NA,NA,NA,NA,NA,NA,NA
"12687.200000047684","https://psyc-201.github.io/xiang2023/exp/index1.html?PROLIFIC_PID=REDACTED&STUDY_ID=69168b21477cff9ada6cb980&SESSION_ID=691bd8df1d3639c4e561c76e","survey-html-form",42,721188,"0.0-357.0-0.0","nBx8ynMBR46TuR9c3j3gLiZE3SWxB/+XSRehjNnK18cL+6N6ICPYgvsgJ7COmEA+J2D5rFxZ+jhMv6o+T4+MyGT3unJ4LaLrqaLDE+rMCIARyVG2UAcuRWnsHjGxwbOzuNv8SwwLODOvZV2iRUM02eMwocQUR52Noa2CS0QHvLAQoaAZbQK7OMvW7EK2l3gskr9YwKXgnveu8nBu1m2xTXMYZ4KYRbNPz3MJziTjByznMJYLiCMXlsRwz7+WBpLQ1+qBRskzh6CNdyOnnztmBuxEFuYvzyTCwJXiCKjyzJ8JJYwIEPDqBswwqVR2+G4+zccTbMZLqJIb3uN6IMhpeg==","69168b21477cff9ada6cb980","691bd8df1d3639c4e561c76e","index1","<span style='color:red'>Fail,<span style='color:red'>Fail,<span style='color:green'>Lift,<span style='color:green'>Lift,<span style='color:red'>Fail,<span style='color:red'>Fail,<span style='color:red'>Fail,<span style='color:red'>Fail,<span style='color:green'>Lift,<span style='color:red'>Fail,<span style='color:red'>Fail,<span style='color:green'>Lift","<span style='color:red'>Fail,<span style='color:red'>Fail,<span style='color:green'>Lift,<span style='color:green'>Lift,<span style='color:green'>Lift,<span style='color:green'>Lift,<span style='color:green'>Lift,<span style='color:red'>Fail,<span style='color:green'>Lift,<span style='color:green'>Lift,<span style='color:red'>Fail,<span style='color:green'>Lift","<span style='color:red'>Fail,<span style='color:green'>Lift,<span style='color:green'>Lift,<span style='color:red'>Fail,<span style='color:green'>Lift,<span style='color:green'>Lift","0,0,1,1,0,0,0,0,1,0,0,1","0,0,1,1,1,1,1,0,1,1,0,1","0,1,1,0,1,1",10,20,20,"","","","","{""box1"":""5"",""box2"":""5"",""box3"":""50"",""box4"":""50""}","",6,"round3_lift",5,6,3,5,5,50,50,1,1,20,NA,NA,NA,NA,NA,NA,NA,NA,NA,NA,NA,NA,NA,NA,NA,NA,NA,NA,NA,NA,5,5,50,50,1,1,20,NA,NA,"",NA,NA,NA,NA,NA,NA,NA,NA,NA,NA
"69229.89999997616","https://psyc-201.github.io/xiang2023/exp/index1.html?PROLIFIC_PID=REDACTED&STUDY_ID=69168b21477cff9ada6cb980&SESSION_ID=691bd8df1d3639c4e561c76e","survey-text",43,790420,"0.0-361.0","nBx8ynMBR46TuR9c3j3gLiZE3SWxB/+XSRehjNnK18cL+6N6ICPYgvsgJ7COmEA+J2D5rFxZ+jhMv6o+T4+MyGT3unJ4LaLrqaLDE+rMCIARyVG2UAcuRWnsHjGxwbOzuNv8SwwLODOvZV2iRUM02eMwocQUR52Noa2CS0QHvLAQoaAZbQK7OMvW7EK2l3gskr9YwKXgnveu8nBu1m2xTXMYZ4KYRbNPz3MJziTjByznMJYLiCMXlsRwz7+WBpLQ1+qBRskzh6CNdyOnnztmBuxEFuYvzyTCwJXiCKjyzJ8JJYwIEPDqBswwqVR2+G4+zccTbMZLqJIb3uN6IMhpeg==","69168b21477cff9ada6cb980","691bd8df1d3639c4e561c76e","index1","<span style='color:red'>Fail,<span style='color:red'>Fail,<span style='color:green'>Lift,<span style='color:green'>Lift,<span style='color:red'>Fail,<span style='color:red'>Fail,<span style='color:red'>Fail,<span style='color:red'>Fail,<span style='color:green'>Lift,<span style='color:red'>Fail,<span style='color:red'>Fail,<span style='color:green'>Lift","<span style='color:red'>Fail,<span style='color:red'>Fail,<span style='color:green'>Lift,<span style='color:green'>Lift,<span style='color:green'>Lift,<span style='color:green'>Lift,<span style='color:green'>Lift,<span style='color:red'>Fail,<span style='color:green'>Lift,<span style='color:green'>Lift,<span style='color:red'>Fail,<span style='color:green'>Lift","<span style='color:red'>Fail,<span style='color:green'>Lift,<span style='color:green'>Lift,<span style='color:red'>Fail,<span style='color:green'>Lift,<span style='color:green'>Lift","0,0,1,1,0,0,0,0,1,0,0,1","0,0,1,1,1,1,1,0,1,1,0,1","0,1,1,0,1,1",10,20,20,"","","","","{""Q0"":""guess the strength of each based on whether they lifted successfully in round 1 and then their effort.  predict round 2 and then guess strength and effort, predict round 3 success""}","",NA,"",NA,NA,NA,NA,NA,NA,NA,NA,NA,NA,NA,NA,NA,NA,NA,NA,NA,NA,NA,NA,NA,NA,NA,NA,NA,NA,NA,NA,NA,NA,NA,NA,NA,NA,NA,NA,NA,NA,NA,"",NA,NA,NA,NA,NA,NA,NA,NA,NA,NA
"50166.10000002384","https://psyc-201.github.io/xiang2023/exp/index1.html?PROLIFIC_PID=REDACTED&STUDY_ID=69168b21477cff9ada6cb980&SESSION_ID=691bd8df1d3639c4e561c76e","survey-text",44,840587,"0.0-362.0","nBx8ynMBR46TuR9c3j3gLiZE3SWxB/+XSRehjNnK18cL+6N6ICPYgvsgJ7COmEA+J2D5rFxZ+jhMv6o+T4+MyGT3unJ4LaLrqaLDE+rMCIARyVG2UAcuRWnsHjGxwbOzuNv8SwwLODOvZV2iRUM02eMwocQUR52Noa2CS0QHvLAQoaAZbQK7OMvW7EK2l3gskr9YwKXgnveu8nBu1m2xTXMYZ4KYRbNPz3MJziTjByznMJYLiCMXlsRwz7+WBpLQ1+qBRskzh6CNdyOnnztmBuxEFuYvzyTCwJXiCKjyzJ8JJYwIEPDqBswwqVR2+G4+zccTbMZLqJIb3uN6IMhpeg==","69168b21477cff9ada6cb980","691bd8df1d3639c4e561c76e","index1","<span style='color:red'>Fail,<span style='color:red'>Fail,<span style='color:green'>Lift,<span style='color:green'>Lift,<span style='color:red'>Fail,<span style='color:red'>Fail,<span style='color:red'>Fail,<span style='color:red'>Fail,<span style='color:green'>Lift,<span style='color:red'>Fail,<span style='color:red'>Fail,<span style='color:green'>Lift","<span style='color:red'>Fail,<span style='color:red'>Fail,<span style='color:green'>Lift,<span style='color:green'>Lift,<span style='color:green'>Lift,<span style='color:green'>Lift,<span style='color:green'>Lift,<span style='color:red'>Fail,<span style='color:green'>Lift,<span style='color:green'>Lift,<span style='color:red'>Fail,<span style='color:green'>Lift","<span style='color:red'>Fail,<span style='color:green'>Lift,<span style='color:green'>Lift,<span style='color:red'>Fail,<span style='color:green'>Lift,<span style='color:green'>Lift","0,0,1,1,0,0,0,0,1,0,0,1","0,0,1,1,1,1,1,0,1,1,0,1","0,1,1,0,1,1",10,20,20,"","","","","{""Q0"":""not totally sure if I should have assumed that 2 guys of strength 5 at 50% is same as 1 at strngth 5 and 100% is correct reasoning""}","",NA,"",NA,NA,NA,NA,NA,NA,NA,NA,NA,NA,NA,NA,NA,NA,NA,NA,NA,NA,NA,NA,NA,NA,NA,NA,NA,NA,NA,NA,NA,NA,NA,NA,NA,NA,NA,NA,NA,NA,NA,"[{""event"":""fullscreenenter"",""trial"":1,""time"":64821}]",5,2,0,50,0,0.5,NA,NA,NA,NA
"9046.400000095367","https://psyc-201.github.io/xiang2023/exp/index1.html?PROLIFIC_PID=REDACTED&STUDY_ID=69168b21477cff9ada6cb980&SESSION_ID=691bd8df1d3639c4e561c76e","html-button-response",45,849635,"0.0-363.0","nBx8ynMBR46TuR9c3j3gLiZE3SWxB/+XSRehjNnK18cL+6N6ICPYgvsgJ7COmEA+J2D5rFxZ+jhMv6o+T4+MyGT3unJ4LaLrqaLDE+rMCIARyVG2UAcuRWnsHjGxwbOzuNv8SwwLODOvZV2iRUM02eMwocQUR52Noa2CS0QHvLAQoaAZbQK7OMvW7EK2l3gskr9YwKXgnveu8nBu1m2xTXMYZ4KYRbNPz3MJziTjByznMJYLiCMXlsRwz7+WBpLQ1+qBRskzh6CNdyOnnztmBuxEFuYvzyTCwJXiCKjyzJ8JJYwIEPDqBswwqVR2+G4+zccTbMZLqJIb3uN6IMhpeg==","69168b21477cff9ada6cb980","691bd8df1d3639c4e561c76e","index1","<span style='color:red'>Fail,<span style='color:red'>Fail,<span style='color:green'>Lift,<span style='color:green'>Lift,<span style='color:red'>Fail,<span style='color:red'>Fail,<span style='color:red'>Fail,<span style='color:red'>Fail,<span style='color:green'>Lift,<span style='color:red'>Fail,<span style='color:red'>Fail,<span style='color:green'>Lift","<span style='color:red'>Fail,<span style='color:red'>Fail,<span style='color:green'>Lift,<span style='color:green'>Lift,<span style='color:green'>Lift,<span style='color:green'>Lift,<span style='color:green'>Lift,<span style='color:red'>Fail,<span style='color:green'>Lift,<span style='color:green'>Lift,<span style='color:red'>Fail,<span style='color:green'>Lift","<span style='color:red'>Fail,<span style='color:green'>Lift,<span style='color:green'>Lift,<span style='color:red'>Fail,<span style='color:green'>Lift,<span style='color:green'>Lift","0,0,1,1,0,0,0,0,1,0,0,1","0,0,1,1,1,1,1,0,1,1,0,1","0,1,1,0,1,1",10,20,20,"","","<p> We randomly picked <b>Contest 5, Round 2</b> to calculate your bonus. </p><p> The outcome of Contestant I on that round is <span style='color:red'>Fail</span>. </p><p> The probability you entered was 50. </p><p><b> You won a bonus of $0.50!</b></p><p> IMPORTANT: Please click 'Next' to complete the game.</p>","","","",NA,"",NA,NA,NA,NA,NA,NA,NA,NA,NA,NA,NA,NA,NA,NA,NA,NA,NA,NA,NA,NA,NA,NA,NA,NA,NA,NA,NA,NA,NA,NA,NA,NA,NA,NA,NA,NA,NA,NA,NA,"",NA,NA,NA,NA,NA,NA,0,2,1,NA
