"rt","url","trial_type","trial_index","time_elapsed","internal_node_id","encryptedProlificId","studyId","sessionId","expIndex","round1_outcomes","round2_outcomes","round3_outcomes","round1_o","round2_o","round3_o","round1_reward","round2_reward","round3_reward","success","view_history","stimulus","key_press","responses","question_order","button_pressed","j","Stage","stage","contest","round","strength_a","strength_b","effort_a","effort_b","outcome_a","outcome_b","reward","r1_strength_a","r1_strength_b","r1_effort_a","r1_effort_b","r1_outcome_a","r1_outcome_b","r1_reward","probability_a","probability_b","r2_prob_a","r2_prob_b","r2_strength_a","r2_strength_b","r2_effort_a","r2_effort_b","r2_outcome_a","r2_outcome_b","r2_reward","r3_prob_a","r3_prob_b","attention_check","count","r3_strength_a","r3_strength_b","r3_outcome_a","r3_outcome_b","r3_reward","r3_effort_a","r3_effort_b","screen","pick_contest","pick_round","pick_side","trial_probability","trial_outcome","bonus","attention_sum","attention","datapipe_meta.attributes.date_modified"
"3589.899999976158","https://psyc-201.github.io/xiang2023/exp/index1.html?PROLIFIC_PID=REDACTED&STUDY_ID=691f8ca61c6b4dcbb0aeb5f4&SESSION_ID=691fa5faff8fc04f1a77707d","external-html",0,3708,"0.0-0.0","s/NtCFnhRpgQJRNvTnlUn5biSGEMJtcdq1RPOXlMMUJ+CgA4vflz3Ip1FufVf0yta94eW3Z6Te8S+Nnu7ZiLSyaUstWWzxHGR4NXV6fDkALEFLkSoQrjqTgKqm4kKndM9DVDLPoJceS/QVUD6n+wa9eZfI94UNfRpHk1KmFjD0hxyTRvsEAOEl5f2J4qcflBqIB6U+awe4BLSAPukFFYr2wnH+a4UiGfXu4rS+6xcJ9ro+slQ/Mqo9MpX+CF3cn8wbrdZkMyZRGZQMMk9jMaupgx3GBwdChCQ9OBPWKkiCTK15np69tj8RPOIHe0MUkg4jm5NSz0+8eZnsvRROIM4w==","691f8ca61c6b4dcbb0aeb5f4","691fa5faff8fc04f1a77707d","index1","<span style='color:red'>Fail,<span style='color:red'>Fail,<span style='color:green'>Lift,<span style='color:green'>Lift,<span style='color:red'>Fail,<span style='color:red'>Fail,<span style='color:red'>Fail,<span style='color:red'>Fail,<span style='color:red'>Fail,<span style='color:green'>Lift,<span style='color:red'>Fail,<span style='color:green'>Lift","<span style='color:red'>Fail,<span style='color:red'>Fail,<span style='color:green'>Lift,<span style='color:green'>Lift,<span style='color:green'>Lift,<span style='color:green'>Lift,<span style='color:green'>Lift,<span style='color:red'>Fail,<span style='color:green'>Lift,<span style='color:green'>Lift,<span style='color:red'>Fail,<span style='color:green'>Lift","<span style='color:red'>Fail,<span style='color:green'>Lift,<span style='color:green'>Lift,<span style='color:red'>Fail,<span style='color:green'>Lift,<span style='color:green'>Lift","0,0,1,1,0,0,0,0,0,1,0,1","0,0,1,1,1,1,1,0,1,1,0,1","0,1,1,0,1,1",10,20,20,"","","","","","",NA,NA,"",NA,NA,NA,NA,NA,NA,NA,NA,NA,NA,NA,NA,NA,NA,NA,NA,NA,NA,NA,NA,NA,NA,NA,NA,NA,NA,NA,NA,NA,NA,NA,NA,NA,NA,NA,NA,NA,NA,NA,"",NA,NA,NA,NA,NA,NA,NA,NA,2025-11-21 00:00:20
"","https://psyc-201.github.io/xiang2023/exp/index1.html?PROLIFIC_PID=REDACTED&STUDY_ID=691f8ca61c6b4dcbb0aeb5f4&SESSION_ID=691fa5faff8fc04f1a77707d","fullscreen",1,15684,"0.0-1.0","s/NtCFnhRpgQJRNvTnlUn5biSGEMJtcdq1RPOXlMMUJ+CgA4vflz3Ip1FufVf0yta94eW3Z6Te8S+Nnu7ZiLSyaUstWWzxHGR4NXV6fDkALEFLkSoQrjqTgKqm4kKndM9DVDLPoJceS/QVUD6n+wa9eZfI94UNfRpHk1KmFjD0hxyTRvsEAOEl5f2J4qcflBqIB6U+awe4BLSAPukFFYr2wnH+a4UiGfXu4rS+6xcJ9ro+slQ/Mqo9MpX+CF3cn8wbrdZkMyZRGZQMMk9jMaupgx3GBwdChCQ9OBPWKkiCTK15np69tj8RPOIHe0MUkg4jm5NSz0+8eZnsvRROIM4w==","691f8ca61c6b4dcbb0aeb5f4","691fa5faff8fc04f1a77707d","index1","<span style='color:red'>Fail,<span style='color:red'>Fail,<span style='color:green'>Lift,<span style='color:green'>Lift,<span style='color:red'>Fail,<span style='color:red'>Fail,<span style='color:red'>Fail,<span style='color:red'>Fail,<span style='color:red'>Fail,<span style='color:green'>Lift,<span style='color:red'>Fail,<span style='color:green'>Lift","<span style='color:red'>Fail,<span style='color:red'>Fail,<span style='color:green'>Lift,<span style='color:green'>Lift,<span style='color:green'>Lift,<span style='color:green'>Lift,<span style='color:green'>Lift,<span style='color:red'>Fail,<span style='color:green'>Lift,<span style='color:green'>Lift,<span style='color:red'>Fail,<span style='color:green'>Lift","<span style='color:red'>Fail,<span style='color:green'>Lift,<span style='color:green'>Lift,<span style='color:red'>Fail,<span style='color:green'>Lift,<span style='color:green'>Lift","0,0,1,1,0,0,0,0,0,1,0,1","0,0,1,1,1,1,1,0,1,1,0,1","0,1,1,0,1,1",10,20,20,"true","","","","","",NA,NA,"",NA,NA,NA,NA,NA,NA,NA,NA,NA,NA,NA,NA,NA,NA,NA,NA,NA,NA,NA,NA,NA,NA,NA,NA,NA,NA,NA,NA,NA,NA,NA,NA,NA,NA,NA,NA,NA,NA,NA,"",NA,NA,NA,NA,NA,NA,NA,NA,2025-11-21 00:00:20
"193378.5","https://psyc-201.github.io/xiang2023/exp/index1.html?PROLIFIC_PID=REDACTED&STUDY_ID=691f8ca61c6b4dcbb0aeb5f4&SESSION_ID=691fa5faff8fc04f1a77707d","instructions",2,209064,"0.0-2.0","s/NtCFnhRpgQJRNvTnlUn5biSGEMJtcdq1RPOXlMMUJ+CgA4vflz3Ip1FufVf0yta94eW3Z6Te8S+Nnu7ZiLSyaUstWWzxHGR4NXV6fDkALEFLkSoQrjqTgKqm4kKndM9DVDLPoJceS/QVUD6n+wa9eZfI94UNfRpHk1KmFjD0hxyTRvsEAOEl5f2J4qcflBqIB6U+awe4BLSAPukFFYr2wnH+a4UiGfXu4rS+6xcJ9ro+slQ/Mqo9MpX+CF3cn8wbrdZkMyZRGZQMMk9jMaupgx3GBwdChCQ9OBPWKkiCTK15np69tj8RPOIHe0MUkg4jm5NSz0+8eZnsvRROIM4w==","691f8ca61c6b4dcbb0aeb5f4","691fa5faff8fc04f1a77707d","index1","<span style='color:red'>Fail,<span style='color:red'>Fail,<span style='color:green'>Lift,<span style='color:green'>Lift,<span style='color:red'>Fail,<span style='color:red'>Fail,<span style='color:red'>Fail,<span style='color:red'>Fail,<span style='color:red'>Fail,<span style='color:green'>Lift,<span style='color:red'>Fail,<span style='color:green'>Lift","<span style='color:red'>Fail,<span style='color:red'>Fail,<span style='color:green'>Lift,<span style='color:green'>Lift,<span style='color:green'>Lift,<span style='color:green'>Lift,<span style='color:green'>Lift,<span style='color:red'>Fail,<span style='color:green'>Lift,<span style='color:green'>Lift,<span style='color:red'>Fail,<span style='color:green'>Lift","<span style='color:red'>Fail,<span style='color:green'>Lift,<span style='color:green'>Lift,<span style='color:red'>Fail,<span style='color:green'>Lift,<span style='color:green'>Lift","0,0,1,1,0,0,0,0,0,1,0,1","0,0,1,1,1,1,1,0,1,1,0,1","0,1,1,0,1,1",10,20,20,"","[{""page_index"":0,""viewing_time"":25148},{""page_index"":1,""viewing_time"":27980},{""page_index"":2,""viewing_time"":23067.400000095367},{""page_index"":3,""viewing_time"":47064.699999928474},{""page_index"":4,""viewing_time"":16827.200000047684},{""page_index"":5,""viewing_time"":33589.299999952316},{""page_index"":6,""viewing_time"":19701.399999976158}]","","","","",NA,NA,"",NA,NA,NA,NA,NA,NA,NA,NA,NA,NA,NA,NA,NA,NA,NA,NA,NA,NA,NA,NA,NA,NA,NA,NA,NA,NA,NA,NA,NA,NA,NA,NA,NA,NA,NA,NA,NA,NA,NA,"",NA,NA,NA,NA,NA,NA,NA,NA,2025-11-21 00:00:20
"null","https://psyc-201.github.io/xiang2023/exp/index1.html?PROLIFIC_PID=REDACTED&STUDY_ID=691f8ca61c6b4dcbb0aeb5f4&SESSION_ID=691fa5faff8fc04f1a77707d","html-keyboard-response",3,210073,"0.0-3.0","s/NtCFnhRpgQJRNvTnlUn5biSGEMJtcdq1RPOXlMMUJ+CgA4vflz3Ip1FufVf0yta94eW3Z6Te8S+Nnu7ZiLSyaUstWWzxHGR4NXV6fDkALEFLkSoQrjqTgKqm4kKndM9DVDLPoJceS/QVUD6n+wa9eZfI94UNfRpHk1KmFjD0hxyTRvsEAOEl5f2J4qcflBqIB6U+awe4BLSAPukFFYr2wnH+a4UiGfXu4rS+6xcJ9ro+slQ/Mqo9MpX+CF3cn8wbrdZkMyZRGZQMMk9jMaupgx3GBwdChCQ9OBPWKkiCTK15np69tj8RPOIHe0MUkg4jm5NSz0+8eZnsvRROIM4w==","691f8ca61c6b4dcbb0aeb5f4","691fa5faff8fc04f1a77707d","index1","<span style='color:red'>Fail,<span style='color:red'>Fail,<span style='color:green'>Lift,<span style='color:green'>Lift,<span style='color:red'>Fail,<span style='color:red'>Fail,<span style='color:red'>Fail,<span style='color:red'>Fail,<span style='color:red'>Fail,<span style='color:green'>Lift,<span style='color:red'>Fail,<span style='color:green'>Lift","<span style='color:red'>Fail,<span style='color:red'>Fail,<span style='color:green'>Lift,<span style='color:green'>Lift,<span style='color:green'>Lift,<span style='color:green'>Lift,<span style='color:green'>Lift,<span style='color:red'>Fail,<span style='color:green'>Lift,<span style='color:green'>Lift,<span style='color:red'>Fail,<span style='color:green'>Lift","<span style='color:red'>Fail,<span style='color:green'>Lift,<span style='color:green'>Lift,<span style='color:red'>Fail,<span style='color:green'>Lift,<span style='color:green'>Lift","0,0,1,1,0,0,0,0,0,1,0,1","0,0,1,1,1,1,1,0,1,1,0,1","0,1,1,0,1,1",10,20,20,"",""," ","null","","",NA,NA,"",NA,NA,NA,NA,NA,NA,NA,NA,NA,NA,NA,NA,NA,NA,NA,NA,NA,NA,NA,NA,NA,NA,NA,NA,NA,NA,NA,NA,NA,NA,NA,NA,NA,NA,NA,NA,NA,NA,NA,"",NA,NA,NA,NA,NA,NA,NA,NA,2025-11-21 00:00:20
"204445.80000007153","https://psyc-201.github.io/xiang2023/exp/index1.html?PROLIFIC_PID=REDACTED&STUDY_ID=691f8ca61c6b4dcbb0aeb5f4&SESSION_ID=691fa5faff8fc04f1a77707d","survey-multi-choice",4,414521,"0.0-4.0","s/NtCFnhRpgQJRNvTnlUn5biSGEMJtcdq1RPOXlMMUJ+CgA4vflz3Ip1FufVf0yta94eW3Z6Te8S+Nnu7ZiLSyaUstWWzxHGR4NXV6fDkALEFLkSoQrjqTgKqm4kKndM9DVDLPoJceS/QVUD6n+wa9eZfI94UNfRpHk1KmFjD0hxyTRvsEAOEl5f2J4qcflBqIB6U+awe4BLSAPukFFYr2wnH+a4UiGfXu4rS+6xcJ9ro+slQ/Mqo9MpX+CF3cn8wbrdZkMyZRGZQMMk9jMaupgx3GBwdChCQ9OBPWKkiCTK15np69tj8RPOIHe0MUkg4jm5NSz0+8eZnsvRROIM4w==","691f8ca61c6b4dcbb0aeb5f4","691fa5faff8fc04f1a77707d","index1","<span style='color:red'>Fail,<span style='color:red'>Fail,<span style='color:green'>Lift,<span style='color:green'>Lift,<span style='color:red'>Fail,<span style='color:red'>Fail,<span style='color:red'>Fail,<span style='color:red'>Fail,<span style='color:red'>Fail,<span style='color:green'>Lift,<span style='color:red'>Fail,<span style='color:green'>Lift","<span style='color:red'>Fail,<span style='color:red'>Fail,<span style='color:green'>Lift,<span style='color:green'>Lift,<span style='color:green'>Lift,<span style='color:green'>Lift,<span style='color:green'>Lift,<span style='color:red'>Fail,<span style='color:green'>Lift,<span style='color:green'>Lift,<span style='color:red'>Fail,<span style='color:green'>Lift","<span style='color:red'>Fail,<span style='color:green'>Lift,<span style='color:green'>Lift,<span style='color:red'>Fail,<span style='color:green'>Lift,<span style='color:green'>Lift","0,0,1,1,0,0,0,0,0,1,0,1","0,0,1,1,1,1,1,0,1,1,0,1","0,1,1,0,1,1",10,20,20,"","","","","{""Q0"":""It consists of multiple contests, each contest with three rounds."",""Q1"":""When a new contest begins."",""Q2"":""The box weight always stays the same (equivalent to strength of 5)."",""Q3"":""They will split the $20, that is $10 for each."",""Q4"":""There is no bonus payment at all.""}","[0,1,2,3,4]",NA,NA,"",NA,NA,NA,NA,NA,NA,NA,NA,NA,NA,NA,NA,NA,NA,NA,NA,NA,NA,NA,NA,NA,NA,NA,NA,NA,NA,NA,NA,NA,NA,NA,NA,NA,NA,NA,NA,NA,NA,NA,"",NA,NA,NA,NA,NA,NA,NA,NA,2025-11-21 00:00:20
"2601","https://psyc-201.github.io/xiang2023/exp/index1.html?PROLIFIC_PID=REDACTED&STUDY_ID=691f8ca61c6b4dcbb0aeb5f4&SESSION_ID=691fa5faff8fc04f1a77707d","html-button-response",5,417123,"0.0-5.0-1.0","s/NtCFnhRpgQJRNvTnlUn5biSGEMJtcdq1RPOXlMMUJ+CgA4vflz3Ip1FufVf0yta94eW3Z6Te8S+Nnu7ZiLSyaUstWWzxHGR4NXV6fDkALEFLkSoQrjqTgKqm4kKndM9DVDLPoJceS/QVUD6n+wa9eZfI94UNfRpHk1KmFjD0hxyTRvsEAOEl5f2J4qcflBqIB6U+awe4BLSAPukFFYr2wnH+a4UiGfXu4rS+6xcJ9ro+slQ/Mqo9MpX+CF3cn8wbrdZkMyZRGZQMMk9jMaupgx3GBwdChCQ9OBPWKkiCTK15np69tj8RPOIHe0MUkg4jm5NSz0+8eZnsvRROIM4w==","691f8ca61c6b4dcbb0aeb5f4","691fa5faff8fc04f1a77707d","index1","<span style='color:red'>Fail,<span style='color:red'>Fail,<span style='color:green'>Lift,<span style='color:green'>Lift,<span style='color:red'>Fail,<span style='color:red'>Fail,<span style='color:red'>Fail,<span style='color:red'>Fail,<span style='color:red'>Fail,<span style='color:green'>Lift,<span style='color:red'>Fail,<span style='color:green'>Lift","<span style='color:red'>Fail,<span style='color:red'>Fail,<span style='color:green'>Lift,<span style='color:green'>Lift,<span style='color:green'>Lift,<span style='color:green'>Lift,<span style='color:green'>Lift,<span style='color:red'>Fail,<span style='color:green'>Lift,<span style='color:green'>Lift,<span style='color:red'>Fail,<span style='color:green'>Lift","<span style='color:red'>Fail,<span style='color:green'>Lift,<span style='color:green'>Lift,<span style='color:red'>Fail,<span style='color:green'>Lift,<span style='color:green'>Lift","0,0,1,1,0,0,0,0,0,1,0,1","0,0,1,1,1,1,1,0,1,1,0,1","0,1,1,0,1,1",10,20,20,"","","<p> Oops! You did not pass the comprehension check. <b>Please note that you have only 1 attempt(s) left.</b> </p>","","","",1,NA,"",NA,NA,NA,NA,NA,NA,NA,NA,NA,NA,NA,NA,NA,NA,NA,NA,NA,NA,NA,NA,NA,NA,NA,NA,NA,NA,NA,NA,NA,NA,NA,NA,NA,NA,NA,NA,NA,NA,NA,"",NA,NA,NA,NA,NA,NA,NA,NA,2025-11-21 00:00:20
"122455.89999997616","https://psyc-201.github.io/xiang2023/exp/index1.html?PROLIFIC_PID=REDACTED&STUDY_ID=691f8ca61c6b4dcbb0aeb5f4&SESSION_ID=691fa5faff8fc04f1a77707d","instructions",6,539580,"0.0-6.0-0.0","s/NtCFnhRpgQJRNvTnlUn5biSGEMJtcdq1RPOXlMMUJ+CgA4vflz3Ip1FufVf0yta94eW3Z6Te8S+Nnu7ZiLSyaUstWWzxHGR4NXV6fDkALEFLkSoQrjqTgKqm4kKndM9DVDLPoJceS/QVUD6n+wa9eZfI94UNfRpHk1KmFjD0hxyTRvsEAOEl5f2J4qcflBqIB6U+awe4BLSAPukFFYr2wnH+a4UiGfXu4rS+6xcJ9ro+slQ/Mqo9MpX+CF3cn8wbrdZkMyZRGZQMMk9jMaupgx3GBwdChCQ9OBPWKkiCTK15np69tj8RPOIHe0MUkg4jm5NSz0+8eZnsvRROIM4w==","691f8ca61c6b4dcbb0aeb5f4","691fa5faff8fc04f1a77707d","index1","<span style='color:red'>Fail,<span style='color:red'>Fail,<span style='color:green'>Lift,<span style='color:green'>Lift,<span style='color:red'>Fail,<span style='color:red'>Fail,<span style='color:red'>Fail,<span style='color:red'>Fail,<span style='color:red'>Fail,<span style='color:green'>Lift,<span style='color:red'>Fail,<span style='color:green'>Lift","<span style='color:red'>Fail,<span style='color:red'>Fail,<span style='color:green'>Lift,<span style='color:green'>Lift,<span style='color:green'>Lift,<span style='color:green'>Lift,<span style='color:green'>Lift,<span style='color:red'>Fail,<span style='color:green'>Lift,<span style='color:green'>Lift,<span style='color:red'>Fail,<span style='color:green'>Lift","<span style='color:red'>Fail,<span style='color:green'>Lift,<span style='color:green'>Lift,<span style='color:red'>Fail,<span style='color:green'>Lift,<span style='color:green'>Lift","0,0,1,1,0,0,0,0,0,1,0,1","0,0,1,1,1,1,1,0,1,1,0,1","0,1,1,0,1,1",10,20,20,"","[{""page_index"":0,""viewing_time"":17993.5},{""page_index"":1,""viewing_time"":53690.699999928474},{""page_index"":2,""viewing_time"":23496.700000047684},{""page_index"":3,""viewing_time"":1849.8999999761581},{""page_index"":4,""viewing_time"":4293.600000023842},{""page_index"":3,""viewing_time"":8570.5},{""page_index"":4,""viewing_time"":5471},{""page_index"":5,""viewing_time"":5132},{""page_index"":6,""viewing_time"":1957.6999999284744}]","","","","",NA,NA,"",NA,NA,NA,NA,NA,NA,NA,NA,NA,NA,NA,NA,NA,NA,NA,NA,NA,NA,NA,NA,NA,NA,NA,NA,NA,NA,NA,NA,NA,NA,NA,NA,NA,NA,NA,NA,NA,NA,NA,"",NA,NA,NA,NA,NA,NA,NA,NA,2025-11-21 00:00:20
"null","https://psyc-201.github.io/xiang2023/exp/index1.html?PROLIFIC_PID=REDACTED&STUDY_ID=691f8ca61c6b4dcbb0aeb5f4&SESSION_ID=691fa5faff8fc04f1a77707d","html-keyboard-response",7,540591,"0.0-6.0-1.0","s/NtCFnhRpgQJRNvTnlUn5biSGEMJtcdq1RPOXlMMUJ+CgA4vflz3Ip1FufVf0yta94eW3Z6Te8S+Nnu7ZiLSyaUstWWzxHGR4NXV6fDkALEFLkSoQrjqTgKqm4kKndM9DVDLPoJceS/QVUD6n+wa9eZfI94UNfRpHk1KmFjD0hxyTRvsEAOEl5f2J4qcflBqIB6U+awe4BLSAPukFFYr2wnH+a4UiGfXu4rS+6xcJ9ro+slQ/Mqo9MpX+CF3cn8wbrdZkMyZRGZQMMk9jMaupgx3GBwdChCQ9OBPWKkiCTK15np69tj8RPOIHe0MUkg4jm5NSz0+8eZnsvRROIM4w==","691f8ca61c6b4dcbb0aeb5f4","691fa5faff8fc04f1a77707d","index1","<span style='color:red'>Fail,<span style='color:red'>Fail,<span style='color:green'>Lift,<span style='color:green'>Lift,<span style='color:red'>Fail,<span style='color:red'>Fail,<span style='color:red'>Fail,<span style='color:red'>Fail,<span style='color:red'>Fail,<span style='color:green'>Lift,<span style='color:red'>Fail,<span style='color:green'>Lift","<span style='color:red'>Fail,<span style='color:red'>Fail,<span style='color:green'>Lift,<span style='color:green'>Lift,<span style='color:green'>Lift,<span style='color:green'>Lift,<span style='color:green'>Lift,<span style='color:red'>Fail,<span style='color:green'>Lift,<span style='color:green'>Lift,<span style='color:red'>Fail,<span style='color:green'>Lift","<span style='color:red'>Fail,<span style='color:green'>Lift,<span style='color:green'>Lift,<span style='color:red'>Fail,<span style='color:green'>Lift,<span style='color:green'>Lift","0,0,1,1,0,0,0,0,0,1,0,1","0,0,1,1,1,1,1,0,1,1,0,1","0,1,1,0,1,1",10,20,20,"",""," ","null","","",NA,NA,"",NA,NA,NA,NA,NA,NA,NA,NA,NA,NA,NA,NA,NA,NA,NA,NA,NA,NA,NA,NA,NA,NA,NA,NA,NA,NA,NA,NA,NA,NA,NA,NA,NA,NA,NA,NA,NA,NA,NA,"",NA,NA,NA,NA,NA,NA,NA,NA,2025-11-21 00:00:20
"128330.29999995232","https://psyc-201.github.io/xiang2023/exp/index1.html?PROLIFIC_PID=REDACTED&STUDY_ID=691f8ca61c6b4dcbb0aeb5f4&SESSION_ID=691fa5faff8fc04f1a77707d","survey-multi-choice",8,668924,"0.0-7.0-0.0","s/NtCFnhRpgQJRNvTnlUn5biSGEMJtcdq1RPOXlMMUJ+CgA4vflz3Ip1FufVf0yta94eW3Z6Te8S+Nnu7ZiLSyaUstWWzxHGR4NXV6fDkALEFLkSoQrjqTgKqm4kKndM9DVDLPoJceS/QVUD6n+wa9eZfI94UNfRpHk1KmFjD0hxyTRvsEAOEl5f2J4qcflBqIB6U+awe4BLSAPukFFYr2wnH+a4UiGfXu4rS+6xcJ9ro+slQ/Mqo9MpX+CF3cn8wbrdZkMyZRGZQMMk9jMaupgx3GBwdChCQ9OBPWKkiCTK15np69tj8RPOIHe0MUkg4jm5NSz0+8eZnsvRROIM4w==","691f8ca61c6b4dcbb0aeb5f4","691fa5faff8fc04f1a77707d","index1","<span style='color:red'>Fail,<span style='color:red'>Fail,<span style='color:green'>Lift,<span style='color:green'>Lift,<span style='color:red'>Fail,<span style='color:red'>Fail,<span style='color:red'>Fail,<span style='color:red'>Fail,<span style='color:red'>Fail,<span style='color:green'>Lift,<span style='color:red'>Fail,<span style='color:green'>Lift","<span style='color:red'>Fail,<span style='color:red'>Fail,<span style='color:green'>Lift,<span style='color:green'>Lift,<span style='color:green'>Lift,<span style='color:green'>Lift,<span style='color:green'>Lift,<span style='color:red'>Fail,<span style='color:green'>Lift,<span style='color:green'>Lift,<span style='color:red'>Fail,<span style='color:green'>Lift","<span style='color:red'>Fail,<span style='color:green'>Lift,<span style='color:green'>Lift,<span style='color:red'>Fail,<span style='color:green'>Lift,<span style='color:green'>Lift","0,0,1,1,0,0,0,0,0,1,0,1","0,0,1,1,1,1,1,0,1,1,0,1","0,1,1,0,1,1",10,20,20,"","","","","{""Q0"":""It consists of multiple contests, each contest with three rounds."",""Q1"":""When a new contest begins."",""Q2"":""The box weight always stays the same (equivalent to strength of 5)."",""Q3"":""Each will get $20."",""Q4"":""How close my guesses are to the actual outcome.""}","[0,1,2,3,4]",NA,NA,"",NA,NA,NA,NA,NA,NA,NA,NA,NA,NA,NA,NA,NA,NA,NA,NA,NA,NA,NA,NA,NA,NA,NA,NA,NA,NA,NA,NA,NA,NA,NA,NA,NA,NA,NA,NA,NA,NA,NA,"",NA,NA,NA,NA,NA,NA,NA,NA,2025-11-21 00:00:20
"28422","https://psyc-201.github.io/xiang2023/exp/index1.html?PROLIFIC_PID=REDACTED&STUDY_ID=691f8ca61c6b4dcbb0aeb5f4&SESSION_ID=691fa5faff8fc04f1a77707d","instructions",9,697351,"0.0-305.0","s/NtCFnhRpgQJRNvTnlUn5biSGEMJtcdq1RPOXlMMUJ+CgA4vflz3Ip1FufVf0yta94eW3Z6Te8S+Nnu7ZiLSyaUstWWzxHGR4NXV6fDkALEFLkSoQrjqTgKqm4kKndM9DVDLPoJceS/QVUD6n+wa9eZfI94UNfRpHk1KmFjD0hxyTRvsEAOEl5f2J4qcflBqIB6U+awe4BLSAPukFFYr2wnH+a4UiGfXu4rS+6xcJ9ro+slQ/Mqo9MpX+CF3cn8wbrdZkMyZRGZQMMk9jMaupgx3GBwdChCQ9OBPWKkiCTK15np69tj8RPOIHe0MUkg4jm5NSz0+8eZnsvRROIM4w==","691f8ca61c6b4dcbb0aeb5f4","691fa5faff8fc04f1a77707d","index1","<span style='color:red'>Fail,<span style='color:red'>Fail,<span style='color:green'>Lift,<span style='color:green'>Lift,<span style='color:red'>Fail,<span style='color:red'>Fail,<span style='color:red'>Fail,<span style='color:red'>Fail,<span style='color:red'>Fail,<span style='color:green'>Lift,<span style='color:red'>Fail,<span style='color:green'>Lift","<span style='color:red'>Fail,<span style='color:red'>Fail,<span style='color:green'>Lift,<span style='color:green'>Lift,<span style='color:green'>Lift,<span style='color:green'>Lift,<span style='color:green'>Lift,<span style='color:red'>Fail,<span style='color:green'>Lift,<span style='color:green'>Lift,<span style='color:red'>Fail,<span style='color:green'>Lift","<span style='color:red'>Fail,<span style='color:green'>Lift,<span style='color:green'>Lift,<span style='color:red'>Fail,<span style='color:green'>Lift,<span style='color:green'>Lift","0,0,1,1,0,0,0,0,0,1,0,1","0,0,1,1,1,1,1,0,1,1,0,1","0,1,1,0,1,1",10,20,20,"","[{""page_index"":0,""viewing_time"":8682.299999952316},{""page_index"":1,""viewing_time"":19739.600000023842}]","","","","",NA,NA,"",NA,NA,NA,NA,NA,NA,NA,NA,NA,NA,NA,NA,NA,NA,NA,NA,NA,NA,NA,NA,NA,NA,NA,NA,NA,NA,NA,NA,NA,NA,NA,NA,NA,NA,NA,NA,NA,NA,NA,"",NA,NA,NA,NA,NA,NA,NA,NA,2025-11-21 00:00:20
"null","https://psyc-201.github.io/xiang2023/exp/index1.html?PROLIFIC_PID=REDACTED&STUDY_ID=691f8ca61c6b4dcbb0aeb5f4&SESSION_ID=691fa5faff8fc04f1a77707d","html-keyboard-response",10,698355,"0.0-306.0","s/NtCFnhRpgQJRNvTnlUn5biSGEMJtcdq1RPOXlMMUJ+CgA4vflz3Ip1FufVf0yta94eW3Z6Te8S+Nnu7ZiLSyaUstWWzxHGR4NXV6fDkALEFLkSoQrjqTgKqm4kKndM9DVDLPoJceS/QVUD6n+wa9eZfI94UNfRpHk1KmFjD0hxyTRvsEAOEl5f2J4qcflBqIB6U+awe4BLSAPukFFYr2wnH+a4UiGfXu4rS+6xcJ9ro+slQ/Mqo9MpX+CF3cn8wbrdZkMyZRGZQMMk9jMaupgx3GBwdChCQ9OBPWKkiCTK15np69tj8RPOIHe0MUkg4jm5NSz0+8eZnsvRROIM4w==","691f8ca61c6b4dcbb0aeb5f4","691fa5faff8fc04f1a77707d","index1","<span style='color:red'>Fail,<span style='color:red'>Fail,<span style='color:green'>Lift,<span style='color:green'>Lift,<span style='color:red'>Fail,<span style='color:red'>Fail,<span style='color:red'>Fail,<span style='color:red'>Fail,<span style='color:red'>Fail,<span style='color:green'>Lift,<span style='color:red'>Fail,<span style='color:green'>Lift","<span style='color:red'>Fail,<span style='color:red'>Fail,<span style='color:green'>Lift,<span style='color:green'>Lift,<span style='color:green'>Lift,<span style='color:green'>Lift,<span style='color:green'>Lift,<span style='color:red'>Fail,<span style='color:green'>Lift,<span style='color:green'>Lift,<span style='color:red'>Fail,<span style='color:green'>Lift","<span style='color:red'>Fail,<span style='color:green'>Lift,<span style='color:green'>Lift,<span style='color:red'>Fail,<span style='color:green'>Lift,<span style='color:green'>Lift","0,0,1,1,0,0,0,0,0,1,0,1","0,0,1,1,1,1,1,0,1,1,0,1","0,1,1,0,1,1",10,20,20,"",""," ","null","","",NA,1,"",NA,NA,NA,NA,NA,NA,NA,NA,NA,NA,NA,NA,NA,NA,NA,NA,NA,NA,NA,NA,NA,NA,NA,NA,NA,NA,NA,NA,NA,NA,NA,NA,NA,NA,NA,NA,NA,NA,NA,"",NA,NA,NA,NA,NA,NA,NA,NA,2025-11-21 00:00:20
"null","https://psyc-201.github.io/xiang2023/exp/index1.html?PROLIFIC_PID=REDACTED&STUDY_ID=691f8ca61c6b4dcbb0aeb5f4&SESSION_ID=691fa5faff8fc04f1a77707d","html-keyboard-response",11,701363,"0.0-307.0","s/NtCFnhRpgQJRNvTnlUn5biSGEMJtcdq1RPOXlMMUJ+CgA4vflz3Ip1FufVf0yta94eW3Z6Te8S+Nnu7ZiLSyaUstWWzxHGR4NXV6fDkALEFLkSoQrjqTgKqm4kKndM9DVDLPoJceS/QVUD6n+wa9eZfI94UNfRpHk1KmFjD0hxyTRvsEAOEl5f2J4qcflBqIB6U+awe4BLSAPukFFYr2wnH+a4UiGfXu4rS+6xcJ9ro+slQ/Mqo9MpX+CF3cn8wbrdZkMyZRGZQMMk9jMaupgx3GBwdChCQ9OBPWKkiCTK15np69tj8RPOIHe0MUkg4jm5NSz0+8eZnsvRROIM4w==","691f8ca61c6b4dcbb0aeb5f4","691fa5faff8fc04f1a77707d","index1","<span style='color:red'>Fail,<span style='color:red'>Fail,<span style='color:green'>Lift,<span style='color:green'>Lift,<span style='color:red'>Fail,<span style='color:red'>Fail,<span style='color:red'>Fail,<span style='color:red'>Fail,<span style='color:red'>Fail,<span style='color:green'>Lift,<span style='color:red'>Fail,<span style='color:green'>Lift","<span style='color:red'>Fail,<span style='color:red'>Fail,<span style='color:green'>Lift,<span style='color:green'>Lift,<span style='color:green'>Lift,<span style='color:green'>Lift,<span style='color:green'>Lift,<span style='color:red'>Fail,<span style='color:green'>Lift,<span style='color:green'>Lift,<span style='color:red'>Fail,<span style='color:green'>Lift","<span style='color:red'>Fail,<span style='color:green'>Lift,<span style='color:green'>Lift,<span style='color:red'>Fail,<span style='color:green'>Lift,<span style='color:green'>Lift","0,0,1,1,0,0,0,0,0,1,0,1","0,0,1,1,1,1,1,0,1,1,0,1","0,1,1,0,1,1",10,20,20,"","","<p style='font-size:30px'><b> New Contest! </b></p>","null","","",NA,1,"",NA,NA,NA,NA,NA,NA,NA,NA,NA,NA,NA,NA,NA,NA,NA,NA,NA,NA,NA,NA,NA,NA,NA,NA,NA,NA,NA,NA,NA,NA,NA,NA,NA,NA,NA,NA,NA,NA,NA,"",NA,NA,NA,NA,NA,NA,NA,NA,2025-11-21 00:00:20
"24929.600000023842","https://psyc-201.github.io/xiang2023/exp/index1.html?PROLIFIC_PID=REDACTED&STUDY_ID=691f8ca61c6b4dcbb0aeb5f4&SESSION_ID=691fa5faff8fc04f1a77707d","survey-html-form",12,726294,"0.0-308.0","s/NtCFnhRpgQJRNvTnlUn5biSGEMJtcdq1RPOXlMMUJ+CgA4vflz3Ip1FufVf0yta94eW3Z6Te8S+Nnu7ZiLSyaUstWWzxHGR4NXV6fDkALEFLkSoQrjqTgKqm4kKndM9DVDLPoJceS/QVUD6n+wa9eZfI94UNfRpHk1KmFjD0hxyTRvsEAOEl5f2J4qcflBqIB6U+awe4BLSAPukFFYr2wnH+a4UiGfXu4rS+6xcJ9ro+slQ/Mqo9MpX+CF3cn8wbrdZkMyZRGZQMMk9jMaupgx3GBwdChCQ9OBPWKkiCTK15np69tj8RPOIHe0MUkg4jm5NSz0+8eZnsvRROIM4w==","691f8ca61c6b4dcbb0aeb5f4","691fa5faff8fc04f1a77707d","index1","<span style='color:red'>Fail,<span style='color:red'>Fail,<span style='color:green'>Lift,<span style='color:green'>Lift,<span style='color:red'>Fail,<span style='color:red'>Fail,<span style='color:red'>Fail,<span style='color:red'>Fail,<span style='color:red'>Fail,<span style='color:green'>Lift,<span style='color:red'>Fail,<span style='color:green'>Lift","<span style='color:red'>Fail,<span style='color:red'>Fail,<span style='color:green'>Lift,<span style='color:green'>Lift,<span style='color:green'>Lift,<span style='color:green'>Lift,<span style='color:green'>Lift,<span style='color:red'>Fail,<span style='color:green'>Lift,<span style='color:green'>Lift,<span style='color:red'>Fail,<span style='color:green'>Lift","<span style='color:red'>Fail,<span style='color:green'>Lift,<span style='color:green'>Lift,<span style='color:red'>Fail,<span style='color:green'>Lift,<span style='color:green'>Lift","0,0,1,1,0,0,0,0,0,1,0,1","0,0,1,1,1,1,1,0,1,1,0,1","0,1,1,0,1,1",10,20,20,"","","","","{""box1"":""5"",""box2"":""5""}","",NA,1,"round1_outcome",1,1,1,5,5,NA,NA,0,0,10,5,5,NA,NA,0,0,10,NA,NA,NA,NA,NA,NA,NA,NA,NA,NA,NA,NA,NA,NA,NA,NA,NA,NA,NA,NA,NA,NA,"",NA,NA,NA,NA,NA,NA,NA,NA,2025-11-21 00:00:20
"17778.800000071526","https://psyc-201.github.io/xiang2023/exp/index1.html?PROLIFIC_PID=REDACTED&STUDY_ID=691f8ca61c6b4dcbb0aeb5f4&SESSION_ID=691fa5faff8fc04f1a77707d","survey-html-form",13,744075,"0.0-309.0","s/NtCFnhRpgQJRNvTnlUn5biSGEMJtcdq1RPOXlMMUJ+CgA4vflz3Ip1FufVf0yta94eW3Z6Te8S+Nnu7ZiLSyaUstWWzxHGR4NXV6fDkALEFLkSoQrjqTgKqm4kKndM9DVDLPoJceS/QVUD6n+wa9eZfI94UNfRpHk1KmFjD0hxyTRvsEAOEl5f2J4qcflBqIB6U+awe4BLSAPukFFYr2wnH+a4UiGfXu4rS+6xcJ9ro+slQ/Mqo9MpX+CF3cn8wbrdZkMyZRGZQMMk9jMaupgx3GBwdChCQ9OBPWKkiCTK15np69tj8RPOIHe0MUkg4jm5NSz0+8eZnsvRROIM4w==","691f8ca61c6b4dcbb0aeb5f4","691fa5faff8fc04f1a77707d","index1","<span style='color:red'>Fail,<span style='color:red'>Fail,<span style='color:green'>Lift,<span style='color:green'>Lift,<span style='color:red'>Fail,<span style='color:red'>Fail,<span style='color:red'>Fail,<span style='color:red'>Fail,<span style='color:red'>Fail,<span style='color:green'>Lift,<span style='color:red'>Fail,<span style='color:green'>Lift","<span style='color:red'>Fail,<span style='color:red'>Fail,<span style='color:green'>Lift,<span style='color:green'>Lift,<span style='color:green'>Lift,<span style='color:green'>Lift,<span style='color:green'>Lift,<span style='color:red'>Fail,<span style='color:green'>Lift,<span style='color:green'>Lift,<span style='color:red'>Fail,<span style='color:green'>Lift","<span style='color:red'>Fail,<span style='color:green'>Lift,<span style='color:green'>Lift,<span style='color:red'>Fail,<span style='color:green'>Lift,<span style='color:green'>Lift","0,0,1,1,0,0,0,0,0,1,0,1","0,0,1,1,1,1,1,0,1,1,0,1","0,1,1,0,1,1",10,20,20,"","","","","{""box1"":""75"",""box2"":""75""}","",NA,1,"round2_ready",2,1,2,NA,NA,NA,NA,NA,NA,NA,NA,NA,NA,NA,NA,NA,NA,75,75,75,75,NA,NA,NA,NA,NA,NA,NA,NA,NA,NA,NA,NA,NA,NA,NA,NA,NA,NA,"",NA,NA,NA,NA,NA,NA,NA,NA,2025-11-21 00:00:20
"37289","https://psyc-201.github.io/xiang2023/exp/index1.html?PROLIFIC_PID=REDACTED&STUDY_ID=691f8ca61c6b4dcbb0aeb5f4&SESSION_ID=691fa5faff8fc04f1a77707d","survey-html-form",14,781365,"0.0-310.0","s/NtCFnhRpgQJRNvTnlUn5biSGEMJtcdq1RPOXlMMUJ+CgA4vflz3Ip1FufVf0yta94eW3Z6Te8S+Nnu7ZiLSyaUstWWzxHGR4NXV6fDkALEFLkSoQrjqTgKqm4kKndM9DVDLPoJceS/QVUD6n+wa9eZfI94UNfRpHk1KmFjD0hxyTRvsEAOEl5f2J4qcflBqIB6U+awe4BLSAPukFFYr2wnH+a4UiGfXu4rS+6xcJ9ro+slQ/Mqo9MpX+CF3cn8wbrdZkMyZRGZQMMk9jMaupgx3GBwdChCQ9OBPWKkiCTK15np69tj8RPOIHe0MUkg4jm5NSz0+8eZnsvRROIM4w==","691f8ca61c6b4dcbb0aeb5f4","691fa5faff8fc04f1a77707d","index1","<span style='color:red'>Fail,<span style='color:red'>Fail,<span style='color:green'>Lift,<span style='color:green'>Lift,<span style='color:red'>Fail,<span style='color:red'>Fail,<span style='color:red'>Fail,<span style='color:red'>Fail,<span style='color:red'>Fail,<span style='color:green'>Lift,<span style='color:red'>Fail,<span style='color:green'>Lift","<span style='color:red'>Fail,<span style='color:red'>Fail,<span style='color:green'>Lift,<span style='color:green'>Lift,<span style='color:green'>Lift,<span style='color:green'>Lift,<span style='color:green'>Lift,<span style='color:red'>Fail,<span style='color:green'>Lift,<span style='color:green'>Lift,<span style='color:red'>Fail,<span style='color:green'>Lift","<span style='color:red'>Fail,<span style='color:green'>Lift,<span style='color:green'>Lift,<span style='color:red'>Fail,<span style='color:green'>Lift,<span style='color:green'>Lift","0,0,1,1,0,0,0,0,0,1,0,1","0,0,1,1,1,1,1,0,1,1,0,1","0,1,1,0,1,1",10,20,20,"","","","","{""box1"":""7"",""box2"":""7"",""box3"":""50""}","",NA,1,"round2_outcome",3,1,2,7,7,50,NA,1,0,20,NA,NA,NA,NA,NA,NA,NA,NA,NA,NA,NA,7,7,50,NA,1,0,20,NA,NA,NA,NA,NA,NA,NA,NA,NA,NA,NA,"",NA,NA,NA,NA,NA,NA,NA,NA,2025-11-21 00:00:20
"7582.800000071526","https://psyc-201.github.io/xiang2023/exp/index1.html?PROLIFIC_PID=REDACTED&STUDY_ID=691f8ca61c6b4dcbb0aeb5f4&SESSION_ID=691fa5faff8fc04f1a77707d","survey-html-form",15,788950,"0.0-311.0","s/NtCFnhRpgQJRNvTnlUn5biSGEMJtcdq1RPOXlMMUJ+CgA4vflz3Ip1FufVf0yta94eW3Z6Te8S+Nnu7ZiLSyaUstWWzxHGR4NXV6fDkALEFLkSoQrjqTgKqm4kKndM9DVDLPoJceS/QVUD6n+wa9eZfI94UNfRpHk1KmFjD0hxyTRvsEAOEl5f2J4qcflBqIB6U+awe4BLSAPukFFYr2wnH+a4UiGfXu4rS+6xcJ9ro+slQ/Mqo9MpX+CF3cn8wbrdZkMyZRGZQMMk9jMaupgx3GBwdChCQ9OBPWKkiCTK15np69tj8RPOIHe0MUkg4jm5NSz0+8eZnsvRROIM4w==","691f8ca61c6b4dcbb0aeb5f4","691fa5faff8fc04f1a77707d","index1","<span style='color:red'>Fail,<span style='color:red'>Fail,<span style='color:green'>Lift,<span style='color:green'>Lift,<span style='color:red'>Fail,<span style='color:red'>Fail,<span style='color:red'>Fail,<span style='color:red'>Fail,<span style='color:red'>Fail,<span style='color:green'>Lift,<span style='color:red'>Fail,<span style='color:green'>Lift","<span style='color:red'>Fail,<span style='color:red'>Fail,<span style='color:green'>Lift,<span style='color:green'>Lift,<span style='color:green'>Lift,<span style='color:green'>Lift,<span style='color:green'>Lift,<span style='color:red'>Fail,<span style='color:green'>Lift,<span style='color:green'>Lift,<span style='color:red'>Fail,<span style='color:green'>Lift","<span style='color:red'>Fail,<span style='color:green'>Lift,<span style='color:green'>Lift,<span style='color:red'>Fail,<span style='color:green'>Lift,<span style='color:green'>Lift","0,0,1,1,0,0,0,0,0,1,0,1","0,0,1,1,1,1,1,0,1,1,0,1","0,1,1,0,1,1",10,20,20,"","","","","{""box1"":""80""}","",NA,1,"round3_ready",4,1,3,NA,NA,NA,NA,NA,NA,NA,NA,NA,NA,NA,NA,NA,NA,80,80,NA,NA,NA,NA,NA,NA,NA,NA,NA,80,80,NA,NA,NA,NA,NA,NA,NA,NA,NA,"",NA,NA,NA,NA,NA,NA,NA,NA,2025-11-21 00:00:20
"27943.399999976158","https://psyc-201.github.io/xiang2023/exp/index1.html?PROLIFIC_PID=REDACTED&STUDY_ID=691f8ca61c6b4dcbb0aeb5f4&SESSION_ID=691fa5faff8fc04f1a77707d","survey-html-form",16,816895,"0.0-313.0-0.0","s/NtCFnhRpgQJRNvTnlUn5biSGEMJtcdq1RPOXlMMUJ+CgA4vflz3Ip1FufVf0yta94eW3Z6Te8S+Nnu7ZiLSyaUstWWzxHGR4NXV6fDkALEFLkSoQrjqTgKqm4kKndM9DVDLPoJceS/QVUD6n+wa9eZfI94UNfRpHk1KmFjD0hxyTRvsEAOEl5f2J4qcflBqIB6U+awe4BLSAPukFFYr2wnH+a4UiGfXu4rS+6xcJ9ro+slQ/Mqo9MpX+CF3cn8wbrdZkMyZRGZQMMk9jMaupgx3GBwdChCQ9OBPWKkiCTK15np69tj8RPOIHe0MUkg4jm5NSz0+8eZnsvRROIM4w==","691f8ca61c6b4dcbb0aeb5f4","691fa5faff8fc04f1a77707d","index1","<span style='color:red'>Fail,<span style='color:red'>Fail,<span style='color:green'>Lift,<span style='color:green'>Lift,<span style='color:red'>Fail,<span style='color:red'>Fail,<span style='color:red'>Fail,<span style='color:red'>Fail,<span style='color:red'>Fail,<span style='color:green'>Lift,<span style='color:red'>Fail,<span style='color:green'>Lift","<span style='color:red'>Fail,<span style='color:red'>Fail,<span style='color:green'>Lift,<span style='color:green'>Lift,<span style='color:green'>Lift,<span style='color:green'>Lift,<span style='color:green'>Lift,<span style='color:red'>Fail,<span style='color:green'>Lift,<span style='color:green'>Lift,<span style='color:red'>Fail,<span style='color:green'>Lift","<span style='color:red'>Fail,<span style='color:green'>Lift,<span style='color:green'>Lift,<span style='color:red'>Fail,<span style='color:green'>Lift,<span style='color:green'>Lift","0,0,1,1,0,0,0,0,0,1,0,1","0,0,1,1,1,1,1,0,1,1,0,1","0,1,1,0,1,1",10,20,20,"","","","","{""box1"":""6"",""box2"":""5"",""box3"":""999"",""box4"":""999""}","",NA,2,"round3_fail",5,1,3,6,5,NA,NA,0,0,20,NA,NA,NA,NA,NA,NA,NA,NA,NA,NA,NA,NA,NA,NA,NA,NA,NA,NA,NA,NA,1,1,6,5,0,0,20,NA,NA,"",NA,NA,NA,NA,NA,NA,NA,NA,2025-11-21 00:00:20
"null","https://psyc-201.github.io/xiang2023/exp/index1.html?PROLIFIC_PID=REDACTED&STUDY_ID=691f8ca61c6b4dcbb0aeb5f4&SESSION_ID=691fa5faff8fc04f1a77707d","html-keyboard-response",17,819897,"0.0-316.0","s/NtCFnhRpgQJRNvTnlUn5biSGEMJtcdq1RPOXlMMUJ+CgA4vflz3Ip1FufVf0yta94eW3Z6Te8S+Nnu7ZiLSyaUstWWzxHGR4NXV6fDkALEFLkSoQrjqTgKqm4kKndM9DVDLPoJceS/QVUD6n+wa9eZfI94UNfRpHk1KmFjD0hxyTRvsEAOEl5f2J4qcflBqIB6U+awe4BLSAPukFFYr2wnH+a4UiGfXu4rS+6xcJ9ro+slQ/Mqo9MpX+CF3cn8wbrdZkMyZRGZQMMk9jMaupgx3GBwdChCQ9OBPWKkiCTK15np69tj8RPOIHe0MUkg4jm5NSz0+8eZnsvRROIM4w==","691f8ca61c6b4dcbb0aeb5f4","691fa5faff8fc04f1a77707d","index1","<span style='color:red'>Fail,<span style='color:red'>Fail,<span style='color:green'>Lift,<span style='color:green'>Lift,<span style='color:red'>Fail,<span style='color:red'>Fail,<span style='color:red'>Fail,<span style='color:red'>Fail,<span style='color:red'>Fail,<span style='color:green'>Lift,<span style='color:red'>Fail,<span style='color:green'>Lift","<span style='color:red'>Fail,<span style='color:red'>Fail,<span style='color:green'>Lift,<span style='color:green'>Lift,<span style='color:green'>Lift,<span style='color:green'>Lift,<span style='color:green'>Lift,<span style='color:red'>Fail,<span style='color:green'>Lift,<span style='color:green'>Lift,<span style='color:red'>Fail,<span style='color:green'>Lift","<span style='color:red'>Fail,<span style='color:green'>Lift,<span style='color:green'>Lift,<span style='color:red'>Fail,<span style='color:green'>Lift,<span style='color:green'>Lift","0,0,1,1,0,0,0,0,0,1,0,1","0,0,1,1,1,1,1,0,1,1,0,1","0,1,1,0,1,1",10,20,20,"","","<p style='font-size:30px'><b> New Contest! </b></p>","null","","",NA,2,"",NA,NA,NA,NA,NA,NA,NA,NA,NA,NA,NA,NA,NA,NA,NA,NA,NA,NA,NA,NA,NA,NA,NA,NA,NA,NA,NA,NA,NA,NA,NA,NA,NA,NA,NA,NA,NA,NA,NA,"",NA,NA,NA,NA,NA,NA,NA,NA,2025-11-21 00:00:20
"15916.600000023842","https://psyc-201.github.io/xiang2023/exp/index1.html?PROLIFIC_PID=REDACTED&STUDY_ID=691f8ca61c6b4dcbb0aeb5f4&SESSION_ID=691fa5faff8fc04f1a77707d","survey-html-form",18,835815,"0.0-317.0","s/NtCFnhRpgQJRNvTnlUn5biSGEMJtcdq1RPOXlMMUJ+CgA4vflz3Ip1FufVf0yta94eW3Z6Te8S+Nnu7ZiLSyaUstWWzxHGR4NXV6fDkALEFLkSoQrjqTgKqm4kKndM9DVDLPoJceS/QVUD6n+wa9eZfI94UNfRpHk1KmFjD0hxyTRvsEAOEl5f2J4qcflBqIB6U+awe4BLSAPukFFYr2wnH+a4UiGfXu4rS+6xcJ9ro+slQ/Mqo9MpX+CF3cn8wbrdZkMyZRGZQMMk9jMaupgx3GBwdChCQ9OBPWKkiCTK15np69tj8RPOIHe0MUkg4jm5NSz0+8eZnsvRROIM4w==","691f8ca61c6b4dcbb0aeb5f4","691fa5faff8fc04f1a77707d","index1","<span style='color:red'>Fail,<span style='color:red'>Fail,<span style='color:green'>Lift,<span style='color:green'>Lift,<span style='color:red'>Fail,<span style='color:red'>Fail,<span style='color:red'>Fail,<span style='color:red'>Fail,<span style='color:red'>Fail,<span style='color:green'>Lift,<span style='color:red'>Fail,<span style='color:green'>Lift","<span style='color:red'>Fail,<span style='color:red'>Fail,<span style='color:green'>Lift,<span style='color:green'>Lift,<span style='color:green'>Lift,<span style='color:green'>Lift,<span style='color:green'>Lift,<span style='color:red'>Fail,<span style='color:green'>Lift,<span style='color:green'>Lift,<span style='color:red'>Fail,<span style='color:green'>Lift","<span style='color:red'>Fail,<span style='color:green'>Lift,<span style='color:green'>Lift,<span style='color:red'>Fail,<span style='color:green'>Lift,<span style='color:green'>Lift","0,0,1,1,0,0,0,0,0,1,0,1","0,0,1,1,1,1,1,0,1,1,0,1","0,1,1,0,1,1",10,20,20,"","","","","{""box1"":""5"",""box2"":""5"",""box4"":""50""}","",NA,2,"round1_outcome",1,2,1,5,5,NA,50,0,1,10,5,5,NA,50,0,1,10,NA,NA,NA,NA,NA,NA,NA,NA,NA,NA,NA,NA,NA,NA,NA,NA,NA,NA,NA,NA,NA,NA,"",NA,NA,NA,NA,NA,NA,NA,NA,2025-11-21 00:00:20
"13097.100000023842","https://psyc-201.github.io/xiang2023/exp/index1.html?PROLIFIC_PID=REDACTED&STUDY_ID=691f8ca61c6b4dcbb0aeb5f4&SESSION_ID=691fa5faff8fc04f1a77707d","survey-html-form",19,848913,"0.0-318.0","s/NtCFnhRpgQJRNvTnlUn5biSGEMJtcdq1RPOXlMMUJ+CgA4vflz3Ip1FufVf0yta94eW3Z6Te8S+Nnu7ZiLSyaUstWWzxHGR4NXV6fDkALEFLkSoQrjqTgKqm4kKndM9DVDLPoJceS/QVUD6n+wa9eZfI94UNfRpHk1KmFjD0hxyTRvsEAOEl5f2J4qcflBqIB6U+awe4BLSAPukFFYr2wnH+a4UiGfXu4rS+6xcJ9ro+slQ/Mqo9MpX+CF3cn8wbrdZkMyZRGZQMMk9jMaupgx3GBwdChCQ9OBPWKkiCTK15np69tj8RPOIHe0MUkg4jm5NSz0+8eZnsvRROIM4w==","691f8ca61c6b4dcbb0aeb5f4","691fa5faff8fc04f1a77707d","index1","<span style='color:red'>Fail,<span style='color:red'>Fail,<span style='color:green'>Lift,<span style='color:green'>Lift,<span style='color:red'>Fail,<span style='color:red'>Fail,<span style='color:red'>Fail,<span style='color:red'>Fail,<span style='color:red'>Fail,<span style='color:green'>Lift,<span style='color:red'>Fail,<span style='color:green'>Lift","<span style='color:red'>Fail,<span style='color:red'>Fail,<span style='color:green'>Lift,<span style='color:green'>Lift,<span style='color:green'>Lift,<span style='color:green'>Lift,<span style='color:green'>Lift,<span style='color:red'>Fail,<span style='color:green'>Lift,<span style='color:green'>Lift,<span style='color:red'>Fail,<span style='color:green'>Lift","<span style='color:red'>Fail,<span style='color:green'>Lift,<span style='color:green'>Lift,<span style='color:red'>Fail,<span style='color:green'>Lift,<span style='color:green'>Lift","0,0,1,1,0,0,0,0,0,1,0,1","0,0,1,1,1,1,1,0,1,1,0,1","0,1,1,0,1,1",10,20,20,"","","","","{""box1"":""50"",""box2"":""50""}","",NA,2,"round2_ready",2,2,2,NA,NA,NA,NA,NA,NA,NA,NA,NA,NA,NA,NA,NA,NA,50,50,50,50,NA,NA,NA,NA,NA,NA,NA,NA,NA,NA,NA,NA,NA,NA,NA,NA,NA,NA,"",NA,NA,NA,NA,NA,NA,NA,NA,2025-11-21 00:00:20
"17310.100000023842","https://psyc-201.github.io/xiang2023/exp/index1.html?PROLIFIC_PID=REDACTED&STUDY_ID=691f8ca61c6b4dcbb0aeb5f4&SESSION_ID=691fa5faff8fc04f1a77707d","survey-html-form",20,866225,"0.0-319.0","s/NtCFnhRpgQJRNvTnlUn5biSGEMJtcdq1RPOXlMMUJ+CgA4vflz3Ip1FufVf0yta94eW3Z6Te8S+Nnu7ZiLSyaUstWWzxHGR4NXV6fDkALEFLkSoQrjqTgKqm4kKndM9DVDLPoJceS/QVUD6n+wa9eZfI94UNfRpHk1KmFjD0hxyTRvsEAOEl5f2J4qcflBqIB6U+awe4BLSAPukFFYr2wnH+a4UiGfXu4rS+6xcJ9ro+slQ/Mqo9MpX+CF3cn8wbrdZkMyZRGZQMMk9jMaupgx3GBwdChCQ9OBPWKkiCTK15np69tj8RPOIHe0MUkg4jm5NSz0+8eZnsvRROIM4w==","691f8ca61c6b4dcbb0aeb5f4","691fa5faff8fc04f1a77707d","index1","<span style='color:red'>Fail,<span style='color:red'>Fail,<span style='color:green'>Lift,<span style='color:green'>Lift,<span style='color:red'>Fail,<span style='color:red'>Fail,<span style='color:red'>Fail,<span style='color:red'>Fail,<span style='color:red'>Fail,<span style='color:green'>Lift,<span style='color:red'>Fail,<span style='color:green'>Lift","<span style='color:red'>Fail,<span style='color:red'>Fail,<span style='color:green'>Lift,<span style='color:green'>Lift,<span style='color:green'>Lift,<span style='color:green'>Lift,<span style='color:green'>Lift,<span style='color:red'>Fail,<span style='color:green'>Lift,<span style='color:green'>Lift,<span style='color:red'>Fail,<span style='color:green'>Lift","<span style='color:red'>Fail,<span style='color:green'>Lift,<span style='color:green'>Lift,<span style='color:red'>Fail,<span style='color:green'>Lift,<span style='color:green'>Lift","0,0,1,1,0,0,0,0,0,1,0,1","0,0,1,1,1,1,1,0,1,1,0,1","0,1,1,0,1,1",10,20,20,"","","","","{""box1"":""6"",""box2"":""6"",""box3"":""50"",""box4"":""50""}","",NA,2,"round2_outcome",3,2,2,6,6,50,50,1,1,20,NA,NA,NA,NA,NA,NA,NA,NA,NA,NA,NA,6,6,50,50,1,1,20,NA,NA,NA,NA,NA,NA,NA,NA,NA,NA,NA,"",NA,NA,NA,NA,NA,NA,NA,NA,2025-11-21 00:00:20
"6237.199999928474","https://psyc-201.github.io/xiang2023/exp/index1.html?PROLIFIC_PID=REDACTED&STUDY_ID=691f8ca61c6b4dcbb0aeb5f4&SESSION_ID=691fa5faff8fc04f1a77707d","survey-html-form",21,872463,"0.0-320.0","s/NtCFnhRpgQJRNvTnlUn5biSGEMJtcdq1RPOXlMMUJ+CgA4vflz3Ip1FufVf0yta94eW3Z6Te8S+Nnu7ZiLSyaUstWWzxHGR4NXV6fDkALEFLkSoQrjqTgKqm4kKndM9DVDLPoJceS/QVUD6n+wa9eZfI94UNfRpHk1KmFjD0hxyTRvsEAOEl5f2J4qcflBqIB6U+awe4BLSAPukFFYr2wnH+a4UiGfXu4rS+6xcJ9ro+slQ/Mqo9MpX+CF3cn8wbrdZkMyZRGZQMMk9jMaupgx3GBwdChCQ9OBPWKkiCTK15np69tj8RPOIHe0MUkg4jm5NSz0+8eZnsvRROIM4w==","691f8ca61c6b4dcbb0aeb5f4","691fa5faff8fc04f1a77707d","index1","<span style='color:red'>Fail,<span style='color:red'>Fail,<span style='color:green'>Lift,<span style='color:green'>Lift,<span style='color:red'>Fail,<span style='color:red'>Fail,<span style='color:red'>Fail,<span style='color:red'>Fail,<span style='color:red'>Fail,<span style='color:green'>Lift,<span style='color:red'>Fail,<span style='color:green'>Lift","<span style='color:red'>Fail,<span style='color:red'>Fail,<span style='color:green'>Lift,<span style='color:green'>Lift,<span style='color:green'>Lift,<span style='color:green'>Lift,<span style='color:green'>Lift,<span style='color:red'>Fail,<span style='color:green'>Lift,<span style='color:green'>Lift,<span style='color:red'>Fail,<span style='color:green'>Lift","<span style='color:red'>Fail,<span style='color:green'>Lift,<span style='color:green'>Lift,<span style='color:red'>Fail,<span style='color:green'>Lift,<span style='color:green'>Lift","0,0,1,1,0,0,0,0,0,1,0,1","0,0,1,1,1,1,1,0,1,1,0,1","0,1,1,0,1,1",10,20,20,"","","","","{""box1"":""75""}","",NA,2,"round3_ready",4,2,3,NA,NA,NA,NA,NA,NA,NA,NA,NA,NA,NA,NA,NA,NA,75,75,NA,NA,NA,NA,NA,NA,NA,NA,NA,75,75,NA,NA,NA,NA,NA,NA,NA,NA,NA,"",NA,NA,NA,NA,NA,NA,NA,NA,2025-11-21 00:00:20
"53183","https://psyc-201.github.io/xiang2023/exp/index1.html?PROLIFIC_PID=REDACTED&STUDY_ID=691f8ca61c6b4dcbb0aeb5f4&SESSION_ID=691fa5faff8fc04f1a77707d","survey-html-form",22,925647,"0.0-321.0-0.0","s/NtCFnhRpgQJRNvTnlUn5biSGEMJtcdq1RPOXlMMUJ+CgA4vflz3Ip1FufVf0yta94eW3Z6Te8S+Nnu7ZiLSyaUstWWzxHGR4NXV6fDkALEFLkSoQrjqTgKqm4kKndM9DVDLPoJceS/QVUD6n+wa9eZfI94UNfRpHk1KmFjD0hxyTRvsEAOEl5f2J4qcflBqIB6U+awe4BLSAPukFFYr2wnH+a4UiGfXu4rS+6xcJ9ro+slQ/Mqo9MpX+CF3cn8wbrdZkMyZRGZQMMk9jMaupgx3GBwdChCQ9OBPWKkiCTK15np69tj8RPOIHe0MUkg4jm5NSz0+8eZnsvRROIM4w==","691f8ca61c6b4dcbb0aeb5f4","691fa5faff8fc04f1a77707d","index1","<span style='color:red'>Fail,<span style='color:red'>Fail,<span style='color:green'>Lift,<span style='color:green'>Lift,<span style='color:red'>Fail,<span style='color:red'>Fail,<span style='color:red'>Fail,<span style='color:red'>Fail,<span style='color:red'>Fail,<span style='color:green'>Lift,<span style='color:red'>Fail,<span style='color:green'>Lift","<span style='color:red'>Fail,<span style='color:red'>Fail,<span style='color:green'>Lift,<span style='color:green'>Lift,<span style='color:green'>Lift,<span style='color:green'>Lift,<span style='color:green'>Lift,<span style='color:red'>Fail,<span style='color:green'>Lift,<span style='color:green'>Lift,<span style='color:red'>Fail,<span style='color:green'>Lift","<span style='color:red'>Fail,<span style='color:green'>Lift,<span style='color:green'>Lift,<span style='color:red'>Fail,<span style='color:green'>Lift,<span style='color:green'>Lift","0,0,1,1,0,0,0,0,0,1,0,1","0,0,1,1,1,1,1,0,1,1,0,1","0,1,1,0,1,1",10,20,20,"","","","","{""box1"":""6"",""box2"":""6"",""box3"":""50"",""box4"":""50""}","",NA,3,"round3_lift",5,2,3,6,6,50,50,1,1,20,NA,NA,NA,NA,NA,NA,NA,NA,NA,NA,NA,NA,NA,NA,NA,NA,NA,NA,NA,NA,NA,NA,6,6,1,1,20,50,50,"",NA,NA,NA,NA,NA,NA,NA,NA,2025-11-21 00:00:20
"null","https://psyc-201.github.io/xiang2023/exp/index1.html?PROLIFIC_PID=REDACTED&STUDY_ID=691f8ca61c6b4dcbb0aeb5f4&SESSION_ID=691fa5faff8fc04f1a77707d","html-keyboard-response",23,928663,"0.0-325.0","s/NtCFnhRpgQJRNvTnlUn5biSGEMJtcdq1RPOXlMMUJ+CgA4vflz3Ip1FufVf0yta94eW3Z6Te8S+Nnu7ZiLSyaUstWWzxHGR4NXV6fDkALEFLkSoQrjqTgKqm4kKndM9DVDLPoJceS/QVUD6n+wa9eZfI94UNfRpHk1KmFjD0hxyTRvsEAOEl5f2J4qcflBqIB6U+awe4BLSAPukFFYr2wnH+a4UiGfXu4rS+6xcJ9ro+slQ/Mqo9MpX+CF3cn8wbrdZkMyZRGZQMMk9jMaupgx3GBwdChCQ9OBPWKkiCTK15np69tj8RPOIHe0MUkg4jm5NSz0+8eZnsvRROIM4w==","691f8ca61c6b4dcbb0aeb5f4","691fa5faff8fc04f1a77707d","index1","<span style='color:red'>Fail,<span style='color:red'>Fail,<span style='color:green'>Lift,<span style='color:green'>Lift,<span style='color:red'>Fail,<span style='color:red'>Fail,<span style='color:red'>Fail,<span style='color:red'>Fail,<span style='color:red'>Fail,<span style='color:green'>Lift,<span style='color:red'>Fail,<span style='color:green'>Lift","<span style='color:red'>Fail,<span style='color:red'>Fail,<span style='color:green'>Lift,<span style='color:green'>Lift,<span style='color:green'>Lift,<span style='color:green'>Lift,<span style='color:green'>Lift,<span style='color:red'>Fail,<span style='color:green'>Lift,<span style='color:green'>Lift,<span style='color:red'>Fail,<span style='color:green'>Lift","<span style='color:red'>Fail,<span style='color:green'>Lift,<span style='color:green'>Lift,<span style='color:red'>Fail,<span style='color:green'>Lift,<span style='color:green'>Lift","0,0,1,1,0,0,0,0,0,1,0,1","0,0,1,1,1,1,1,0,1,1,0,1","0,1,1,0,1,1",10,20,20,"","","<p style='font-size:30px'><b> New Contest! </b></p>","null","","",NA,3,"",NA,NA,NA,NA,NA,NA,NA,NA,NA,NA,NA,NA,NA,NA,NA,NA,NA,NA,NA,NA,NA,NA,NA,NA,NA,NA,NA,NA,NA,NA,NA,NA,NA,NA,NA,NA,NA,NA,NA,"",NA,NA,NA,NA,NA,NA,NA,NA,2025-11-21 00:00:20
"17110.900000095367","https://psyc-201.github.io/xiang2023/exp/index1.html?PROLIFIC_PID=REDACTED&STUDY_ID=691f8ca61c6b4dcbb0aeb5f4&SESSION_ID=691fa5faff8fc04f1a77707d","survey-html-form",24,945776,"0.0-326.0","s/NtCFnhRpgQJRNvTnlUn5biSGEMJtcdq1RPOXlMMUJ+CgA4vflz3Ip1FufVf0yta94eW3Z6Te8S+Nnu7ZiLSyaUstWWzxHGR4NXV6fDkALEFLkSoQrjqTgKqm4kKndM9DVDLPoJceS/QVUD6n+wa9eZfI94UNfRpHk1KmFjD0hxyTRvsEAOEl5f2J4qcflBqIB6U+awe4BLSAPukFFYr2wnH+a4UiGfXu4rS+6xcJ9ro+slQ/Mqo9MpX+CF3cn8wbrdZkMyZRGZQMMk9jMaupgx3GBwdChCQ9OBPWKkiCTK15np69tj8RPOIHe0MUkg4jm5NSz0+8eZnsvRROIM4w==","691f8ca61c6b4dcbb0aeb5f4","691fa5faff8fc04f1a77707d","index1","<span style='color:red'>Fail,<span style='color:red'>Fail,<span style='color:green'>Lift,<span style='color:green'>Lift,<span style='color:red'>Fail,<span style='color:red'>Fail,<span style='color:red'>Fail,<span style='color:red'>Fail,<span style='color:red'>Fail,<span style='color:green'>Lift,<span style='color:red'>Fail,<span style='color:green'>Lift","<span style='color:red'>Fail,<span style='color:red'>Fail,<span style='color:green'>Lift,<span style='color:green'>Lift,<span style='color:green'>Lift,<span style='color:green'>Lift,<span style='color:green'>Lift,<span style='color:red'>Fail,<span style='color:green'>Lift,<span style='color:green'>Lift,<span style='color:red'>Fail,<span style='color:green'>Lift","<span style='color:red'>Fail,<span style='color:green'>Lift,<span style='color:green'>Lift,<span style='color:red'>Fail,<span style='color:green'>Lift,<span style='color:green'>Lift","0,0,1,1,0,0,0,0,0,1,0,1","0,0,1,1,1,1,1,0,1,1,0,1","0,1,1,0,1,1",10,20,20,"","","","","{""box1"":""6"",""box2"":""6""}","",NA,3,"round1_outcome",1,3,1,6,6,NA,NA,0,0,10,6,6,NA,NA,0,0,10,NA,NA,NA,NA,NA,NA,NA,NA,NA,NA,NA,NA,NA,NA,NA,NA,NA,NA,NA,NA,NA,NA,"",NA,NA,NA,NA,NA,NA,NA,NA,2025-11-21 00:00:20
"10370.399999976158","https://psyc-201.github.io/xiang2023/exp/index1.html?PROLIFIC_PID=REDACTED&STUDY_ID=691f8ca61c6b4dcbb0aeb5f4&SESSION_ID=691fa5faff8fc04f1a77707d","survey-html-form",25,956148,"0.0-327.0","s/NtCFnhRpgQJRNvTnlUn5biSGEMJtcdq1RPOXlMMUJ+CgA4vflz3Ip1FufVf0yta94eW3Z6Te8S+Nnu7ZiLSyaUstWWzxHGR4NXV6fDkALEFLkSoQrjqTgKqm4kKndM9DVDLPoJceS/QVUD6n+wa9eZfI94UNfRpHk1KmFjD0hxyTRvsEAOEl5f2J4qcflBqIB6U+awe4BLSAPukFFYr2wnH+a4UiGfXu4rS+6xcJ9ro+slQ/Mqo9MpX+CF3cn8wbrdZkMyZRGZQMMk9jMaupgx3GBwdChCQ9OBPWKkiCTK15np69tj8RPOIHe0MUkg4jm5NSz0+8eZnsvRROIM4w==","691f8ca61c6b4dcbb0aeb5f4","691fa5faff8fc04f1a77707d","index1","<span style='color:red'>Fail,<span style='color:red'>Fail,<span style='color:green'>Lift,<span style='color:green'>Lift,<span style='color:red'>Fail,<span style='color:red'>Fail,<span style='color:red'>Fail,<span style='color:red'>Fail,<span style='color:red'>Fail,<span style='color:green'>Lift,<span style='color:red'>Fail,<span style='color:green'>Lift","<span style='color:red'>Fail,<span style='color:red'>Fail,<span style='color:green'>Lift,<span style='color:green'>Lift,<span style='color:green'>Lift,<span style='color:green'>Lift,<span style='color:green'>Lift,<span style='color:red'>Fail,<span style='color:green'>Lift,<span style='color:green'>Lift,<span style='color:red'>Fail,<span style='color:green'>Lift","<span style='color:red'>Fail,<span style='color:green'>Lift,<span style='color:green'>Lift,<span style='color:red'>Fail,<span style='color:green'>Lift,<span style='color:green'>Lift","0,0,1,1,0,0,0,0,0,1,0,1","0,0,1,1,1,1,1,0,1,1,0,1","0,1,1,0,1,1",10,20,20,"","","","","{""box1"":""60"",""box2"":""75""}","",NA,3,"round2_ready",2,3,2,NA,NA,NA,NA,NA,NA,NA,NA,NA,NA,NA,NA,NA,NA,60,75,60,75,NA,NA,NA,NA,NA,NA,NA,NA,NA,NA,NA,NA,NA,NA,NA,NA,NA,NA,"",NA,NA,NA,NA,NA,NA,NA,NA,2025-11-21 00:00:20
"10313.600000023842","https://psyc-201.github.io/xiang2023/exp/index1.html?PROLIFIC_PID=REDACTED&STUDY_ID=691f8ca61c6b4dcbb0aeb5f4&SESSION_ID=691fa5faff8fc04f1a77707d","survey-html-form",26,966463,"0.0-328.0","s/NtCFnhRpgQJRNvTnlUn5biSGEMJtcdq1RPOXlMMUJ+CgA4vflz3Ip1FufVf0yta94eW3Z6Te8S+Nnu7ZiLSyaUstWWzxHGR4NXV6fDkALEFLkSoQrjqTgKqm4kKndM9DVDLPoJceS/QVUD6n+wa9eZfI94UNfRpHk1KmFjD0hxyTRvsEAOEl5f2J4qcflBqIB6U+awe4BLSAPukFFYr2wnH+a4UiGfXu4rS+6xcJ9ro+slQ/Mqo9MpX+CF3cn8wbrdZkMyZRGZQMMk9jMaupgx3GBwdChCQ9OBPWKkiCTK15np69tj8RPOIHe0MUkg4jm5NSz0+8eZnsvRROIM4w==","691f8ca61c6b4dcbb0aeb5f4","691fa5faff8fc04f1a77707d","index1","<span style='color:red'>Fail,<span style='color:red'>Fail,<span style='color:green'>Lift,<span style='color:green'>Lift,<span style='color:red'>Fail,<span style='color:red'>Fail,<span style='color:red'>Fail,<span style='color:red'>Fail,<span style='color:red'>Fail,<span style='color:green'>Lift,<span style='color:red'>Fail,<span style='color:green'>Lift","<span style='color:red'>Fail,<span style='color:red'>Fail,<span style='color:green'>Lift,<span style='color:green'>Lift,<span style='color:green'>Lift,<span style='color:green'>Lift,<span style='color:green'>Lift,<span style='color:red'>Fail,<span style='color:green'>Lift,<span style='color:green'>Lift,<span style='color:red'>Fail,<span style='color:green'>Lift","<span style='color:red'>Fail,<span style='color:green'>Lift,<span style='color:green'>Lift,<span style='color:red'>Fail,<span style='color:green'>Lift,<span style='color:green'>Lift","0,0,1,1,0,0,0,0,0,1,0,1","0,0,1,1,1,1,1,0,1,1,0,1","0,1,1,0,1,1",10,20,20,"","","","","{""box1"":""5"",""box2"":""5""}","",NA,3,"round2_outcome",3,3,2,5,5,NA,NA,0,0,20,NA,NA,NA,NA,NA,NA,NA,NA,NA,NA,NA,5,5,NA,NA,0,0,20,NA,NA,NA,NA,NA,NA,NA,NA,NA,NA,NA,"",NA,NA,NA,NA,NA,NA,NA,NA,2025-11-21 00:00:20
"7258.699999928474","https://psyc-201.github.io/xiang2023/exp/index1.html?PROLIFIC_PID=REDACTED&STUDY_ID=691f8ca61c6b4dcbb0aeb5f4&SESSION_ID=691fa5faff8fc04f1a77707d","survey-html-form",27,973723,"0.0-329.0","s/NtCFnhRpgQJRNvTnlUn5biSGEMJtcdq1RPOXlMMUJ+CgA4vflz3Ip1FufVf0yta94eW3Z6Te8S+Nnu7ZiLSyaUstWWzxHGR4NXV6fDkALEFLkSoQrjqTgKqm4kKndM9DVDLPoJceS/QVUD6n+wa9eZfI94UNfRpHk1KmFjD0hxyTRvsEAOEl5f2J4qcflBqIB6U+awe4BLSAPukFFYr2wnH+a4UiGfXu4rS+6xcJ9ro+slQ/Mqo9MpX+CF3cn8wbrdZkMyZRGZQMMk9jMaupgx3GBwdChCQ9OBPWKkiCTK15np69tj8RPOIHe0MUkg4jm5NSz0+8eZnsvRROIM4w==","691f8ca61c6b4dcbb0aeb5f4","691fa5faff8fc04f1a77707d","index1","<span style='color:red'>Fail,<span style='color:red'>Fail,<span style='color:green'>Lift,<span style='color:green'>Lift,<span style='color:red'>Fail,<span style='color:red'>Fail,<span style='color:red'>Fail,<span style='color:red'>Fail,<span style='color:red'>Fail,<span style='color:green'>Lift,<span style='color:red'>Fail,<span style='color:green'>Lift","<span style='color:red'>Fail,<span style='color:red'>Fail,<span style='color:green'>Lift,<span style='color:green'>Lift,<span style='color:green'>Lift,<span style='color:green'>Lift,<span style='color:green'>Lift,<span style='color:red'>Fail,<span style='color:green'>Lift,<span style='color:green'>Lift,<span style='color:red'>Fail,<span style='color:green'>Lift","<span style='color:red'>Fail,<span style='color:green'>Lift,<span style='color:green'>Lift,<span style='color:red'>Fail,<span style='color:green'>Lift,<span style='color:green'>Lift","0,0,1,1,0,0,0,0,0,1,0,1","0,0,1,1,1,1,1,0,1,1,0,1","0,1,1,0,1,1",10,20,20,"","","","","{""box1"":""75""}","",NA,3,"round3_ready",4,3,3,NA,NA,NA,NA,NA,NA,NA,NA,NA,NA,NA,NA,NA,NA,75,75,NA,NA,NA,NA,NA,NA,NA,NA,NA,75,75,NA,NA,NA,NA,NA,NA,NA,NA,NA,"",NA,NA,NA,NA,NA,NA,NA,NA,2025-11-21 00:00:20
"30424.300000071526","https://psyc-201.github.io/xiang2023/exp/index1.html?PROLIFIC_PID=REDACTED&STUDY_ID=691f8ca61c6b4dcbb0aeb5f4&SESSION_ID=691fa5faff8fc04f1a77707d","survey-html-form",28,1004148,"0.0-331.0-0.0","s/NtCFnhRpgQJRNvTnlUn5biSGEMJtcdq1RPOXlMMUJ+CgA4vflz3Ip1FufVf0yta94eW3Z6Te8S+Nnu7ZiLSyaUstWWzxHGR4NXV6fDkALEFLkSoQrjqTgKqm4kKndM9DVDLPoJceS/QVUD6n+wa9eZfI94UNfRpHk1KmFjD0hxyTRvsEAOEl5f2J4qcflBqIB6U+awe4BLSAPukFFYr2wnH+a4UiGfXu4rS+6xcJ9ro+slQ/Mqo9MpX+CF3cn8wbrdZkMyZRGZQMMk9jMaupgx3GBwdChCQ9OBPWKkiCTK15np69tj8RPOIHe0MUkg4jm5NSz0+8eZnsvRROIM4w==","691f8ca61c6b4dcbb0aeb5f4","691fa5faff8fc04f1a77707d","index1","<span style='color:red'>Fail,<span style='color:red'>Fail,<span style='color:green'>Lift,<span style='color:green'>Lift,<span style='color:red'>Fail,<span style='color:red'>Fail,<span style='color:red'>Fail,<span style='color:red'>Fail,<span style='color:red'>Fail,<span style='color:green'>Lift,<span style='color:red'>Fail,<span style='color:green'>Lift","<span style='color:red'>Fail,<span style='color:red'>Fail,<span style='color:green'>Lift,<span style='color:green'>Lift,<span style='color:green'>Lift,<span style='color:green'>Lift,<span style='color:green'>Lift,<span style='color:red'>Fail,<span style='color:green'>Lift,<span style='color:green'>Lift,<span style='color:red'>Fail,<span style='color:green'>Lift","<span style='color:red'>Fail,<span style='color:green'>Lift,<span style='color:green'>Lift,<span style='color:red'>Fail,<span style='color:green'>Lift,<span style='color:green'>Lift","0,0,1,1,0,0,0,0,0,1,0,1","0,0,1,1,1,1,1,0,1,1,0,1","0,1,1,0,1,1",10,20,20,"","","","","{""box1"":""5"",""box2"":""5"",""box3"":""999"",""box4"":""999""}","",NA,4,"round3_fail",5,3,3,5,5,NA,NA,0,0,20,NA,NA,NA,NA,NA,NA,NA,NA,NA,NA,NA,NA,NA,NA,NA,NA,NA,NA,NA,NA,1,1,5,5,0,0,20,NA,NA,"",NA,NA,NA,NA,NA,NA,NA,NA,2025-11-21 00:00:20
"null","https://psyc-201.github.io/xiang2023/exp/index1.html?PROLIFIC_PID=REDACTED&STUDY_ID=691f8ca61c6b4dcbb0aeb5f4&SESSION_ID=691fa5faff8fc04f1a77707d","html-keyboard-response",29,1007158,"0.0-334.0","s/NtCFnhRpgQJRNvTnlUn5biSGEMJtcdq1RPOXlMMUJ+CgA4vflz3Ip1FufVf0yta94eW3Z6Te8S+Nnu7ZiLSyaUstWWzxHGR4NXV6fDkALEFLkSoQrjqTgKqm4kKndM9DVDLPoJceS/QVUD6n+wa9eZfI94UNfRpHk1KmFjD0hxyTRvsEAOEl5f2J4qcflBqIB6U+awe4BLSAPukFFYr2wnH+a4UiGfXu4rS+6xcJ9ro+slQ/Mqo9MpX+CF3cn8wbrdZkMyZRGZQMMk9jMaupgx3GBwdChCQ9OBPWKkiCTK15np69tj8RPOIHe0MUkg4jm5NSz0+8eZnsvRROIM4w==","691f8ca61c6b4dcbb0aeb5f4","691fa5faff8fc04f1a77707d","index1","<span style='color:red'>Fail,<span style='color:red'>Fail,<span style='color:green'>Lift,<span style='color:green'>Lift,<span style='color:red'>Fail,<span style='color:red'>Fail,<span style='color:red'>Fail,<span style='color:red'>Fail,<span style='color:red'>Fail,<span style='color:green'>Lift,<span style='color:red'>Fail,<span style='color:green'>Lift","<span style='color:red'>Fail,<span style='color:red'>Fail,<span style='color:green'>Lift,<span style='color:green'>Lift,<span style='color:green'>Lift,<span style='color:green'>Lift,<span style='color:green'>Lift,<span style='color:red'>Fail,<span style='color:green'>Lift,<span style='color:green'>Lift,<span style='color:red'>Fail,<span style='color:green'>Lift","<span style='color:red'>Fail,<span style='color:green'>Lift,<span style='color:green'>Lift,<span style='color:red'>Fail,<span style='color:green'>Lift,<span style='color:green'>Lift","0,0,1,1,0,0,0,0,0,1,0,1","0,0,1,1,1,1,1,0,1,1,0,1","0,1,1,0,1,1",10,20,20,"","","<p style='font-size:30px'><b> New Contest! </b></p>","null","","",NA,4,"",NA,NA,NA,NA,NA,NA,NA,NA,NA,NA,NA,NA,NA,NA,NA,NA,NA,NA,NA,NA,NA,NA,NA,NA,NA,NA,NA,NA,NA,NA,NA,NA,NA,NA,NA,NA,NA,NA,NA,"",NA,NA,NA,NA,NA,NA,NA,NA,2025-11-21 00:00:20
"40493.5","https://psyc-201.github.io/xiang2023/exp/index1.html?PROLIFIC_PID=REDACTED&STUDY_ID=691f8ca61c6b4dcbb0aeb5f4&SESSION_ID=691fa5faff8fc04f1a77707d","survey-html-form",30,1047652,"0.0-335.0","s/NtCFnhRpgQJRNvTnlUn5biSGEMJtcdq1RPOXlMMUJ+CgA4vflz3Ip1FufVf0yta94eW3Z6Te8S+Nnu7ZiLSyaUstWWzxHGR4NXV6fDkALEFLkSoQrjqTgKqm4kKndM9DVDLPoJceS/QVUD6n+wa9eZfI94UNfRpHk1KmFjD0hxyTRvsEAOEl5f2J4qcflBqIB6U+awe4BLSAPukFFYr2wnH+a4UiGfXu4rS+6xcJ9ro+slQ/Mqo9MpX+CF3cn8wbrdZkMyZRGZQMMk9jMaupgx3GBwdChCQ9OBPWKkiCTK15np69tj8RPOIHe0MUkg4jm5NSz0+8eZnsvRROIM4w==","691f8ca61c6b4dcbb0aeb5f4","691fa5faff8fc04f1a77707d","index1","<span style='color:red'>Fail,<span style='color:red'>Fail,<span style='color:green'>Lift,<span style='color:green'>Lift,<span style='color:red'>Fail,<span style='color:red'>Fail,<span style='color:red'>Fail,<span style='color:red'>Fail,<span style='color:red'>Fail,<span style='color:green'>Lift,<span style='color:red'>Fail,<span style='color:green'>Lift","<span style='color:red'>Fail,<span style='color:red'>Fail,<span style='color:green'>Lift,<span style='color:green'>Lift,<span style='color:green'>Lift,<span style='color:green'>Lift,<span style='color:green'>Lift,<span style='color:red'>Fail,<span style='color:green'>Lift,<span style='color:green'>Lift,<span style='color:red'>Fail,<span style='color:green'>Lift","<span style='color:red'>Fail,<span style='color:green'>Lift,<span style='color:green'>Lift,<span style='color:red'>Fail,<span style='color:green'>Lift,<span style='color:green'>Lift","0,0,1,1,0,0,0,0,0,1,0,1","0,0,1,1,1,1,1,0,1,1,0,1","0,1,1,0,1,1",10,20,20,"","","","","{""box1"":""5"",""box2"":""5"",""box4"":""60""}","",NA,4,"round1_outcome",1,4,1,5,5,NA,60,0,1,10,5,5,NA,60,0,1,10,NA,NA,NA,NA,NA,NA,NA,NA,NA,NA,NA,NA,NA,NA,NA,NA,NA,NA,NA,NA,NA,NA,"",NA,NA,NA,NA,NA,NA,NA,NA,2025-11-21 00:00:20
"14477.699999928474","https://psyc-201.github.io/xiang2023/exp/index1.html?PROLIFIC_PID=REDACTED&STUDY_ID=691f8ca61c6b4dcbb0aeb5f4&SESSION_ID=691fa5faff8fc04f1a77707d","survey-html-form",31,1062131,"0.0-336.0","s/NtCFnhRpgQJRNvTnlUn5biSGEMJtcdq1RPOXlMMUJ+CgA4vflz3Ip1FufVf0yta94eW3Z6Te8S+Nnu7ZiLSyaUstWWzxHGR4NXV6fDkALEFLkSoQrjqTgKqm4kKndM9DVDLPoJceS/QVUD6n+wa9eZfI94UNfRpHk1KmFjD0hxyTRvsEAOEl5f2J4qcflBqIB6U+awe4BLSAPukFFYr2wnH+a4UiGfXu4rS+6xcJ9ro+slQ/Mqo9MpX+CF3cn8wbrdZkMyZRGZQMMk9jMaupgx3GBwdChCQ9OBPWKkiCTK15np69tj8RPOIHe0MUkg4jm5NSz0+8eZnsvRROIM4w==","691f8ca61c6b4dcbb0aeb5f4","691fa5faff8fc04f1a77707d","index1","<span style='color:red'>Fail,<span style='color:red'>Fail,<span style='color:green'>Lift,<span style='color:green'>Lift,<span style='color:red'>Fail,<span style='color:red'>Fail,<span style='color:red'>Fail,<span style='color:red'>Fail,<span style='color:red'>Fail,<span style='color:green'>Lift,<span style='color:red'>Fail,<span style='color:green'>Lift","<span style='color:red'>Fail,<span style='color:red'>Fail,<span style='color:green'>Lift,<span style='color:green'>Lift,<span style='color:green'>Lift,<span style='color:green'>Lift,<span style='color:green'>Lift,<span style='color:red'>Fail,<span style='color:green'>Lift,<span style='color:green'>Lift,<span style='color:red'>Fail,<span style='color:green'>Lift","<span style='color:red'>Fail,<span style='color:green'>Lift,<span style='color:green'>Lift,<span style='color:red'>Fail,<span style='color:green'>Lift,<span style='color:green'>Lift","0,0,1,1,0,0,0,0,0,1,0,1","0,0,1,1,1,1,1,0,1,1,0,1","0,1,1,0,1,1",10,20,20,"","","","","{""box1"":""75"",""box2"":""90""}","",NA,4,"round2_ready",2,4,2,NA,NA,NA,NA,NA,NA,NA,NA,NA,NA,NA,NA,NA,NA,75,90,75,90,NA,NA,NA,NA,NA,NA,NA,NA,NA,NA,NA,NA,NA,NA,NA,NA,NA,NA,"",NA,NA,NA,NA,NA,NA,NA,NA,2025-11-21 00:00:20
"21990.199999928474","https://psyc-201.github.io/xiang2023/exp/index1.html?PROLIFIC_PID=REDACTED&STUDY_ID=691f8ca61c6b4dcbb0aeb5f4&SESSION_ID=691fa5faff8fc04f1a77707d","survey-html-form",32,1084123,"0.0-337.0","s/NtCFnhRpgQJRNvTnlUn5biSGEMJtcdq1RPOXlMMUJ+CgA4vflz3Ip1FufVf0yta94eW3Z6Te8S+Nnu7ZiLSyaUstWWzxHGR4NXV6fDkALEFLkSoQrjqTgKqm4kKndM9DVDLPoJceS/QVUD6n+wa9eZfI94UNfRpHk1KmFjD0hxyTRvsEAOEl5f2J4qcflBqIB6U+awe4BLSAPukFFYr2wnH+a4UiGfXu4rS+6xcJ9ro+slQ/Mqo9MpX+CF3cn8wbrdZkMyZRGZQMMk9jMaupgx3GBwdChCQ9OBPWKkiCTK15np69tj8RPOIHe0MUkg4jm5NSz0+8eZnsvRROIM4w==","691f8ca61c6b4dcbb0aeb5f4","691fa5faff8fc04f1a77707d","index1","<span style='color:red'>Fail,<span style='color:red'>Fail,<span style='color:green'>Lift,<span style='color:green'>Lift,<span style='color:red'>Fail,<span style='color:red'>Fail,<span style='color:red'>Fail,<span style='color:red'>Fail,<span style='color:red'>Fail,<span style='color:green'>Lift,<span style='color:red'>Fail,<span style='color:green'>Lift","<span style='color:red'>Fail,<span style='color:red'>Fail,<span style='color:green'>Lift,<span style='color:green'>Lift,<span style='color:green'>Lift,<span style='color:green'>Lift,<span style='color:green'>Lift,<span style='color:red'>Fail,<span style='color:green'>Lift,<span style='color:green'>Lift,<span style='color:red'>Fail,<span style='color:green'>Lift","<span style='color:red'>Fail,<span style='color:green'>Lift,<span style='color:green'>Lift,<span style='color:red'>Fail,<span style='color:green'>Lift,<span style='color:green'>Lift","0,0,1,1,0,0,0,0,0,1,0,1","0,0,1,1,1,1,1,0,1,1,0,1","0,1,1,0,1,1",10,20,20,"","","","","{""box1"":""5"",""box2"":""6"",""box4"":""50""}","",NA,4,"round2_outcome",3,4,2,5,6,NA,50,0,1,20,NA,NA,NA,NA,NA,NA,NA,NA,NA,NA,NA,5,6,NA,50,0,1,20,NA,NA,NA,NA,NA,NA,NA,NA,NA,NA,NA,"",NA,NA,NA,NA,NA,NA,NA,NA,2025-11-21 00:00:20
"11166.400000095367","https://psyc-201.github.io/xiang2023/exp/index1.html?PROLIFIC_PID=REDACTED&STUDY_ID=691f8ca61c6b4dcbb0aeb5f4&SESSION_ID=691fa5faff8fc04f1a77707d","survey-html-form",33,1095291,"0.0-338.0","s/NtCFnhRpgQJRNvTnlUn5biSGEMJtcdq1RPOXlMMUJ+CgA4vflz3Ip1FufVf0yta94eW3Z6Te8S+Nnu7ZiLSyaUstWWzxHGR4NXV6fDkALEFLkSoQrjqTgKqm4kKndM9DVDLPoJceS/QVUD6n+wa9eZfI94UNfRpHk1KmFjD0hxyTRvsEAOEl5f2J4qcflBqIB6U+awe4BLSAPukFFYr2wnH+a4UiGfXu4rS+6xcJ9ro+slQ/Mqo9MpX+CF3cn8wbrdZkMyZRGZQMMk9jMaupgx3GBwdChCQ9OBPWKkiCTK15np69tj8RPOIHe0MUkg4jm5NSz0+8eZnsvRROIM4w==","691f8ca61c6b4dcbb0aeb5f4","691fa5faff8fc04f1a77707d","index1","<span style='color:red'>Fail,<span style='color:red'>Fail,<span style='color:green'>Lift,<span style='color:green'>Lift,<span style='color:red'>Fail,<span style='color:red'>Fail,<span style='color:red'>Fail,<span style='color:red'>Fail,<span style='color:red'>Fail,<span style='color:green'>Lift,<span style='color:red'>Fail,<span style='color:green'>Lift","<span style='color:red'>Fail,<span style='color:red'>Fail,<span style='color:green'>Lift,<span style='color:green'>Lift,<span style='color:green'>Lift,<span style='color:green'>Lift,<span style='color:green'>Lift,<span style='color:red'>Fail,<span style='color:green'>Lift,<span style='color:green'>Lift,<span style='color:red'>Fail,<span style='color:green'>Lift","<span style='color:red'>Fail,<span style='color:green'>Lift,<span style='color:green'>Lift,<span style='color:red'>Fail,<span style='color:green'>Lift,<span style='color:green'>Lift","0,0,1,1,0,0,0,0,0,1,0,1","0,0,1,1,1,1,1,0,1,1,0,1","0,1,1,0,1,1",10,20,20,"","","","","{""box1"":""60""}","",NA,4,"round3_ready",4,4,3,NA,NA,NA,NA,NA,NA,NA,NA,NA,NA,NA,NA,NA,NA,60,60,NA,NA,NA,NA,NA,NA,NA,NA,NA,60,60,NA,NA,NA,NA,NA,NA,NA,NA,NA,"",NA,NA,NA,NA,NA,NA,NA,NA,2025-11-21 00:00:20
"28094.600000023842","https://psyc-201.github.io/xiang2023/exp/index1.html?PROLIFIC_PID=REDACTED&STUDY_ID=691f8ca61c6b4dcbb0aeb5f4&SESSION_ID=691fa5faff8fc04f1a77707d","survey-html-form",34,1123387,"0.0-339.0-0.0","s/NtCFnhRpgQJRNvTnlUn5biSGEMJtcdq1RPOXlMMUJ+CgA4vflz3Ip1FufVf0yta94eW3Z6Te8S+Nnu7ZiLSyaUstWWzxHGR4NXV6fDkALEFLkSoQrjqTgKqm4kKndM9DVDLPoJceS/QVUD6n+wa9eZfI94UNfRpHk1KmFjD0hxyTRvsEAOEl5f2J4qcflBqIB6U+awe4BLSAPukFFYr2wnH+a4UiGfXu4rS+6xcJ9ro+slQ/Mqo9MpX+CF3cn8wbrdZkMyZRGZQMMk9jMaupgx3GBwdChCQ9OBPWKkiCTK15np69tj8RPOIHe0MUkg4jm5NSz0+8eZnsvRROIM4w==","691f8ca61c6b4dcbb0aeb5f4","691fa5faff8fc04f1a77707d","index1","<span style='color:red'>Fail,<span style='color:red'>Fail,<span style='color:green'>Lift,<span style='color:green'>Lift,<span style='color:red'>Fail,<span style='color:red'>Fail,<span style='color:red'>Fail,<span style='color:red'>Fail,<span style='color:red'>Fail,<span style='color:green'>Lift,<span style='color:red'>Fail,<span style='color:green'>Lift","<span style='color:red'>Fail,<span style='color:red'>Fail,<span style='color:green'>Lift,<span style='color:green'>Lift,<span style='color:green'>Lift,<span style='color:green'>Lift,<span style='color:green'>Lift,<span style='color:red'>Fail,<span style='color:green'>Lift,<span style='color:green'>Lift,<span style='color:red'>Fail,<span style='color:green'>Lift","<span style='color:red'>Fail,<span style='color:green'>Lift,<span style='color:green'>Lift,<span style='color:red'>Fail,<span style='color:green'>Lift,<span style='color:green'>Lift","0,0,1,1,0,0,0,0,0,1,0,1","0,0,1,1,1,1,1,0,1,1,0,1","0,1,1,0,1,1",10,20,20,"","","","","{""box1"":""5"",""box2"":""6"",""box3"":""60"",""box4"":""50""}","",NA,5,"round3_lift",5,4,3,5,6,60,50,1,1,20,NA,NA,NA,NA,NA,NA,NA,NA,NA,NA,NA,NA,NA,NA,NA,NA,NA,NA,NA,NA,NA,NA,5,6,1,1,20,60,50,"",NA,NA,NA,NA,NA,NA,NA,NA,2025-11-21 00:00:20
"null","https://psyc-201.github.io/xiang2023/exp/index1.html?PROLIFIC_PID=REDACTED&STUDY_ID=691f8ca61c6b4dcbb0aeb5f4&SESSION_ID=691fa5faff8fc04f1a77707d","html-keyboard-response",35,1126401,"0.0-343.0","s/NtCFnhRpgQJRNvTnlUn5biSGEMJtcdq1RPOXlMMUJ+CgA4vflz3Ip1FufVf0yta94eW3Z6Te8S+Nnu7ZiLSyaUstWWzxHGR4NXV6fDkALEFLkSoQrjqTgKqm4kKndM9DVDLPoJceS/QVUD6n+wa9eZfI94UNfRpHk1KmFjD0hxyTRvsEAOEl5f2J4qcflBqIB6U+awe4BLSAPukFFYr2wnH+a4UiGfXu4rS+6xcJ9ro+slQ/Mqo9MpX+CF3cn8wbrdZkMyZRGZQMMk9jMaupgx3GBwdChCQ9OBPWKkiCTK15np69tj8RPOIHe0MUkg4jm5NSz0+8eZnsvRROIM4w==","691f8ca61c6b4dcbb0aeb5f4","691fa5faff8fc04f1a77707d","index1","<span style='color:red'>Fail,<span style='color:red'>Fail,<span style='color:green'>Lift,<span style='color:green'>Lift,<span style='color:red'>Fail,<span style='color:red'>Fail,<span style='color:red'>Fail,<span style='color:red'>Fail,<span style='color:red'>Fail,<span style='color:green'>Lift,<span style='color:red'>Fail,<span style='color:green'>Lift","<span style='color:red'>Fail,<span style='color:red'>Fail,<span style='color:green'>Lift,<span style='color:green'>Lift,<span style='color:green'>Lift,<span style='color:green'>Lift,<span style='color:green'>Lift,<span style='color:red'>Fail,<span style='color:green'>Lift,<span style='color:green'>Lift,<span style='color:red'>Fail,<span style='color:green'>Lift","<span style='color:red'>Fail,<span style='color:green'>Lift,<span style='color:green'>Lift,<span style='color:red'>Fail,<span style='color:green'>Lift,<span style='color:green'>Lift","0,0,1,1,0,0,0,0,0,1,0,1","0,0,1,1,1,1,1,0,1,1,0,1","0,1,1,0,1,1",10,20,20,"","","<p style='font-size:30px'><b> New Contest! </b></p>","null","","",NA,5,"",NA,NA,NA,NA,NA,NA,NA,NA,NA,NA,NA,NA,NA,NA,NA,NA,NA,NA,NA,NA,NA,NA,NA,NA,NA,NA,NA,NA,NA,NA,NA,NA,NA,NA,NA,NA,NA,NA,NA,"",NA,NA,NA,NA,NA,NA,NA,NA,2025-11-21 00:00:20
"24624.800000071526","https://psyc-201.github.io/xiang2023/exp/index1.html?PROLIFIC_PID=REDACTED&STUDY_ID=691f8ca61c6b4dcbb0aeb5f4&SESSION_ID=691fa5faff8fc04f1a77707d","survey-html-form",36,1151028,"0.0-344.0","s/NtCFnhRpgQJRNvTnlUn5biSGEMJtcdq1RPOXlMMUJ+CgA4vflz3Ip1FufVf0yta94eW3Z6Te8S+Nnu7ZiLSyaUstWWzxHGR4NXV6fDkALEFLkSoQrjqTgKqm4kKndM9DVDLPoJceS/QVUD6n+wa9eZfI94UNfRpHk1KmFjD0hxyTRvsEAOEl5f2J4qcflBqIB6U+awe4BLSAPukFFYr2wnH+a4UiGfXu4rS+6xcJ9ro+slQ/Mqo9MpX+CF3cn8wbrdZkMyZRGZQMMk9jMaupgx3GBwdChCQ9OBPWKkiCTK15np69tj8RPOIHe0MUkg4jm5NSz0+8eZnsvRROIM4w==","691f8ca61c6b4dcbb0aeb5f4","691fa5faff8fc04f1a77707d","index1","<span style='color:red'>Fail,<span style='color:red'>Fail,<span style='color:green'>Lift,<span style='color:green'>Lift,<span style='color:red'>Fail,<span style='color:red'>Fail,<span style='color:red'>Fail,<span style='color:red'>Fail,<span style='color:red'>Fail,<span style='color:green'>Lift,<span style='color:red'>Fail,<span style='color:green'>Lift","<span style='color:red'>Fail,<span style='color:red'>Fail,<span style='color:green'>Lift,<span style='color:green'>Lift,<span style='color:green'>Lift,<span style='color:green'>Lift,<span style='color:green'>Lift,<span style='color:red'>Fail,<span style='color:green'>Lift,<span style='color:green'>Lift,<span style='color:red'>Fail,<span style='color:green'>Lift","<span style='color:red'>Fail,<span style='color:green'>Lift,<span style='color:green'>Lift,<span style='color:red'>Fail,<span style='color:green'>Lift,<span style='color:green'>Lift","0,0,1,1,0,0,0,0,0,1,0,1","0,0,1,1,1,1,1,0,1,1,0,1","0,1,1,0,1,1",10,20,20,"","","","","{""box1"":""5"",""box2"":""5"",""box3"":""50"",""box4"":""50""}","",NA,5,"round1_outcome",1,5,1,5,5,50,50,1,1,10,5,5,50,50,1,1,10,NA,NA,NA,NA,NA,NA,NA,NA,NA,NA,NA,NA,NA,NA,NA,NA,NA,NA,NA,NA,NA,NA,"",NA,NA,NA,NA,NA,NA,NA,NA,2025-11-21 00:00:20
"10704.399999976158","https://psyc-201.github.io/xiang2023/exp/index1.html?PROLIFIC_PID=REDACTED&STUDY_ID=691f8ca61c6b4dcbb0aeb5f4&SESSION_ID=691fa5faff8fc04f1a77707d","survey-html-form",37,1161734,"0.0-345.0","s/NtCFnhRpgQJRNvTnlUn5biSGEMJtcdq1RPOXlMMUJ+CgA4vflz3Ip1FufVf0yta94eW3Z6Te8S+Nnu7ZiLSyaUstWWzxHGR4NXV6fDkALEFLkSoQrjqTgKqm4kKndM9DVDLPoJceS/QVUD6n+wa9eZfI94UNfRpHk1KmFjD0hxyTRvsEAOEl5f2J4qcflBqIB6U+awe4BLSAPukFFYr2wnH+a4UiGfXu4rS+6xcJ9ro+slQ/Mqo9MpX+CF3cn8wbrdZkMyZRGZQMMk9jMaupgx3GBwdChCQ9OBPWKkiCTK15np69tj8RPOIHe0MUkg4jm5NSz0+8eZnsvRROIM4w==","691f8ca61c6b4dcbb0aeb5f4","691fa5faff8fc04f1a77707d","index1","<span style='color:red'>Fail,<span style='color:red'>Fail,<span style='color:green'>Lift,<span style='color:green'>Lift,<span style='color:red'>Fail,<span style='color:red'>Fail,<span style='color:red'>Fail,<span style='color:red'>Fail,<span style='color:red'>Fail,<span style='color:green'>Lift,<span style='color:red'>Fail,<span style='color:green'>Lift","<span style='color:red'>Fail,<span style='color:red'>Fail,<span style='color:green'>Lift,<span style='color:green'>Lift,<span style='color:green'>Lift,<span style='color:green'>Lift,<span style='color:green'>Lift,<span style='color:red'>Fail,<span style='color:green'>Lift,<span style='color:green'>Lift,<span style='color:red'>Fail,<span style='color:green'>Lift","<span style='color:red'>Fail,<span style='color:green'>Lift,<span style='color:green'>Lift,<span style='color:red'>Fail,<span style='color:green'>Lift,<span style='color:green'>Lift","0,0,1,1,0,0,0,0,0,1,0,1","0,0,1,1,1,1,1,0,1,1,0,1","0,1,1,0,1,1",10,20,20,"","","","","{""box1"":""90"",""box2"":""90""}","",NA,5,"round2_ready",2,5,2,NA,NA,NA,NA,NA,NA,NA,NA,NA,NA,NA,NA,NA,NA,90,90,90,90,NA,NA,NA,NA,NA,NA,NA,NA,NA,NA,NA,NA,NA,NA,NA,NA,NA,NA,"",NA,NA,NA,NA,NA,NA,NA,NA,2025-11-21 00:00:20
"12843.600000023842","https://psyc-201.github.io/xiang2023/exp/index1.html?PROLIFIC_PID=REDACTED&STUDY_ID=691f8ca61c6b4dcbb0aeb5f4&SESSION_ID=691fa5faff8fc04f1a77707d","survey-html-form",38,1174579,"0.0-346.0","s/NtCFnhRpgQJRNvTnlUn5biSGEMJtcdq1RPOXlMMUJ+CgA4vflz3Ip1FufVf0yta94eW3Z6Te8S+Nnu7ZiLSyaUstWWzxHGR4NXV6fDkALEFLkSoQrjqTgKqm4kKndM9DVDLPoJceS/QVUD6n+wa9eZfI94UNfRpHk1KmFjD0hxyTRvsEAOEl5f2J4qcflBqIB6U+awe4BLSAPukFFYr2wnH+a4UiGfXu4rS+6xcJ9ro+slQ/Mqo9MpX+CF3cn8wbrdZkMyZRGZQMMk9jMaupgx3GBwdChCQ9OBPWKkiCTK15np69tj8RPOIHe0MUkg4jm5NSz0+8eZnsvRROIM4w==","691f8ca61c6b4dcbb0aeb5f4","691fa5faff8fc04f1a77707d","index1","<span style='color:red'>Fail,<span style='color:red'>Fail,<span style='color:green'>Lift,<span style='color:green'>Lift,<span style='color:red'>Fail,<span style='color:red'>Fail,<span style='color:red'>Fail,<span style='color:red'>Fail,<span style='color:red'>Fail,<span style='color:green'>Lift,<span style='color:red'>Fail,<span style='color:green'>Lift","<span style='color:red'>Fail,<span style='color:red'>Fail,<span style='color:green'>Lift,<span style='color:green'>Lift,<span style='color:green'>Lift,<span style='color:green'>Lift,<span style='color:green'>Lift,<span style='color:red'>Fail,<span style='color:green'>Lift,<span style='color:green'>Lift,<span style='color:red'>Fail,<span style='color:green'>Lift","<span style='color:red'>Fail,<span style='color:green'>Lift,<span style='color:green'>Lift,<span style='color:red'>Fail,<span style='color:green'>Lift,<span style='color:green'>Lift","0,0,1,1,0,0,0,0,0,1,0,1","0,0,1,1,1,1,1,0,1,1,0,1","0,1,1,0,1,1",10,20,20,"","","","","{""box1"":""5"",""box2"":""5"",""box3"":""50"",""box4"":""50""}","",NA,5,"round2_outcome",3,5,2,5,5,50,50,1,1,20,NA,NA,NA,NA,NA,NA,NA,NA,NA,NA,NA,5,5,50,50,1,1,20,NA,NA,NA,NA,NA,NA,NA,NA,NA,NA,NA,"",NA,NA,NA,NA,NA,NA,NA,NA,2025-11-21 00:00:20
"9333.199999928474","https://psyc-201.github.io/xiang2023/exp/index1.html?PROLIFIC_PID=REDACTED&STUDY_ID=691f8ca61c6b4dcbb0aeb5f4&SESSION_ID=691fa5faff8fc04f1a77707d","survey-html-form",39,1183913,"0.0-347.0","s/NtCFnhRpgQJRNvTnlUn5biSGEMJtcdq1RPOXlMMUJ+CgA4vflz3Ip1FufVf0yta94eW3Z6Te8S+Nnu7ZiLSyaUstWWzxHGR4NXV6fDkALEFLkSoQrjqTgKqm4kKndM9DVDLPoJceS/QVUD6n+wa9eZfI94UNfRpHk1KmFjD0hxyTRvsEAOEl5f2J4qcflBqIB6U+awe4BLSAPukFFYr2wnH+a4UiGfXu4rS+6xcJ9ro+slQ/Mqo9MpX+CF3cn8wbrdZkMyZRGZQMMk9jMaupgx3GBwdChCQ9OBPWKkiCTK15np69tj8RPOIHe0MUkg4jm5NSz0+8eZnsvRROIM4w==","691f8ca61c6b4dcbb0aeb5f4","691fa5faff8fc04f1a77707d","index1","<span style='color:red'>Fail,<span style='color:red'>Fail,<span style='color:green'>Lift,<span style='color:green'>Lift,<span style='color:red'>Fail,<span style='color:red'>Fail,<span style='color:red'>Fail,<span style='color:red'>Fail,<span style='color:red'>Fail,<span style='color:green'>Lift,<span style='color:red'>Fail,<span style='color:green'>Lift","<span style='color:red'>Fail,<span style='color:red'>Fail,<span style='color:green'>Lift,<span style='color:green'>Lift,<span style='color:green'>Lift,<span style='color:green'>Lift,<span style='color:green'>Lift,<span style='color:red'>Fail,<span style='color:green'>Lift,<span style='color:green'>Lift,<span style='color:red'>Fail,<span style='color:green'>Lift","<span style='color:red'>Fail,<span style='color:green'>Lift,<span style='color:green'>Lift,<span style='color:red'>Fail,<span style='color:green'>Lift,<span style='color:green'>Lift","0,0,1,1,0,0,0,0,0,1,0,1","0,0,1,1,1,1,1,0,1,1,0,1","0,1,1,0,1,1",10,20,20,"","","","","{""box1"":""100""}","",NA,5,"round3_ready",4,5,3,NA,NA,NA,NA,NA,NA,NA,NA,NA,NA,NA,NA,NA,NA,100,100,NA,NA,NA,NA,NA,NA,NA,NA,NA,100,100,NA,NA,NA,NA,NA,NA,NA,NA,NA,"",NA,NA,NA,NA,NA,NA,NA,NA,2025-11-21 00:00:20
"9442.200000047684","https://psyc-201.github.io/xiang2023/exp/index1.html?PROLIFIC_PID=REDACTED&STUDY_ID=691f8ca61c6b4dcbb0aeb5f4&SESSION_ID=691fa5faff8fc04f1a77707d","survey-html-form",40,1193356,"0.0-348.0-0.0","s/NtCFnhRpgQJRNvTnlUn5biSGEMJtcdq1RPOXlMMUJ+CgA4vflz3Ip1FufVf0yta94eW3Z6Te8S+Nnu7ZiLSyaUstWWzxHGR4NXV6fDkALEFLkSoQrjqTgKqm4kKndM9DVDLPoJceS/QVUD6n+wa9eZfI94UNfRpHk1KmFjD0hxyTRvsEAOEl5f2J4qcflBqIB6U+awe4BLSAPukFFYr2wnH+a4UiGfXu4rS+6xcJ9ro+slQ/Mqo9MpX+CF3cn8wbrdZkMyZRGZQMMk9jMaupgx3GBwdChCQ9OBPWKkiCTK15np69tj8RPOIHe0MUkg4jm5NSz0+8eZnsvRROIM4w==","691f8ca61c6b4dcbb0aeb5f4","691fa5faff8fc04f1a77707d","index1","<span style='color:red'>Fail,<span style='color:red'>Fail,<span style='color:green'>Lift,<span style='color:green'>Lift,<span style='color:red'>Fail,<span style='color:red'>Fail,<span style='color:red'>Fail,<span style='color:red'>Fail,<span style='color:red'>Fail,<span style='color:green'>Lift,<span style='color:red'>Fail,<span style='color:green'>Lift","<span style='color:red'>Fail,<span style='color:red'>Fail,<span style='color:green'>Lift,<span style='color:green'>Lift,<span style='color:green'>Lift,<span style='color:green'>Lift,<span style='color:green'>Lift,<span style='color:red'>Fail,<span style='color:green'>Lift,<span style='color:green'>Lift,<span style='color:red'>Fail,<span style='color:green'>Lift","<span style='color:red'>Fail,<span style='color:green'>Lift,<span style='color:green'>Lift,<span style='color:red'>Fail,<span style='color:green'>Lift,<span style='color:green'>Lift","0,0,1,1,0,0,0,0,0,1,0,1","0,0,1,1,1,1,1,0,1,1,0,1","0,1,1,0,1,1",10,20,20,"","","","","{""box1"":""5"",""box2"":""5"",""box3"":""50"",""box4"":""50""}","",NA,6,"round3_lift",5,5,3,5,5,50,50,1,1,20,NA,NA,NA,NA,NA,NA,NA,NA,NA,NA,NA,NA,NA,NA,NA,NA,NA,NA,NA,NA,NA,NA,5,5,1,1,20,50,50,"",NA,NA,NA,NA,NA,NA,NA,NA,2025-11-21 00:00:20
"null","https://psyc-201.github.io/xiang2023/exp/index1.html?PROLIFIC_PID=REDACTED&STUDY_ID=691f8ca61c6b4dcbb0aeb5f4&SESSION_ID=691fa5faff8fc04f1a77707d","html-keyboard-response",41,1196360,"0.0-352.0","s/NtCFnhRpgQJRNvTnlUn5biSGEMJtcdq1RPOXlMMUJ+CgA4vflz3Ip1FufVf0yta94eW3Z6Te8S+Nnu7ZiLSyaUstWWzxHGR4NXV6fDkALEFLkSoQrjqTgKqm4kKndM9DVDLPoJceS/QVUD6n+wa9eZfI94UNfRpHk1KmFjD0hxyTRvsEAOEl5f2J4qcflBqIB6U+awe4BLSAPukFFYr2wnH+a4UiGfXu4rS+6xcJ9ro+slQ/Mqo9MpX+CF3cn8wbrdZkMyZRGZQMMk9jMaupgx3GBwdChCQ9OBPWKkiCTK15np69tj8RPOIHe0MUkg4jm5NSz0+8eZnsvRROIM4w==","691f8ca61c6b4dcbb0aeb5f4","691fa5faff8fc04f1a77707d","index1","<span style='color:red'>Fail,<span style='color:red'>Fail,<span style='color:green'>Lift,<span style='color:green'>Lift,<span style='color:red'>Fail,<span style='color:red'>Fail,<span style='color:red'>Fail,<span style='color:red'>Fail,<span style='color:red'>Fail,<span style='color:green'>Lift,<span style='color:red'>Fail,<span style='color:green'>Lift","<span style='color:red'>Fail,<span style='color:red'>Fail,<span style='color:green'>Lift,<span style='color:green'>Lift,<span style='color:green'>Lift,<span style='color:green'>Lift,<span style='color:green'>Lift,<span style='color:red'>Fail,<span style='color:green'>Lift,<span style='color:green'>Lift,<span style='color:red'>Fail,<span style='color:green'>Lift","<span style='color:red'>Fail,<span style='color:green'>Lift,<span style='color:green'>Lift,<span style='color:red'>Fail,<span style='color:green'>Lift,<span style='color:green'>Lift","0,0,1,1,0,0,0,0,0,1,0,1","0,0,1,1,1,1,1,0,1,1,0,1","0,1,1,0,1,1",10,20,20,"","","<p style='font-size:30px'><b> New Contest! </b></p>","null","","",NA,6,"",NA,NA,NA,NA,NA,NA,NA,NA,NA,NA,NA,NA,NA,NA,NA,NA,NA,NA,NA,NA,NA,NA,NA,NA,NA,NA,NA,NA,NA,NA,NA,NA,NA,NA,NA,NA,NA,NA,NA,"",NA,NA,NA,NA,NA,NA,NA,NA,2025-11-21 00:00:20
"11757.899999976158","https://psyc-201.github.io/xiang2023/exp/index1.html?PROLIFIC_PID=REDACTED&STUDY_ID=691f8ca61c6b4dcbb0aeb5f4&SESSION_ID=691fa5faff8fc04f1a77707d","survey-html-form",42,1208119,"0.0-353.0","s/NtCFnhRpgQJRNvTnlUn5biSGEMJtcdq1RPOXlMMUJ+CgA4vflz3Ip1FufVf0yta94eW3Z6Te8S+Nnu7ZiLSyaUstWWzxHGR4NXV6fDkALEFLkSoQrjqTgKqm4kKndM9DVDLPoJceS/QVUD6n+wa9eZfI94UNfRpHk1KmFjD0hxyTRvsEAOEl5f2J4qcflBqIB6U+awe4BLSAPukFFYr2wnH+a4UiGfXu4rS+6xcJ9ro+slQ/Mqo9MpX+CF3cn8wbrdZkMyZRGZQMMk9jMaupgx3GBwdChCQ9OBPWKkiCTK15np69tj8RPOIHe0MUkg4jm5NSz0+8eZnsvRROIM4w==","691f8ca61c6b4dcbb0aeb5f4","691fa5faff8fc04f1a77707d","index1","<span style='color:red'>Fail,<span style='color:red'>Fail,<span style='color:green'>Lift,<span style='color:green'>Lift,<span style='color:red'>Fail,<span style='color:red'>Fail,<span style='color:red'>Fail,<span style='color:red'>Fail,<span style='color:red'>Fail,<span style='color:green'>Lift,<span style='color:red'>Fail,<span style='color:green'>Lift","<span style='color:red'>Fail,<span style='color:red'>Fail,<span style='color:green'>Lift,<span style='color:green'>Lift,<span style='color:green'>Lift,<span style='color:green'>Lift,<span style='color:green'>Lift,<span style='color:red'>Fail,<span style='color:green'>Lift,<span style='color:green'>Lift,<span style='color:red'>Fail,<span style='color:green'>Lift","<span style='color:red'>Fail,<span style='color:green'>Lift,<span style='color:green'>Lift,<span style='color:red'>Fail,<span style='color:green'>Lift,<span style='color:green'>Lift","0,0,1,1,0,0,0,0,0,1,0,1","0,0,1,1,1,1,1,0,1,1,0,1","0,1,1,0,1,1",10,20,20,"","","","","{""box1"":""5"",""box2"":""5""}","",NA,6,"round1_outcome",1,6,1,5,5,NA,NA,0,0,10,5,5,NA,NA,0,0,10,NA,NA,NA,NA,NA,NA,NA,NA,NA,NA,NA,NA,NA,NA,NA,NA,NA,NA,NA,NA,NA,NA,"",NA,NA,NA,NA,NA,NA,NA,NA,2025-11-21 00:00:20
"10487.399999976158","https://psyc-201.github.io/xiang2023/exp/index1.html?PROLIFIC_PID=REDACTED&STUDY_ID=691f8ca61c6b4dcbb0aeb5f4&SESSION_ID=691fa5faff8fc04f1a77707d","survey-html-form",43,1218607,"0.0-354.0","s/NtCFnhRpgQJRNvTnlUn5biSGEMJtcdq1RPOXlMMUJ+CgA4vflz3Ip1FufVf0yta94eW3Z6Te8S+Nnu7ZiLSyaUstWWzxHGR4NXV6fDkALEFLkSoQrjqTgKqm4kKndM9DVDLPoJceS/QVUD6n+wa9eZfI94UNfRpHk1KmFjD0hxyTRvsEAOEl5f2J4qcflBqIB6U+awe4BLSAPukFFYr2wnH+a4UiGfXu4rS+6xcJ9ro+slQ/Mqo9MpX+CF3cn8wbrdZkMyZRGZQMMk9jMaupgx3GBwdChCQ9OBPWKkiCTK15np69tj8RPOIHe0MUkg4jm5NSz0+8eZnsvRROIM4w==","691f8ca61c6b4dcbb0aeb5f4","691fa5faff8fc04f1a77707d","index1","<span style='color:red'>Fail,<span style='color:red'>Fail,<span style='color:green'>Lift,<span style='color:green'>Lift,<span style='color:red'>Fail,<span style='color:red'>Fail,<span style='color:red'>Fail,<span style='color:red'>Fail,<span style='color:red'>Fail,<span style='color:green'>Lift,<span style='color:red'>Fail,<span style='color:green'>Lift","<span style='color:red'>Fail,<span style='color:red'>Fail,<span style='color:green'>Lift,<span style='color:green'>Lift,<span style='color:green'>Lift,<span style='color:green'>Lift,<span style='color:green'>Lift,<span style='color:red'>Fail,<span style='color:green'>Lift,<span style='color:green'>Lift,<span style='color:red'>Fail,<span style='color:green'>Lift","<span style='color:red'>Fail,<span style='color:green'>Lift,<span style='color:green'>Lift,<span style='color:red'>Fail,<span style='color:green'>Lift,<span style='color:green'>Lift","0,0,1,1,0,0,0,0,0,1,0,1","0,0,1,1,1,1,1,0,1,1,0,1","0,1,1,0,1,1",10,20,20,"","","","","{""box1"":""50"",""box2"":""50""}","",NA,6,"round2_ready",2,6,2,NA,NA,NA,NA,NA,NA,NA,NA,NA,NA,NA,NA,NA,NA,50,50,50,50,NA,NA,NA,NA,NA,NA,NA,NA,NA,NA,NA,NA,NA,NA,NA,NA,NA,NA,"",NA,NA,NA,NA,NA,NA,NA,NA,2025-11-21 00:00:20
"13143.099999904633","https://psyc-201.github.io/xiang2023/exp/index1.html?PROLIFIC_PID=REDACTED&STUDY_ID=691f8ca61c6b4dcbb0aeb5f4&SESSION_ID=691fa5faff8fc04f1a77707d","survey-html-form",44,1231751,"0.0-355.0","s/NtCFnhRpgQJRNvTnlUn5biSGEMJtcdq1RPOXlMMUJ+CgA4vflz3Ip1FufVf0yta94eW3Z6Te8S+Nnu7ZiLSyaUstWWzxHGR4NXV6fDkALEFLkSoQrjqTgKqm4kKndM9DVDLPoJceS/QVUD6n+wa9eZfI94UNfRpHk1KmFjD0hxyTRvsEAOEl5f2J4qcflBqIB6U+awe4BLSAPukFFYr2wnH+a4UiGfXu4rS+6xcJ9ro+slQ/Mqo9MpX+CF3cn8wbrdZkMyZRGZQMMk9jMaupgx3GBwdChCQ9OBPWKkiCTK15np69tj8RPOIHe0MUkg4jm5NSz0+8eZnsvRROIM4w==","691f8ca61c6b4dcbb0aeb5f4","691fa5faff8fc04f1a77707d","index1","<span style='color:red'>Fail,<span style='color:red'>Fail,<span style='color:green'>Lift,<span style='color:green'>Lift,<span style='color:red'>Fail,<span style='color:red'>Fail,<span style='color:red'>Fail,<span style='color:red'>Fail,<span style='color:red'>Fail,<span style='color:green'>Lift,<span style='color:red'>Fail,<span style='color:green'>Lift","<span style='color:red'>Fail,<span style='color:red'>Fail,<span style='color:green'>Lift,<span style='color:green'>Lift,<span style='color:green'>Lift,<span style='color:green'>Lift,<span style='color:green'>Lift,<span style='color:red'>Fail,<span style='color:green'>Lift,<span style='color:green'>Lift,<span style='color:red'>Fail,<span style='color:green'>Lift","<span style='color:red'>Fail,<span style='color:green'>Lift,<span style='color:green'>Lift,<span style='color:red'>Fail,<span style='color:green'>Lift,<span style='color:green'>Lift","0,0,1,1,0,0,0,0,0,1,0,1","0,0,1,1,1,1,1,0,1,1,0,1","0,1,1,0,1,1",10,20,20,"","","","","{""box1"":""5"",""box2"":""5"",""box3"":""50"",""box4"":""50""}","",NA,6,"round2_outcome",3,6,2,5,5,50,50,1,1,20,NA,NA,NA,NA,NA,NA,NA,NA,NA,NA,NA,5,5,50,50,1,1,20,NA,NA,NA,NA,NA,NA,NA,NA,NA,NA,NA,"",NA,NA,NA,NA,NA,NA,NA,NA,2025-11-21 00:00:20
"4885.299999952316","https://psyc-201.github.io/xiang2023/exp/index1.html?PROLIFIC_PID=REDACTED&STUDY_ID=691f8ca61c6b4dcbb0aeb5f4&SESSION_ID=691fa5faff8fc04f1a77707d","survey-html-form",45,1236638,"0.0-356.0","s/NtCFnhRpgQJRNvTnlUn5biSGEMJtcdq1RPOXlMMUJ+CgA4vflz3Ip1FufVf0yta94eW3Z6Te8S+Nnu7ZiLSyaUstWWzxHGR4NXV6fDkALEFLkSoQrjqTgKqm4kKndM9DVDLPoJceS/QVUD6n+wa9eZfI94UNfRpHk1KmFjD0hxyTRvsEAOEl5f2J4qcflBqIB6U+awe4BLSAPukFFYr2wnH+a4UiGfXu4rS+6xcJ9ro+slQ/Mqo9MpX+CF3cn8wbrdZkMyZRGZQMMk9jMaupgx3GBwdChCQ9OBPWKkiCTK15np69tj8RPOIHe0MUkg4jm5NSz0+8eZnsvRROIM4w==","691f8ca61c6b4dcbb0aeb5f4","691fa5faff8fc04f1a77707d","index1","<span style='color:red'>Fail,<span style='color:red'>Fail,<span style='color:green'>Lift,<span style='color:green'>Lift,<span style='color:red'>Fail,<span style='color:red'>Fail,<span style='color:red'>Fail,<span style='color:red'>Fail,<span style='color:red'>Fail,<span style='color:green'>Lift,<span style='color:red'>Fail,<span style='color:green'>Lift","<span style='color:red'>Fail,<span style='color:red'>Fail,<span style='color:green'>Lift,<span style='color:green'>Lift,<span style='color:green'>Lift,<span style='color:green'>Lift,<span style='color:green'>Lift,<span style='color:red'>Fail,<span style='color:green'>Lift,<span style='color:green'>Lift,<span style='color:red'>Fail,<span style='color:green'>Lift","<span style='color:red'>Fail,<span style='color:green'>Lift,<span style='color:green'>Lift,<span style='color:red'>Fail,<span style='color:green'>Lift,<span style='color:green'>Lift","0,0,1,1,0,0,0,0,0,1,0,1","0,0,1,1,1,1,1,0,1,1,0,1","0,1,1,0,1,1",10,20,20,"","","","","{""box1"":""100""}","",NA,6,"round3_ready",4,6,3,NA,NA,NA,NA,NA,NA,NA,NA,NA,NA,NA,NA,NA,NA,100,100,NA,NA,NA,NA,NA,NA,NA,NA,NA,100,100,NA,NA,NA,NA,NA,NA,NA,NA,NA,"",NA,NA,NA,NA,NA,NA,NA,NA,2025-11-21 00:00:20
"18477.700000047684","https://psyc-201.github.io/xiang2023/exp/index1.html?PROLIFIC_PID=REDACTED&STUDY_ID=691f8ca61c6b4dcbb0aeb5f4&SESSION_ID=691fa5faff8fc04f1a77707d","survey-html-form",46,1255117,"0.0-357.0-0.0","s/NtCFnhRpgQJRNvTnlUn5biSGEMJtcdq1RPOXlMMUJ+CgA4vflz3Ip1FufVf0yta94eW3Z6Te8S+Nnu7ZiLSyaUstWWzxHGR4NXV6fDkALEFLkSoQrjqTgKqm4kKndM9DVDLPoJceS/QVUD6n+wa9eZfI94UNfRpHk1KmFjD0hxyTRvsEAOEl5f2J4qcflBqIB6U+awe4BLSAPukFFYr2wnH+a4UiGfXu4rS+6xcJ9ro+slQ/Mqo9MpX+CF3cn8wbrdZkMyZRGZQMMk9jMaupgx3GBwdChCQ9OBPWKkiCTK15np69tj8RPOIHe0MUkg4jm5NSz0+8eZnsvRROIM4w==","691f8ca61c6b4dcbb0aeb5f4","691fa5faff8fc04f1a77707d","index1","<span style='color:red'>Fail,<span style='color:red'>Fail,<span style='color:green'>Lift,<span style='color:green'>Lift,<span style='color:red'>Fail,<span style='color:red'>Fail,<span style='color:red'>Fail,<span style='color:red'>Fail,<span style='color:red'>Fail,<span style='color:green'>Lift,<span style='color:red'>Fail,<span style='color:green'>Lift","<span style='color:red'>Fail,<span style='color:red'>Fail,<span style='color:green'>Lift,<span style='color:green'>Lift,<span style='color:green'>Lift,<span style='color:green'>Lift,<span style='color:green'>Lift,<span style='color:red'>Fail,<span style='color:green'>Lift,<span style='color:green'>Lift,<span style='color:red'>Fail,<span style='color:green'>Lift","<span style='color:red'>Fail,<span style='color:green'>Lift,<span style='color:green'>Lift,<span style='color:red'>Fail,<span style='color:green'>Lift,<span style='color:green'>Lift","0,0,1,1,0,0,0,0,0,1,0,1","0,0,1,1,1,1,1,0,1,1,0,1","0,1,1,0,1,1",10,20,20,"","","","","{""box1"":""5"",""box2"":""5"",""box3"":""50"",""box4"":""50""}","",NA,6,"round3_lift",5,6,3,5,5,50,50,1,1,20,NA,NA,NA,NA,NA,NA,NA,NA,NA,NA,NA,NA,NA,NA,NA,NA,NA,NA,NA,NA,NA,NA,5,5,1,1,20,50,50,"",NA,NA,NA,NA,NA,NA,NA,NA,2025-11-21 00:00:20
"57198.699999928474","https://psyc-201.github.io/xiang2023/exp/index1.html?PROLIFIC_PID=REDACTED&STUDY_ID=691f8ca61c6b4dcbb0aeb5f4&SESSION_ID=691fa5faff8fc04f1a77707d","survey-text",47,1312319,"0.0-361.0","s/NtCFnhRpgQJRNvTnlUn5biSGEMJtcdq1RPOXlMMUJ+CgA4vflz3Ip1FufVf0yta94eW3Z6Te8S+Nnu7ZiLSyaUstWWzxHGR4NXV6fDkALEFLkSoQrjqTgKqm4kKndM9DVDLPoJceS/QVUD6n+wa9eZfI94UNfRpHk1KmFjD0hxyTRvsEAOEl5f2J4qcflBqIB6U+awe4BLSAPukFFYr2wnH+a4UiGfXu4rS+6xcJ9ro+slQ/Mqo9MpX+CF3cn8wbrdZkMyZRGZQMMk9jMaupgx3GBwdChCQ9OBPWKkiCTK15np69tj8RPOIHe0MUkg4jm5NSz0+8eZnsvRROIM4w==","691f8ca61c6b4dcbb0aeb5f4","691fa5faff8fc04f1a77707d","index1","<span style='color:red'>Fail,<span style='color:red'>Fail,<span style='color:green'>Lift,<span style='color:green'>Lift,<span style='color:red'>Fail,<span style='color:red'>Fail,<span style='color:red'>Fail,<span style='color:red'>Fail,<span style='color:red'>Fail,<span style='color:green'>Lift,<span style='color:red'>Fail,<span style='color:green'>Lift","<span style='color:red'>Fail,<span style='color:red'>Fail,<span style='color:green'>Lift,<span style='color:green'>Lift,<span style='color:green'>Lift,<span style='color:green'>Lift,<span style='color:green'>Lift,<span style='color:red'>Fail,<span style='color:green'>Lift,<span style='color:green'>Lift,<span style='color:red'>Fail,<span style='color:green'>Lift","<span style='color:red'>Fail,<span style='color:green'>Lift,<span style='color:green'>Lift,<span style='color:red'>Fail,<span style='color:green'>Lift,<span style='color:green'>Lift","0,0,1,1,0,0,0,0,0,1,0,1","0,0,1,1,1,1,1,0,1,1,0,1","0,1,1,0,1,1",10,20,20,"","","","","{""Q0"":""I had to calculate the probability that the contestants would life a box by themselves and together.  I also had to estimate their strength.""}","",NA,NA,"",NA,NA,NA,NA,NA,NA,NA,NA,NA,NA,NA,NA,NA,NA,NA,NA,NA,NA,NA,NA,NA,NA,NA,NA,NA,NA,NA,NA,NA,NA,NA,NA,NA,NA,NA,NA,NA,NA,NA,"",NA,NA,NA,NA,NA,NA,NA,NA,2025-11-21 00:00:20
"8244.100000023842","https://psyc-201.github.io/xiang2023/exp/index1.html?PROLIFIC_PID=REDACTED&STUDY_ID=691f8ca61c6b4dcbb0aeb5f4&SESSION_ID=691fa5faff8fc04f1a77707d","survey-text",48,1320564,"0.0-362.0","s/NtCFnhRpgQJRNvTnlUn5biSGEMJtcdq1RPOXlMMUJ+CgA4vflz3Ip1FufVf0yta94eW3Z6Te8S+Nnu7ZiLSyaUstWWzxHGR4NXV6fDkALEFLkSoQrjqTgKqm4kKndM9DVDLPoJceS/QVUD6n+wa9eZfI94UNfRpHk1KmFjD0hxyTRvsEAOEl5f2J4qcflBqIB6U+awe4BLSAPukFFYr2wnH+a4UiGfXu4rS+6xcJ9ro+slQ/Mqo9MpX+CF3cn8wbrdZkMyZRGZQMMk9jMaupgx3GBwdChCQ9OBPWKkiCTK15np69tj8RPOIHe0MUkg4jm5NSz0+8eZnsvRROIM4w==","691f8ca61c6b4dcbb0aeb5f4","691fa5faff8fc04f1a77707d","index1","<span style='color:red'>Fail,<span style='color:red'>Fail,<span style='color:green'>Lift,<span style='color:green'>Lift,<span style='color:red'>Fail,<span style='color:red'>Fail,<span style='color:red'>Fail,<span style='color:red'>Fail,<span style='color:red'>Fail,<span style='color:green'>Lift,<span style='color:red'>Fail,<span style='color:green'>Lift","<span style='color:red'>Fail,<span style='color:red'>Fail,<span style='color:green'>Lift,<span style='color:green'>Lift,<span style='color:green'>Lift,<span style='color:green'>Lift,<span style='color:green'>Lift,<span style='color:red'>Fail,<span style='color:green'>Lift,<span style='color:green'>Lift,<span style='color:red'>Fail,<span style='color:green'>Lift","<span style='color:red'>Fail,<span style='color:green'>Lift,<span style='color:green'>Lift,<span style='color:red'>Fail,<span style='color:green'>Lift,<span style='color:green'>Lift","0,0,1,1,0,0,0,0,0,1,0,1","0,0,1,1,1,1,1,0,1,1,0,1","0,1,1,0,1,1",10,20,20,"","","","","{""Q0"":""""}","",NA,NA,"",NA,NA,NA,NA,NA,NA,NA,NA,NA,NA,NA,NA,NA,NA,NA,NA,NA,NA,NA,NA,NA,NA,NA,NA,NA,NA,NA,NA,NA,NA,NA,NA,NA,NA,NA,NA,NA,NA,NA,"[{""event"":""blur"",""trial"":1,""time"":7389},{""event"":""focus"",""trial"":1,""time"":7608},{""event"":""fullscreenenter"",""trial"":1,""time"":14692}]",5,3,NA,100,1,1,NA,NA,2025-11-21 00:00:20
"3223.3000000715256","https://psyc-201.github.io/xiang2023/exp/index1.html?PROLIFIC_PID=REDACTED&STUDY_ID=691f8ca61c6b4dcbb0aeb5f4&SESSION_ID=691fa5faff8fc04f1a77707d","html-button-response",49,1323789,"0.0-363.0","s/NtCFnhRpgQJRNvTnlUn5biSGEMJtcdq1RPOXlMMUJ+CgA4vflz3Ip1FufVf0yta94eW3Z6Te8S+Nnu7ZiLSyaUstWWzxHGR4NXV6fDkALEFLkSoQrjqTgKqm4kKndM9DVDLPoJceS/QVUD6n+wa9eZfI94UNfRpHk1KmFjD0hxyTRvsEAOEl5f2J4qcflBqIB6U+awe4BLSAPukFFYr2wnH+a4UiGfXu4rS+6xcJ9ro+slQ/Mqo9MpX+CF3cn8wbrdZkMyZRGZQMMk9jMaupgx3GBwdChCQ9OBPWKkiCTK15np69tj8RPOIHe0MUkg4jm5NSz0+8eZnsvRROIM4w==","691f8ca61c6b4dcbb0aeb5f4","691fa5faff8fc04f1a77707d","index1","<span style='color:red'>Fail,<span style='color:red'>Fail,<span style='color:green'>Lift,<span style='color:green'>Lift,<span style='color:red'>Fail,<span style='color:red'>Fail,<span style='color:red'>Fail,<span style='color:red'>Fail,<span style='color:red'>Fail,<span style='color:green'>Lift,<span style='color:red'>Fail,<span style='color:green'>Lift","<span style='color:red'>Fail,<span style='color:red'>Fail,<span style='color:green'>Lift,<span style='color:green'>Lift,<span style='color:green'>Lift,<span style='color:green'>Lift,<span style='color:green'>Lift,<span style='color:red'>Fail,<span style='color:green'>Lift,<span style='color:green'>Lift,<span style='color:red'>Fail,<span style='color:green'>Lift","<span style='color:red'>Fail,<span style='color:green'>Lift,<span style='color:green'>Lift,<span style='color:red'>Fail,<span style='color:green'>Lift,<span style='color:green'>Lift","0,0,1,1,0,0,0,0,0,1,0,1","0,0,1,1,1,1,1,0,1,1,0,1","0,1,1,0,1,1",10,20,20,"","","<p> We randomly picked <b>Contest 5, Round 3</b> to calculate your bonus. </p><p> The outcome of Contestant I and J on that round is <span style='color:green'>Lift</span>. </p><p> The probability you entered was 100. </p><p><b> You won a bonus of $1.00!</b></p><p> IMPORTANT: Please click 'Next' to complete the game. </p>","","","",0,NA,"",NA,NA,NA,NA,NA,NA,NA,NA,NA,NA,NA,NA,NA,NA,NA,NA,NA,NA,NA,NA,NA,NA,NA,NA,NA,NA,NA,NA,NA,NA,NA,NA,NA,NA,NA,NA,NA,NA,NA,"",NA,NA,NA,NA,NA,NA,2,1,2025-11-21 00:00:20
