"rt","url","trial_type","trial_index","time_elapsed","internal_node_id","encryptedProlificId","studyId","sessionId","expIndex","round1_outcomes","round2_outcomes","round3_outcomes","round1_o","round2_o","round3_o","round1_reward","round2_reward","round3_reward","success","view_history","stimulus","key_press","responses","question_order","button_pressed","j","Stage","stage","contest","round","strength_a","strength_b","effort_a","effort_b","outcome_a","outcome_b","reward","r1_strength_a","r1_strength_b","r1_effort_a","r1_effort_b","r1_outcome_a","r1_outcome_b","r1_reward","probability_a","probability_b","r2_prob_a","r2_prob_b","r2_strength_a","r2_strength_b","r2_effort_a","r2_effort_b","r2_outcome_a","r2_outcome_b","r2_reward","r3_prob_a","r3_prob_b","r3_strength_a","r3_strength_b","r3_effort_a","r3_effort_b","r3_outcome_a","r3_outcome_b","r3_reward","attention_check","count","screen","pick_contest","pick_round","pick_side","trial_probability","trial_outcome","bonus","attention_sum","attention","datapipe_meta.attributes.date_modified"
"3382.6000000089407","https://psyc-201.github.io/xiang2023/exp/index1.html?PROLIFIC_PID=REDACTED&STUDY_ID=691f8ca61c6b4dcbb0aeb5f4&SESSION_ID=691fc98bd239912070a2d37b","external-html",0,3412,"0.0-0.0","G5xWq0T2wTQiZKV5zQXrnAtFVf7kE0+xQTgK2Ne7lgEcJN4hZcBApHNYXqf4RNn8zhTv9funSYX3qfIIlWlYvRZmNSyYpTU//2K6hN9jEmRIsV9v5oT2j1sNkx5jpCzRY83c2tfGBl9CjUVk/jclrD85SMhTs02XEdOzzZHlj7/5mlmUdWGhwECZazueM/0PVGdWeo8tFiBCPwMkIupSJHycwgv2WiGkhDHnL+dfHNOTK5nWl3WcQt12Zoopz+0xLKLIHJYbe/wsDSw/spuwiE9PUcOlDtySgV+hbTOVfr27vPVyDg+cCiYa0FlqY0/jddtTmzlvqanGdqaSybgFIA==","691f8ca61c6b4dcbb0aeb5f4","691fc98bd239912070a2d37b","index1","<span style='color:red'>Fail,<span style='color:red'>Fail,<span style='color:green'>Lift,<span style='color:green'>Lift,<span style='color:red'>Fail,<span style='color:red'>Fail,<span style='color:red'>Fail,<span style='color:red'>Fail,<span style='color:red'>Fail,<span style='color:green'>Lift,<span style='color:red'>Fail,<span style='color:green'>Lift","<span style='color:red'>Fail,<span style='color:red'>Fail,<span style='color:green'>Lift,<span style='color:green'>Lift,<span style='color:green'>Lift,<span style='color:green'>Lift,<span style='color:red'>Fail,<span style='color:green'>Lift,<span style='color:green'>Lift,<span style='color:green'>Lift,<span style='color:red'>Fail,<span style='color:green'>Lift","<span style='color:red'>Fail,<span style='color:green'>Lift,<span style='color:green'>Lift,<span style='color:red'>Fail,<span style='color:green'>Lift,<span style='color:green'>Lift","0,0,1,1,0,0,0,0,0,1,0,1","0,0,1,1,1,1,0,1,1,1,0,1","0,1,1,0,1,1",10,20,20,"","","","","","",NA,NA,"",NA,NA,NA,NA,NA,NA,NA,NA,NA,NA,NA,NA,NA,NA,NA,NA,NA,NA,NA,NA,NA,NA,NA,NA,NA,NA,NA,NA,NA,NA,NA,NA,NA,NA,NA,NA,NA,NA,NA,"",NA,NA,NA,NA,NA,NA,NA,NA,2025-11-21 02:27:53
"","https://psyc-201.github.io/xiang2023/exp/index1.html?PROLIFIC_PID=REDACTED&STUDY_ID=691f8ca61c6b4dcbb0aeb5f4&SESSION_ID=691fc98bd239912070a2d37b","fullscreen",1,6981,"0.0-1.0","G5xWq0T2wTQiZKV5zQXrnAtFVf7kE0+xQTgK2Ne7lgEcJN4hZcBApHNYXqf4RNn8zhTv9funSYX3qfIIlWlYvRZmNSyYpTU//2K6hN9jEmRIsV9v5oT2j1sNkx5jpCzRY83c2tfGBl9CjUVk/jclrD85SMhTs02XEdOzzZHlj7/5mlmUdWGhwECZazueM/0PVGdWeo8tFiBCPwMkIupSJHycwgv2WiGkhDHnL+dfHNOTK5nWl3WcQt12Zoopz+0xLKLIHJYbe/wsDSw/spuwiE9PUcOlDtySgV+hbTOVfr27vPVyDg+cCiYa0FlqY0/jddtTmzlvqanGdqaSybgFIA==","691f8ca61c6b4dcbb0aeb5f4","691fc98bd239912070a2d37b","index1","<span style='color:red'>Fail,<span style='color:red'>Fail,<span style='color:green'>Lift,<span style='color:green'>Lift,<span style='color:red'>Fail,<span style='color:red'>Fail,<span style='color:red'>Fail,<span style='color:red'>Fail,<span style='color:red'>Fail,<span style='color:green'>Lift,<span style='color:red'>Fail,<span style='color:green'>Lift","<span style='color:red'>Fail,<span style='color:red'>Fail,<span style='color:green'>Lift,<span style='color:green'>Lift,<span style='color:green'>Lift,<span style='color:green'>Lift,<span style='color:red'>Fail,<span style='color:green'>Lift,<span style='color:green'>Lift,<span style='color:green'>Lift,<span style='color:red'>Fail,<span style='color:green'>Lift","<span style='color:red'>Fail,<span style='color:green'>Lift,<span style='color:green'>Lift,<span style='color:red'>Fail,<span style='color:green'>Lift,<span style='color:green'>Lift","0,0,1,1,0,0,0,0,0,1,0,1","0,0,1,1,1,1,0,1,1,1,0,1","0,1,1,0,1,1",10,20,20,"true","","","","","",NA,NA,"",NA,NA,NA,NA,NA,NA,NA,NA,NA,NA,NA,NA,NA,NA,NA,NA,NA,NA,NA,NA,NA,NA,NA,NA,NA,NA,NA,NA,NA,NA,NA,NA,NA,NA,NA,NA,NA,NA,NA,"",NA,NA,NA,NA,NA,NA,NA,NA,2025-11-21 02:27:53
"127827.90000000596","https://psyc-201.github.io/xiang2023/exp/index1.html?PROLIFIC_PID=REDACTED&STUDY_ID=691f8ca61c6b4dcbb0aeb5f4&SESSION_ID=691fc98bd239912070a2d37b","instructions",2,134811,"0.0-2.0","G5xWq0T2wTQiZKV5zQXrnAtFVf7kE0+xQTgK2Ne7lgEcJN4hZcBApHNYXqf4RNn8zhTv9funSYX3qfIIlWlYvRZmNSyYpTU//2K6hN9jEmRIsV9v5oT2j1sNkx5jpCzRY83c2tfGBl9CjUVk/jclrD85SMhTs02XEdOzzZHlj7/5mlmUdWGhwECZazueM/0PVGdWeo8tFiBCPwMkIupSJHycwgv2WiGkhDHnL+dfHNOTK5nWl3WcQt12Zoopz+0xLKLIHJYbe/wsDSw/spuwiE9PUcOlDtySgV+hbTOVfr27vPVyDg+cCiYa0FlqY0/jddtTmzlvqanGdqaSybgFIA==","691f8ca61c6b4dcbb0aeb5f4","691fc98bd239912070a2d37b","index1","<span style='color:red'>Fail,<span style='color:red'>Fail,<span style='color:green'>Lift,<span style='color:green'>Lift,<span style='color:red'>Fail,<span style='color:red'>Fail,<span style='color:red'>Fail,<span style='color:red'>Fail,<span style='color:red'>Fail,<span style='color:green'>Lift,<span style='color:red'>Fail,<span style='color:green'>Lift","<span style='color:red'>Fail,<span style='color:red'>Fail,<span style='color:green'>Lift,<span style='color:green'>Lift,<span style='color:green'>Lift,<span style='color:green'>Lift,<span style='color:red'>Fail,<span style='color:green'>Lift,<span style='color:green'>Lift,<span style='color:green'>Lift,<span style='color:red'>Fail,<span style='color:green'>Lift","<span style='color:red'>Fail,<span style='color:green'>Lift,<span style='color:green'>Lift,<span style='color:red'>Fail,<span style='color:green'>Lift,<span style='color:green'>Lift","0,0,1,1,0,0,0,0,0,1,0,1","0,0,1,1,1,1,0,1,1,1,0,1","0,1,1,0,1,1",10,20,20,"","[{""page_index"":0,""viewing_time"":12203.90000000596},{""page_index"":1,""viewing_time"":15695.79999999702},{""page_index"":2,""viewing_time"":9217.90000000596},{""page_index"":3,""viewing_time"":17688},{""page_index"":4,""viewing_time"":11123.89999999106},{""page_index"":5,""viewing_time"":22262.10000000894},{""page_index"":6,""viewing_time"":5902},{""page_index"":5,""viewing_time"":1465.7999999970198},{""page_index"":4,""viewing_time"":1710.2999999970198},{""page_index"":3,""viewing_time"":7620},{""page_index"":2,""viewing_time"":2122.0999999940395},{""page_index"":3,""viewing_time"":1405.800000011921},{""page_index"":4,""viewing_time"":3578},{""page_index"":5,""viewing_time"":4779},{""page_index"":6,""viewing_time"":11053.09999999404}]","","","","",NA,NA,"",NA,NA,NA,NA,NA,NA,NA,NA,NA,NA,NA,NA,NA,NA,NA,NA,NA,NA,NA,NA,NA,NA,NA,NA,NA,NA,NA,NA,NA,NA,NA,NA,NA,NA,NA,NA,NA,NA,NA,"",NA,NA,NA,NA,NA,NA,NA,NA,2025-11-21 02:27:53
"null","https://psyc-201.github.io/xiang2023/exp/index1.html?PROLIFIC_PID=REDACTED&STUDY_ID=691f8ca61c6b4dcbb0aeb5f4&SESSION_ID=691fc98bd239912070a2d37b","html-keyboard-response",3,135818,"0.0-3.0","G5xWq0T2wTQiZKV5zQXrnAtFVf7kE0+xQTgK2Ne7lgEcJN4hZcBApHNYXqf4RNn8zhTv9funSYX3qfIIlWlYvRZmNSyYpTU//2K6hN9jEmRIsV9v5oT2j1sNkx5jpCzRY83c2tfGBl9CjUVk/jclrD85SMhTs02XEdOzzZHlj7/5mlmUdWGhwECZazueM/0PVGdWeo8tFiBCPwMkIupSJHycwgv2WiGkhDHnL+dfHNOTK5nWl3WcQt12Zoopz+0xLKLIHJYbe/wsDSw/spuwiE9PUcOlDtySgV+hbTOVfr27vPVyDg+cCiYa0FlqY0/jddtTmzlvqanGdqaSybgFIA==","691f8ca61c6b4dcbb0aeb5f4","691fc98bd239912070a2d37b","index1","<span style='color:red'>Fail,<span style='color:red'>Fail,<span style='color:green'>Lift,<span style='color:green'>Lift,<span style='color:red'>Fail,<span style='color:red'>Fail,<span style='color:red'>Fail,<span style='color:red'>Fail,<span style='color:red'>Fail,<span style='color:green'>Lift,<span style='color:red'>Fail,<span style='color:green'>Lift","<span style='color:red'>Fail,<span style='color:red'>Fail,<span style='color:green'>Lift,<span style='color:green'>Lift,<span style='color:green'>Lift,<span style='color:green'>Lift,<span style='color:red'>Fail,<span style='color:green'>Lift,<span style='color:green'>Lift,<span style='color:green'>Lift,<span style='color:red'>Fail,<span style='color:green'>Lift","<span style='color:red'>Fail,<span style='color:green'>Lift,<span style='color:green'>Lift,<span style='color:red'>Fail,<span style='color:green'>Lift,<span style='color:green'>Lift","0,0,1,1,0,0,0,0,0,1,0,1","0,0,1,1,1,1,0,1,1,1,0,1","0,1,1,0,1,1",10,20,20,"",""," ","null","","",NA,NA,"",NA,NA,NA,NA,NA,NA,NA,NA,NA,NA,NA,NA,NA,NA,NA,NA,NA,NA,NA,NA,NA,NA,NA,NA,NA,NA,NA,NA,NA,NA,NA,NA,NA,NA,NA,NA,NA,NA,NA,"",NA,NA,NA,NA,NA,NA,NA,NA,2025-11-21 02:27:53
"191857.90000000596","https://psyc-201.github.io/xiang2023/exp/index1.html?PROLIFIC_PID=REDACTED&STUDY_ID=691f8ca61c6b4dcbb0aeb5f4&SESSION_ID=691fc98bd239912070a2d37b","survey-multi-choice",4,327688,"0.0-4.0","G5xWq0T2wTQiZKV5zQXrnAtFVf7kE0+xQTgK2Ne7lgEcJN4hZcBApHNYXqf4RNn8zhTv9funSYX3qfIIlWlYvRZmNSyYpTU//2K6hN9jEmRIsV9v5oT2j1sNkx5jpCzRY83c2tfGBl9CjUVk/jclrD85SMhTs02XEdOzzZHlj7/5mlmUdWGhwECZazueM/0PVGdWeo8tFiBCPwMkIupSJHycwgv2WiGkhDHnL+dfHNOTK5nWl3WcQt12Zoopz+0xLKLIHJYbe/wsDSw/spuwiE9PUcOlDtySgV+hbTOVfr27vPVyDg+cCiYa0FlqY0/jddtTmzlvqanGdqaSybgFIA==","691f8ca61c6b4dcbb0aeb5f4","691fc98bd239912070a2d37b","index1","<span style='color:red'>Fail,<span style='color:red'>Fail,<span style='color:green'>Lift,<span style='color:green'>Lift,<span style='color:red'>Fail,<span style='color:red'>Fail,<span style='color:red'>Fail,<span style='color:red'>Fail,<span style='color:red'>Fail,<span style='color:green'>Lift,<span style='color:red'>Fail,<span style='color:green'>Lift","<span style='color:red'>Fail,<span style='color:red'>Fail,<span style='color:green'>Lift,<span style='color:green'>Lift,<span style='color:green'>Lift,<span style='color:green'>Lift,<span style='color:red'>Fail,<span style='color:green'>Lift,<span style='color:green'>Lift,<span style='color:green'>Lift,<span style='color:red'>Fail,<span style='color:green'>Lift","<span style='color:red'>Fail,<span style='color:green'>Lift,<span style='color:green'>Lift,<span style='color:red'>Fail,<span style='color:green'>Lift,<span style='color:green'>Lift","0,0,1,1,0,0,0,0,0,1,0,1","0,0,1,1,1,1,0,1,1,1,0,1","0,1,1,0,1,1",10,20,20,"","","","","{""Q0"":""It consists of multiple contests, each contest with three rounds."",""Q1"":""When a new contest begins."",""Q2"":""The box weight always stays the same (equivalent to strength of 5)."",""Q3"":""They will split the $20, that is $10 for each."",""Q4"":""How close my guesses are to the actual outcome.""}","[0,1,2,3,4]",NA,NA,"",NA,NA,NA,NA,NA,NA,NA,NA,NA,NA,NA,NA,NA,NA,NA,NA,NA,NA,NA,NA,NA,NA,NA,NA,NA,NA,NA,NA,NA,NA,NA,NA,NA,NA,NA,NA,NA,NA,NA,"",NA,NA,NA,NA,NA,NA,NA,NA,2025-11-21 02:27:53
"2680.5","https://psyc-201.github.io/xiang2023/exp/index1.html?PROLIFIC_PID=REDACTED&STUDY_ID=691f8ca61c6b4dcbb0aeb5f4&SESSION_ID=691fc98bd239912070a2d37b","html-button-response",5,330371,"0.0-5.0-1.0","G5xWq0T2wTQiZKV5zQXrnAtFVf7kE0+xQTgK2Ne7lgEcJN4hZcBApHNYXqf4RNn8zhTv9funSYX3qfIIlWlYvRZmNSyYpTU//2K6hN9jEmRIsV9v5oT2j1sNkx5jpCzRY83c2tfGBl9CjUVk/jclrD85SMhTs02XEdOzzZHlj7/5mlmUdWGhwECZazueM/0PVGdWeo8tFiBCPwMkIupSJHycwgv2WiGkhDHnL+dfHNOTK5nWl3WcQt12Zoopz+0xLKLIHJYbe/wsDSw/spuwiE9PUcOlDtySgV+hbTOVfr27vPVyDg+cCiYa0FlqY0/jddtTmzlvqanGdqaSybgFIA==","691f8ca61c6b4dcbb0aeb5f4","691fc98bd239912070a2d37b","index1","<span style='color:red'>Fail,<span style='color:red'>Fail,<span style='color:green'>Lift,<span style='color:green'>Lift,<span style='color:red'>Fail,<span style='color:red'>Fail,<span style='color:red'>Fail,<span style='color:red'>Fail,<span style='color:red'>Fail,<span style='color:green'>Lift,<span style='color:red'>Fail,<span style='color:green'>Lift","<span style='color:red'>Fail,<span style='color:red'>Fail,<span style='color:green'>Lift,<span style='color:green'>Lift,<span style='color:green'>Lift,<span style='color:green'>Lift,<span style='color:red'>Fail,<span style='color:green'>Lift,<span style='color:green'>Lift,<span style='color:green'>Lift,<span style='color:red'>Fail,<span style='color:green'>Lift","<span style='color:red'>Fail,<span style='color:green'>Lift,<span style='color:green'>Lift,<span style='color:red'>Fail,<span style='color:green'>Lift,<span style='color:green'>Lift","0,0,1,1,0,0,0,0,0,1,0,1","0,0,1,1,1,1,0,1,1,1,0,1","0,1,1,0,1,1",10,20,20,"","","<p> Oops! You did not pass the comprehension check. <b>Please note that you have only 1 attempt(s) left.</b> </p>","","","",1,NA,"",NA,NA,NA,NA,NA,NA,NA,NA,NA,NA,NA,NA,NA,NA,NA,NA,NA,NA,NA,NA,NA,NA,NA,NA,NA,NA,NA,NA,NA,NA,NA,NA,NA,NA,NA,NA,NA,NA,NA,"",NA,NA,NA,NA,NA,NA,NA,NA,2025-11-21 02:27:53
"48996.29999999702","https://psyc-201.github.io/xiang2023/exp/index1.html?PROLIFIC_PID=REDACTED&STUDY_ID=691f8ca61c6b4dcbb0aeb5f4&SESSION_ID=691fc98bd239912070a2d37b","instructions",6,379368,"0.0-6.0-0.0","G5xWq0T2wTQiZKV5zQXrnAtFVf7kE0+xQTgK2Ne7lgEcJN4hZcBApHNYXqf4RNn8zhTv9funSYX3qfIIlWlYvRZmNSyYpTU//2K6hN9jEmRIsV9v5oT2j1sNkx5jpCzRY83c2tfGBl9CjUVk/jclrD85SMhTs02XEdOzzZHlj7/5mlmUdWGhwECZazueM/0PVGdWeo8tFiBCPwMkIupSJHycwgv2WiGkhDHnL+dfHNOTK5nWl3WcQt12Zoopz+0xLKLIHJYbe/wsDSw/spuwiE9PUcOlDtySgV+hbTOVfr27vPVyDg+cCiYa0FlqY0/jddtTmzlvqanGdqaSybgFIA==","691f8ca61c6b4dcbb0aeb5f4","691fc98bd239912070a2d37b","index1","<span style='color:red'>Fail,<span style='color:red'>Fail,<span style='color:green'>Lift,<span style='color:green'>Lift,<span style='color:red'>Fail,<span style='color:red'>Fail,<span style='color:red'>Fail,<span style='color:red'>Fail,<span style='color:red'>Fail,<span style='color:green'>Lift,<span style='color:red'>Fail,<span style='color:green'>Lift","<span style='color:red'>Fail,<span style='color:red'>Fail,<span style='color:green'>Lift,<span style='color:green'>Lift,<span style='color:green'>Lift,<span style='color:green'>Lift,<span style='color:red'>Fail,<span style='color:green'>Lift,<span style='color:green'>Lift,<span style='color:green'>Lift,<span style='color:red'>Fail,<span style='color:green'>Lift","<span style='color:red'>Fail,<span style='color:green'>Lift,<span style='color:green'>Lift,<span style='color:red'>Fail,<span style='color:green'>Lift,<span style='color:green'>Lift","0,0,1,1,0,0,0,0,0,1,0,1","0,0,1,1,1,1,0,1,1,1,0,1","0,1,1,0,1,1",10,20,20,"","[{""page_index"":0,""viewing_time"":23755.20000000298},{""page_index"":1,""viewing_time"":13030.20000000298},{""page_index"":2,""viewing_time"":6890.0999999940395},{""page_index"":3,""viewing_time"":1684.2999999970198},{""page_index"":4,""viewing_time"":1762.1000000089407},{""page_index"":5,""viewing_time"":626},{""page_index"":6,""viewing_time"":1248.199999988079}]","","","","",NA,NA,"",NA,NA,NA,NA,NA,NA,NA,NA,NA,NA,NA,NA,NA,NA,NA,NA,NA,NA,NA,NA,NA,NA,NA,NA,NA,NA,NA,NA,NA,NA,NA,NA,NA,NA,NA,NA,NA,NA,NA,"",NA,NA,NA,NA,NA,NA,NA,NA,2025-11-21 02:27:53
"null","https://psyc-201.github.io/xiang2023/exp/index1.html?PROLIFIC_PID=REDACTED&STUDY_ID=691f8ca61c6b4dcbb0aeb5f4&SESSION_ID=691fc98bd239912070a2d37b","html-keyboard-response",7,380382,"0.0-6.0-1.0","G5xWq0T2wTQiZKV5zQXrnAtFVf7kE0+xQTgK2Ne7lgEcJN4hZcBApHNYXqf4RNn8zhTv9funSYX3qfIIlWlYvRZmNSyYpTU//2K6hN9jEmRIsV9v5oT2j1sNkx5jpCzRY83c2tfGBl9CjUVk/jclrD85SMhTs02XEdOzzZHlj7/5mlmUdWGhwECZazueM/0PVGdWeo8tFiBCPwMkIupSJHycwgv2WiGkhDHnL+dfHNOTK5nWl3WcQt12Zoopz+0xLKLIHJYbe/wsDSw/spuwiE9PUcOlDtySgV+hbTOVfr27vPVyDg+cCiYa0FlqY0/jddtTmzlvqanGdqaSybgFIA==","691f8ca61c6b4dcbb0aeb5f4","691fc98bd239912070a2d37b","index1","<span style='color:red'>Fail,<span style='color:red'>Fail,<span style='color:green'>Lift,<span style='color:green'>Lift,<span style='color:red'>Fail,<span style='color:red'>Fail,<span style='color:red'>Fail,<span style='color:red'>Fail,<span style='color:red'>Fail,<span style='color:green'>Lift,<span style='color:red'>Fail,<span style='color:green'>Lift","<span style='color:red'>Fail,<span style='color:red'>Fail,<span style='color:green'>Lift,<span style='color:green'>Lift,<span style='color:green'>Lift,<span style='color:green'>Lift,<span style='color:red'>Fail,<span style='color:green'>Lift,<span style='color:green'>Lift,<span style='color:green'>Lift,<span style='color:red'>Fail,<span style='color:green'>Lift","<span style='color:red'>Fail,<span style='color:green'>Lift,<span style='color:green'>Lift,<span style='color:red'>Fail,<span style='color:green'>Lift,<span style='color:green'>Lift","0,0,1,1,0,0,0,0,0,1,0,1","0,0,1,1,1,1,0,1,1,1,0,1","0,1,1,0,1,1",10,20,20,"",""," ","null","","",NA,NA,"",NA,NA,NA,NA,NA,NA,NA,NA,NA,NA,NA,NA,NA,NA,NA,NA,NA,NA,NA,NA,NA,NA,NA,NA,NA,NA,NA,NA,NA,NA,NA,NA,NA,NA,NA,NA,NA,NA,NA,"",NA,NA,NA,NA,NA,NA,NA,NA,2025-11-21 02:27:53
"13644.70000000298","https://psyc-201.github.io/xiang2023/exp/index1.html?PROLIFIC_PID=REDACTED&STUDY_ID=691f8ca61c6b4dcbb0aeb5f4&SESSION_ID=691fc98bd239912070a2d37b","survey-multi-choice",8,394028,"0.0-7.0-0.0","G5xWq0T2wTQiZKV5zQXrnAtFVf7kE0+xQTgK2Ne7lgEcJN4hZcBApHNYXqf4RNn8zhTv9funSYX3qfIIlWlYvRZmNSyYpTU//2K6hN9jEmRIsV9v5oT2j1sNkx5jpCzRY83c2tfGBl9CjUVk/jclrD85SMhTs02XEdOzzZHlj7/5mlmUdWGhwECZazueM/0PVGdWeo8tFiBCPwMkIupSJHycwgv2WiGkhDHnL+dfHNOTK5nWl3WcQt12Zoopz+0xLKLIHJYbe/wsDSw/spuwiE9PUcOlDtySgV+hbTOVfr27vPVyDg+cCiYa0FlqY0/jddtTmzlvqanGdqaSybgFIA==","691f8ca61c6b4dcbb0aeb5f4","691fc98bd239912070a2d37b","index1","<span style='color:red'>Fail,<span style='color:red'>Fail,<span style='color:green'>Lift,<span style='color:green'>Lift,<span style='color:red'>Fail,<span style='color:red'>Fail,<span style='color:red'>Fail,<span style='color:red'>Fail,<span style='color:red'>Fail,<span style='color:green'>Lift,<span style='color:red'>Fail,<span style='color:green'>Lift","<span style='color:red'>Fail,<span style='color:red'>Fail,<span style='color:green'>Lift,<span style='color:green'>Lift,<span style='color:green'>Lift,<span style='color:green'>Lift,<span style='color:red'>Fail,<span style='color:green'>Lift,<span style='color:green'>Lift,<span style='color:green'>Lift,<span style='color:red'>Fail,<span style='color:green'>Lift","<span style='color:red'>Fail,<span style='color:green'>Lift,<span style='color:green'>Lift,<span style='color:red'>Fail,<span style='color:green'>Lift,<span style='color:green'>Lift","0,0,1,1,0,0,0,0,0,1,0,1","0,0,1,1,1,1,0,1,1,1,0,1","0,1,1,0,1,1",10,20,20,"","","","","{""Q0"":""It consists of multiple contests, each contest with three rounds."",""Q1"":""When a new contest begins."",""Q2"":""The box weight always stays the same (equivalent to strength of 5)."",""Q3"":""Each will get $20."",""Q4"":""How close my guesses are to the actual outcome.""}","[0,1,2,3,4]",NA,NA,"",NA,NA,NA,NA,NA,NA,NA,NA,NA,NA,NA,NA,NA,NA,NA,NA,NA,NA,NA,NA,NA,NA,NA,NA,NA,NA,NA,NA,NA,NA,NA,NA,NA,NA,NA,NA,NA,NA,NA,"",NA,NA,NA,NA,NA,NA,NA,NA,2025-11-21 02:27:53
"16224.800000011921","https://psyc-201.github.io/xiang2023/exp/index1.html?PROLIFIC_PID=REDACTED&STUDY_ID=691f8ca61c6b4dcbb0aeb5f4&SESSION_ID=691fc98bd239912070a2d37b","instructions",9,410257,"0.0-305.0","G5xWq0T2wTQiZKV5zQXrnAtFVf7kE0+xQTgK2Ne7lgEcJN4hZcBApHNYXqf4RNn8zhTv9funSYX3qfIIlWlYvRZmNSyYpTU//2K6hN9jEmRIsV9v5oT2j1sNkx5jpCzRY83c2tfGBl9CjUVk/jclrD85SMhTs02XEdOzzZHlj7/5mlmUdWGhwECZazueM/0PVGdWeo8tFiBCPwMkIupSJHycwgv2WiGkhDHnL+dfHNOTK5nWl3WcQt12Zoopz+0xLKLIHJYbe/wsDSw/spuwiE9PUcOlDtySgV+hbTOVfr27vPVyDg+cCiYa0FlqY0/jddtTmzlvqanGdqaSybgFIA==","691f8ca61c6b4dcbb0aeb5f4","691fc98bd239912070a2d37b","index1","<span style='color:red'>Fail,<span style='color:red'>Fail,<span style='color:green'>Lift,<span style='color:green'>Lift,<span style='color:red'>Fail,<span style='color:red'>Fail,<span style='color:red'>Fail,<span style='color:red'>Fail,<span style='color:red'>Fail,<span style='color:green'>Lift,<span style='color:red'>Fail,<span style='color:green'>Lift","<span style='color:red'>Fail,<span style='color:red'>Fail,<span style='color:green'>Lift,<span style='color:green'>Lift,<span style='color:green'>Lift,<span style='color:green'>Lift,<span style='color:red'>Fail,<span style='color:green'>Lift,<span style='color:green'>Lift,<span style='color:green'>Lift,<span style='color:red'>Fail,<span style='color:green'>Lift","<span style='color:red'>Fail,<span style='color:green'>Lift,<span style='color:green'>Lift,<span style='color:red'>Fail,<span style='color:green'>Lift,<span style='color:green'>Lift","0,0,1,1,0,0,0,0,0,1,0,1","0,0,1,1,1,1,0,1,1,1,0,1","0,1,1,0,1,1",10,20,20,"","[{""page_index"":0,""viewing_time"":10680.800000011921},{""page_index"":1,""viewing_time"":5543.699999988079}]","","","","",NA,NA,"",NA,NA,NA,NA,NA,NA,NA,NA,NA,NA,NA,NA,NA,NA,NA,NA,NA,NA,NA,NA,NA,NA,NA,NA,NA,NA,NA,NA,NA,NA,NA,NA,NA,NA,NA,NA,NA,NA,NA,"",NA,NA,NA,NA,NA,NA,NA,NA,2025-11-21 02:27:53
"null","https://psyc-201.github.io/xiang2023/exp/index1.html?PROLIFIC_PID=REDACTED&STUDY_ID=691f8ca61c6b4dcbb0aeb5f4&SESSION_ID=691fc98bd239912070a2d37b","html-keyboard-response",10,411274,"0.0-306.0","G5xWq0T2wTQiZKV5zQXrnAtFVf7kE0+xQTgK2Ne7lgEcJN4hZcBApHNYXqf4RNn8zhTv9funSYX3qfIIlWlYvRZmNSyYpTU//2K6hN9jEmRIsV9v5oT2j1sNkx5jpCzRY83c2tfGBl9CjUVk/jclrD85SMhTs02XEdOzzZHlj7/5mlmUdWGhwECZazueM/0PVGdWeo8tFiBCPwMkIupSJHycwgv2WiGkhDHnL+dfHNOTK5nWl3WcQt12Zoopz+0xLKLIHJYbe/wsDSw/spuwiE9PUcOlDtySgV+hbTOVfr27vPVyDg+cCiYa0FlqY0/jddtTmzlvqanGdqaSybgFIA==","691f8ca61c6b4dcbb0aeb5f4","691fc98bd239912070a2d37b","index1","<span style='color:red'>Fail,<span style='color:red'>Fail,<span style='color:green'>Lift,<span style='color:green'>Lift,<span style='color:red'>Fail,<span style='color:red'>Fail,<span style='color:red'>Fail,<span style='color:red'>Fail,<span style='color:red'>Fail,<span style='color:green'>Lift,<span style='color:red'>Fail,<span style='color:green'>Lift","<span style='color:red'>Fail,<span style='color:red'>Fail,<span style='color:green'>Lift,<span style='color:green'>Lift,<span style='color:green'>Lift,<span style='color:green'>Lift,<span style='color:red'>Fail,<span style='color:green'>Lift,<span style='color:green'>Lift,<span style='color:green'>Lift,<span style='color:red'>Fail,<span style='color:green'>Lift","<span style='color:red'>Fail,<span style='color:green'>Lift,<span style='color:green'>Lift,<span style='color:red'>Fail,<span style='color:green'>Lift,<span style='color:green'>Lift","0,0,1,1,0,0,0,0,0,1,0,1","0,0,1,1,1,1,0,1,1,1,0,1","0,1,1,0,1,1",10,20,20,"",""," ","null","","",NA,1,"",NA,NA,NA,NA,NA,NA,NA,NA,NA,NA,NA,NA,NA,NA,NA,NA,NA,NA,NA,NA,NA,NA,NA,NA,NA,NA,NA,NA,NA,NA,NA,NA,NA,NA,NA,NA,NA,NA,NA,"",NA,NA,NA,NA,NA,NA,NA,NA,2025-11-21 02:27:53
"null","https://psyc-201.github.io/xiang2023/exp/index1.html?PROLIFIC_PID=REDACTED&STUDY_ID=691f8ca61c6b4dcbb0aeb5f4&SESSION_ID=691fc98bd239912070a2d37b","html-keyboard-response",11,414276,"0.0-307.0","G5xWq0T2wTQiZKV5zQXrnAtFVf7kE0+xQTgK2Ne7lgEcJN4hZcBApHNYXqf4RNn8zhTv9funSYX3qfIIlWlYvRZmNSyYpTU//2K6hN9jEmRIsV9v5oT2j1sNkx5jpCzRY83c2tfGBl9CjUVk/jclrD85SMhTs02XEdOzzZHlj7/5mlmUdWGhwECZazueM/0PVGdWeo8tFiBCPwMkIupSJHycwgv2WiGkhDHnL+dfHNOTK5nWl3WcQt12Zoopz+0xLKLIHJYbe/wsDSw/spuwiE9PUcOlDtySgV+hbTOVfr27vPVyDg+cCiYa0FlqY0/jddtTmzlvqanGdqaSybgFIA==","691f8ca61c6b4dcbb0aeb5f4","691fc98bd239912070a2d37b","index1","<span style='color:red'>Fail,<span style='color:red'>Fail,<span style='color:green'>Lift,<span style='color:green'>Lift,<span style='color:red'>Fail,<span style='color:red'>Fail,<span style='color:red'>Fail,<span style='color:red'>Fail,<span style='color:red'>Fail,<span style='color:green'>Lift,<span style='color:red'>Fail,<span style='color:green'>Lift","<span style='color:red'>Fail,<span style='color:red'>Fail,<span style='color:green'>Lift,<span style='color:green'>Lift,<span style='color:green'>Lift,<span style='color:green'>Lift,<span style='color:red'>Fail,<span style='color:green'>Lift,<span style='color:green'>Lift,<span style='color:green'>Lift,<span style='color:red'>Fail,<span style='color:green'>Lift","<span style='color:red'>Fail,<span style='color:green'>Lift,<span style='color:green'>Lift,<span style='color:red'>Fail,<span style='color:green'>Lift,<span style='color:green'>Lift","0,0,1,1,0,0,0,0,0,1,0,1","0,0,1,1,1,1,0,1,1,1,0,1","0,1,1,0,1,1",10,20,20,"","","<p style='font-size:30px'><b> New Contest! </b></p>","null","","",NA,1,"",NA,NA,NA,NA,NA,NA,NA,NA,NA,NA,NA,NA,NA,NA,NA,NA,NA,NA,NA,NA,NA,NA,NA,NA,NA,NA,NA,NA,NA,NA,NA,NA,NA,NA,NA,NA,NA,NA,NA,"",NA,NA,NA,NA,NA,NA,NA,NA,2025-11-21 02:27:53
"49876.20000000298","https://psyc-201.github.io/xiang2023/exp/index1.html?PROLIFIC_PID=REDACTED&STUDY_ID=691f8ca61c6b4dcbb0aeb5f4&SESSION_ID=691fc98bd239912070a2d37b","survey-html-form",12,464156,"0.0-308.0","G5xWq0T2wTQiZKV5zQXrnAtFVf7kE0+xQTgK2Ne7lgEcJN4hZcBApHNYXqf4RNn8zhTv9funSYX3qfIIlWlYvRZmNSyYpTU//2K6hN9jEmRIsV9v5oT2j1sNkx5jpCzRY83c2tfGBl9CjUVk/jclrD85SMhTs02XEdOzzZHlj7/5mlmUdWGhwECZazueM/0PVGdWeo8tFiBCPwMkIupSJHycwgv2WiGkhDHnL+dfHNOTK5nWl3WcQt12Zoopz+0xLKLIHJYbe/wsDSw/spuwiE9PUcOlDtySgV+hbTOVfr27vPVyDg+cCiYa0FlqY0/jddtTmzlvqanGdqaSybgFIA==","691f8ca61c6b4dcbb0aeb5f4","691fc98bd239912070a2d37b","index1","<span style='color:red'>Fail,<span style='color:red'>Fail,<span style='color:green'>Lift,<span style='color:green'>Lift,<span style='color:red'>Fail,<span style='color:red'>Fail,<span style='color:red'>Fail,<span style='color:red'>Fail,<span style='color:red'>Fail,<span style='color:green'>Lift,<span style='color:red'>Fail,<span style='color:green'>Lift","<span style='color:red'>Fail,<span style='color:red'>Fail,<span style='color:green'>Lift,<span style='color:green'>Lift,<span style='color:green'>Lift,<span style='color:green'>Lift,<span style='color:red'>Fail,<span style='color:green'>Lift,<span style='color:green'>Lift,<span style='color:green'>Lift,<span style='color:red'>Fail,<span style='color:green'>Lift","<span style='color:red'>Fail,<span style='color:green'>Lift,<span style='color:green'>Lift,<span style='color:red'>Fail,<span style='color:green'>Lift,<span style='color:green'>Lift","0,0,1,1,0,0,0,0,0,1,0,1","0,0,1,1,1,1,0,1,1,1,0,1","0,1,1,0,1,1",10,20,20,"","","","","{""box1"":""2"",""box2"":""6"",""box4"":""50""}","",NA,1,"round1_outcome",1,1,1,2,6,NA,50,0,1,10,2,6,NA,50,0,1,10,NA,NA,NA,NA,NA,NA,NA,NA,NA,NA,NA,NA,NA,NA,NA,NA,NA,NA,NA,NA,NA,NA,"",NA,NA,NA,NA,NA,NA,NA,NA,2025-11-21 02:27:53
"23784.20000000298","https://psyc-201.github.io/xiang2023/exp/index1.html?PROLIFIC_PID=REDACTED&STUDY_ID=691f8ca61c6b4dcbb0aeb5f4&SESSION_ID=691fc98bd239912070a2d37b","survey-html-form",13,487942,"0.0-309.0","G5xWq0T2wTQiZKV5zQXrnAtFVf7kE0+xQTgK2Ne7lgEcJN4hZcBApHNYXqf4RNn8zhTv9funSYX3qfIIlWlYvRZmNSyYpTU//2K6hN9jEmRIsV9v5oT2j1sNkx5jpCzRY83c2tfGBl9CjUVk/jclrD85SMhTs02XEdOzzZHlj7/5mlmUdWGhwECZazueM/0PVGdWeo8tFiBCPwMkIupSJHycwgv2WiGkhDHnL+dfHNOTK5nWl3WcQt12Zoopz+0xLKLIHJYbe/wsDSw/spuwiE9PUcOlDtySgV+hbTOVfr27vPVyDg+cCiYa0FlqY0/jddtTmzlvqanGdqaSybgFIA==","691f8ca61c6b4dcbb0aeb5f4","691fc98bd239912070a2d37b","index1","<span style='color:red'>Fail,<span style='color:red'>Fail,<span style='color:green'>Lift,<span style='color:green'>Lift,<span style='color:red'>Fail,<span style='color:red'>Fail,<span style='color:red'>Fail,<span style='color:red'>Fail,<span style='color:red'>Fail,<span style='color:green'>Lift,<span style='color:red'>Fail,<span style='color:green'>Lift","<span style='color:red'>Fail,<span style='color:red'>Fail,<span style='color:green'>Lift,<span style='color:green'>Lift,<span style='color:green'>Lift,<span style='color:green'>Lift,<span style='color:red'>Fail,<span style='color:green'>Lift,<span style='color:green'>Lift,<span style='color:green'>Lift,<span style='color:red'>Fail,<span style='color:green'>Lift","<span style='color:red'>Fail,<span style='color:green'>Lift,<span style='color:green'>Lift,<span style='color:red'>Fail,<span style='color:green'>Lift,<span style='color:green'>Lift","0,0,1,1,0,0,0,0,0,1,0,1","0,0,1,1,1,1,0,1,1,1,0,1","0,1,1,0,1,1",10,20,20,"","","","","{""box1"":""5"",""box2"":""60""}","",NA,1,"round2_ready",2,1,2,NA,NA,NA,NA,NA,NA,NA,NA,NA,NA,NA,NA,NA,NA,5,60,5,60,NA,NA,NA,NA,NA,NA,NA,NA,NA,NA,NA,NA,NA,NA,NA,NA,NA,NA,"",NA,NA,NA,NA,NA,NA,NA,NA,2025-11-21 02:27:53
"43194.40000000596","https://psyc-201.github.io/xiang2023/exp/index1.html?PROLIFIC_PID=REDACTED&STUDY_ID=691f8ca61c6b4dcbb0aeb5f4&SESSION_ID=691fc98bd239912070a2d37b","survey-html-form",14,531138,"0.0-310.0","G5xWq0T2wTQiZKV5zQXrnAtFVf7kE0+xQTgK2Ne7lgEcJN4hZcBApHNYXqf4RNn8zhTv9funSYX3qfIIlWlYvRZmNSyYpTU//2K6hN9jEmRIsV9v5oT2j1sNkx5jpCzRY83c2tfGBl9CjUVk/jclrD85SMhTs02XEdOzzZHlj7/5mlmUdWGhwECZazueM/0PVGdWeo8tFiBCPwMkIupSJHycwgv2WiGkhDHnL+dfHNOTK5nWl3WcQt12Zoopz+0xLKLIHJYbe/wsDSw/spuwiE9PUcOlDtySgV+hbTOVfr27vPVyDg+cCiYa0FlqY0/jddtTmzlvqanGdqaSybgFIA==","691f8ca61c6b4dcbb0aeb5f4","691fc98bd239912070a2d37b","index1","<span style='color:red'>Fail,<span style='color:red'>Fail,<span style='color:green'>Lift,<span style='color:green'>Lift,<span style='color:red'>Fail,<span style='color:red'>Fail,<span style='color:red'>Fail,<span style='color:red'>Fail,<span style='color:red'>Fail,<span style='color:green'>Lift,<span style='color:red'>Fail,<span style='color:green'>Lift","<span style='color:red'>Fail,<span style='color:red'>Fail,<span style='color:green'>Lift,<span style='color:green'>Lift,<span style='color:green'>Lift,<span style='color:green'>Lift,<span style='color:red'>Fail,<span style='color:green'>Lift,<span style='color:green'>Lift,<span style='color:green'>Lift,<span style='color:red'>Fail,<span style='color:green'>Lift","<span style='color:red'>Fail,<span style='color:green'>Lift,<span style='color:green'>Lift,<span style='color:red'>Fail,<span style='color:green'>Lift,<span style='color:green'>Lift","0,0,1,1,0,0,0,0,0,1,0,1","0,0,1,1,1,1,0,1,1,1,0,1","0,1,1,0,1,1",10,20,20,"","","","","{""box1"":""7"",""box2"":""7"",""box3"":""65"",""box4"":""80""}","",NA,1,"round2_outcome",3,1,2,7,7,65,80,1,1,20,NA,NA,NA,NA,NA,NA,NA,NA,NA,NA,NA,7,7,65,80,1,1,20,NA,NA,NA,NA,NA,NA,NA,NA,NA,NA,NA,"",NA,NA,NA,NA,NA,NA,NA,NA,2025-11-21 02:27:53
"15142.79999999702","https://psyc-201.github.io/xiang2023/exp/index1.html?PROLIFIC_PID=REDACTED&STUDY_ID=691f8ca61c6b4dcbb0aeb5f4&SESSION_ID=691fc98bd239912070a2d37b","survey-html-form",15,546283,"0.0-311.0","G5xWq0T2wTQiZKV5zQXrnAtFVf7kE0+xQTgK2Ne7lgEcJN4hZcBApHNYXqf4RNn8zhTv9funSYX3qfIIlWlYvRZmNSyYpTU//2K6hN9jEmRIsV9v5oT2j1sNkx5jpCzRY83c2tfGBl9CjUVk/jclrD85SMhTs02XEdOzzZHlj7/5mlmUdWGhwECZazueM/0PVGdWeo8tFiBCPwMkIupSJHycwgv2WiGkhDHnL+dfHNOTK5nWl3WcQt12Zoopz+0xLKLIHJYbe/wsDSw/spuwiE9PUcOlDtySgV+hbTOVfr27vPVyDg+cCiYa0FlqY0/jddtTmzlvqanGdqaSybgFIA==","691f8ca61c6b4dcbb0aeb5f4","691fc98bd239912070a2d37b","index1","<span style='color:red'>Fail,<span style='color:red'>Fail,<span style='color:green'>Lift,<span style='color:green'>Lift,<span style='color:red'>Fail,<span style='color:red'>Fail,<span style='color:red'>Fail,<span style='color:red'>Fail,<span style='color:red'>Fail,<span style='color:green'>Lift,<span style='color:red'>Fail,<span style='color:green'>Lift","<span style='color:red'>Fail,<span style='color:red'>Fail,<span style='color:green'>Lift,<span style='color:green'>Lift,<span style='color:green'>Lift,<span style='color:green'>Lift,<span style='color:red'>Fail,<span style='color:green'>Lift,<span style='color:green'>Lift,<span style='color:green'>Lift,<span style='color:red'>Fail,<span style='color:green'>Lift","<span style='color:red'>Fail,<span style='color:green'>Lift,<span style='color:green'>Lift,<span style='color:red'>Fail,<span style='color:green'>Lift,<span style='color:green'>Lift","0,0,1,1,0,0,0,0,0,1,0,1","0,0,1,1,1,1,0,1,1,1,0,1","0,1,1,0,1,1",10,20,20,"","","","","{""box1"":""99""}","",NA,1,"round3_ready",4,1,3,NA,NA,NA,NA,NA,NA,NA,NA,NA,NA,NA,NA,NA,NA,99,99,NA,NA,NA,NA,NA,NA,NA,NA,NA,99,99,NA,NA,NA,NA,NA,NA,NA,NA,NA,"",NA,NA,NA,NA,NA,NA,NA,NA,2025-11-21 02:27:53
"34629.70000000298","https://psyc-201.github.io/xiang2023/exp/index1.html?PROLIFIC_PID=REDACTED&STUDY_ID=691f8ca61c6b4dcbb0aeb5f4&SESSION_ID=691fc98bd239912070a2d37b","survey-html-form",16,580915,"0.0-312.0-0.0","G5xWq0T2wTQiZKV5zQXrnAtFVf7kE0+xQTgK2Ne7lgEcJN4hZcBApHNYXqf4RNn8zhTv9funSYX3qfIIlWlYvRZmNSyYpTU//2K6hN9jEmRIsV9v5oT2j1sNkx5jpCzRY83c2tfGBl9CjUVk/jclrD85SMhTs02XEdOzzZHlj7/5mlmUdWGhwECZazueM/0PVGdWeo8tFiBCPwMkIupSJHycwgv2WiGkhDHnL+dfHNOTK5nWl3WcQt12Zoopz+0xLKLIHJYbe/wsDSw/spuwiE9PUcOlDtySgV+hbTOVfr27vPVyDg+cCiYa0FlqY0/jddtTmzlvqanGdqaSybgFIA==","691f8ca61c6b4dcbb0aeb5f4","691fc98bd239912070a2d37b","index1","<span style='color:red'>Fail,<span style='color:red'>Fail,<span style='color:green'>Lift,<span style='color:green'>Lift,<span style='color:red'>Fail,<span style='color:red'>Fail,<span style='color:red'>Fail,<span style='color:red'>Fail,<span style='color:red'>Fail,<span style='color:green'>Lift,<span style='color:red'>Fail,<span style='color:green'>Lift","<span style='color:red'>Fail,<span style='color:red'>Fail,<span style='color:green'>Lift,<span style='color:green'>Lift,<span style='color:green'>Lift,<span style='color:green'>Lift,<span style='color:red'>Fail,<span style='color:green'>Lift,<span style='color:green'>Lift,<span style='color:green'>Lift,<span style='color:red'>Fail,<span style='color:green'>Lift","<span style='color:red'>Fail,<span style='color:green'>Lift,<span style='color:green'>Lift,<span style='color:red'>Fail,<span style='color:green'>Lift,<span style='color:green'>Lift","0,0,1,1,0,0,0,0,0,1,0,1","0,0,1,1,1,1,0,1,1,1,0,1","0,1,1,0,1,1",10,20,20,"","","","","{""box1"":""7"",""box2"":""7"",""box3"":""80"",""box4"":""50""}","",NA,2,"round3_lift",5,1,3,7,7,80,50,1,1,20,NA,NA,NA,NA,NA,NA,NA,NA,NA,NA,NA,NA,NA,NA,NA,NA,NA,NA,NA,NA,7,7,80,50,1,1,20,NA,NA,"",NA,NA,NA,NA,NA,NA,NA,NA,2025-11-21 02:27:53
"null","https://psyc-201.github.io/xiang2023/exp/index1.html?PROLIFIC_PID=REDACTED&STUDY_ID=691f8ca61c6b4dcbb0aeb5f4&SESSION_ID=691fc98bd239912070a2d37b","html-keyboard-response",17,583917,"0.0-316.0","G5xWq0T2wTQiZKV5zQXrnAtFVf7kE0+xQTgK2Ne7lgEcJN4hZcBApHNYXqf4RNn8zhTv9funSYX3qfIIlWlYvRZmNSyYpTU//2K6hN9jEmRIsV9v5oT2j1sNkx5jpCzRY83c2tfGBl9CjUVk/jclrD85SMhTs02XEdOzzZHlj7/5mlmUdWGhwECZazueM/0PVGdWeo8tFiBCPwMkIupSJHycwgv2WiGkhDHnL+dfHNOTK5nWl3WcQt12Zoopz+0xLKLIHJYbe/wsDSw/spuwiE9PUcOlDtySgV+hbTOVfr27vPVyDg+cCiYa0FlqY0/jddtTmzlvqanGdqaSybgFIA==","691f8ca61c6b4dcbb0aeb5f4","691fc98bd239912070a2d37b","index1","<span style='color:red'>Fail,<span style='color:red'>Fail,<span style='color:green'>Lift,<span style='color:green'>Lift,<span style='color:red'>Fail,<span style='color:red'>Fail,<span style='color:red'>Fail,<span style='color:red'>Fail,<span style='color:red'>Fail,<span style='color:green'>Lift,<span style='color:red'>Fail,<span style='color:green'>Lift","<span style='color:red'>Fail,<span style='color:red'>Fail,<span style='color:green'>Lift,<span style='color:green'>Lift,<span style='color:green'>Lift,<span style='color:green'>Lift,<span style='color:red'>Fail,<span style='color:green'>Lift,<span style='color:green'>Lift,<span style='color:green'>Lift,<span style='color:red'>Fail,<span style='color:green'>Lift","<span style='color:red'>Fail,<span style='color:green'>Lift,<span style='color:green'>Lift,<span style='color:red'>Fail,<span style='color:green'>Lift,<span style='color:green'>Lift","0,0,1,1,0,0,0,0,0,1,0,1","0,0,1,1,1,1,0,1,1,1,0,1","0,1,1,0,1,1",10,20,20,"","","<p style='font-size:30px'><b> New Contest! </b></p>","null","","",NA,2,"",NA,NA,NA,NA,NA,NA,NA,NA,NA,NA,NA,NA,NA,NA,NA,NA,NA,NA,NA,NA,NA,NA,NA,NA,NA,NA,NA,NA,NA,NA,NA,NA,NA,NA,NA,NA,NA,NA,NA,"",NA,NA,NA,NA,NA,NA,NA,NA,2025-11-21 02:27:53
"8806.60000000894","https://psyc-201.github.io/xiang2023/exp/index1.html?PROLIFIC_PID=REDACTED&STUDY_ID=691f8ca61c6b4dcbb0aeb5f4&SESSION_ID=691fc98bd239912070a2d37b","survey-html-form",18,592724,"0.0-317.0","G5xWq0T2wTQiZKV5zQXrnAtFVf7kE0+xQTgK2Ne7lgEcJN4hZcBApHNYXqf4RNn8zhTv9funSYX3qfIIlWlYvRZmNSyYpTU//2K6hN9jEmRIsV9v5oT2j1sNkx5jpCzRY83c2tfGBl9CjUVk/jclrD85SMhTs02XEdOzzZHlj7/5mlmUdWGhwECZazueM/0PVGdWeo8tFiBCPwMkIupSJHycwgv2WiGkhDHnL+dfHNOTK5nWl3WcQt12Zoopz+0xLKLIHJYbe/wsDSw/spuwiE9PUcOlDtySgV+hbTOVfr27vPVyDg+cCiYa0FlqY0/jddtTmzlvqanGdqaSybgFIA==","691f8ca61c6b4dcbb0aeb5f4","691fc98bd239912070a2d37b","index1","<span style='color:red'>Fail,<span style='color:red'>Fail,<span style='color:green'>Lift,<span style='color:green'>Lift,<span style='color:red'>Fail,<span style='color:red'>Fail,<span style='color:red'>Fail,<span style='color:red'>Fail,<span style='color:red'>Fail,<span style='color:green'>Lift,<span style='color:red'>Fail,<span style='color:green'>Lift","<span style='color:red'>Fail,<span style='color:red'>Fail,<span style='color:green'>Lift,<span style='color:green'>Lift,<span style='color:green'>Lift,<span style='color:green'>Lift,<span style='color:red'>Fail,<span style='color:green'>Lift,<span style='color:green'>Lift,<span style='color:green'>Lift,<span style='color:red'>Fail,<span style='color:green'>Lift","<span style='color:red'>Fail,<span style='color:green'>Lift,<span style='color:green'>Lift,<span style='color:red'>Fail,<span style='color:green'>Lift,<span style='color:green'>Lift","0,0,1,1,0,0,0,0,0,1,0,1","0,0,1,1,1,1,0,1,1,1,0,1","0,1,1,0,1,1",10,20,20,"","","","","{""box1"":""1"",""box2"":""1""}","",NA,2,"round1_outcome",1,2,1,1,1,NA,NA,0,0,10,1,1,NA,NA,0,0,10,NA,NA,NA,NA,NA,NA,NA,NA,NA,NA,NA,NA,NA,NA,NA,NA,NA,NA,NA,NA,NA,NA,"",NA,NA,NA,NA,NA,NA,NA,NA,2025-11-21 02:27:53
"17682.5","https://psyc-201.github.io/xiang2023/exp/index1.html?PROLIFIC_PID=REDACTED&STUDY_ID=691f8ca61c6b4dcbb0aeb5f4&SESSION_ID=691fc98bd239912070a2d37b","survey-html-form",19,610408,"0.0-318.0","G5xWq0T2wTQiZKV5zQXrnAtFVf7kE0+xQTgK2Ne7lgEcJN4hZcBApHNYXqf4RNn8zhTv9funSYX3qfIIlWlYvRZmNSyYpTU//2K6hN9jEmRIsV9v5oT2j1sNkx5jpCzRY83c2tfGBl9CjUVk/jclrD85SMhTs02XEdOzzZHlj7/5mlmUdWGhwECZazueM/0PVGdWeo8tFiBCPwMkIupSJHycwgv2WiGkhDHnL+dfHNOTK5nWl3WcQt12Zoopz+0xLKLIHJYbe/wsDSw/spuwiE9PUcOlDtySgV+hbTOVfr27vPVyDg+cCiYa0FlqY0/jddtTmzlvqanGdqaSybgFIA==","691f8ca61c6b4dcbb0aeb5f4","691fc98bd239912070a2d37b","index1","<span style='color:red'>Fail,<span style='color:red'>Fail,<span style='color:green'>Lift,<span style='color:green'>Lift,<span style='color:red'>Fail,<span style='color:red'>Fail,<span style='color:red'>Fail,<span style='color:red'>Fail,<span style='color:red'>Fail,<span style='color:green'>Lift,<span style='color:red'>Fail,<span style='color:green'>Lift","<span style='color:red'>Fail,<span style='color:red'>Fail,<span style='color:green'>Lift,<span style='color:green'>Lift,<span style='color:green'>Lift,<span style='color:green'>Lift,<span style='color:red'>Fail,<span style='color:green'>Lift,<span style='color:green'>Lift,<span style='color:green'>Lift,<span style='color:red'>Fail,<span style='color:green'>Lift","<span style='color:red'>Fail,<span style='color:green'>Lift,<span style='color:green'>Lift,<span style='color:red'>Fail,<span style='color:green'>Lift,<span style='color:green'>Lift","0,0,1,1,0,0,0,0,0,1,0,1","0,0,1,1,1,1,0,1,1,1,0,1","0,1,1,0,1,1",10,20,20,"","","","","{""box1"":""25"",""box2"":""25""}","",NA,2,"round2_ready",2,2,2,NA,NA,NA,NA,NA,NA,NA,NA,NA,NA,NA,NA,NA,NA,25,25,25,25,NA,NA,NA,NA,NA,NA,NA,NA,NA,NA,NA,NA,NA,NA,NA,NA,NA,NA,"",NA,NA,NA,NA,NA,NA,NA,NA,2025-11-21 02:27:53
"17212.79999999702","https://psyc-201.github.io/xiang2023/exp/index1.html?PROLIFIC_PID=REDACTED&STUDY_ID=691f8ca61c6b4dcbb0aeb5f4&SESSION_ID=691fc98bd239912070a2d37b","survey-html-form",20,627622,"0.0-319.0","G5xWq0T2wTQiZKV5zQXrnAtFVf7kE0+xQTgK2Ne7lgEcJN4hZcBApHNYXqf4RNn8zhTv9funSYX3qfIIlWlYvRZmNSyYpTU//2K6hN9jEmRIsV9v5oT2j1sNkx5jpCzRY83c2tfGBl9CjUVk/jclrD85SMhTs02XEdOzzZHlj7/5mlmUdWGhwECZazueM/0PVGdWeo8tFiBCPwMkIupSJHycwgv2WiGkhDHnL+dfHNOTK5nWl3WcQt12Zoopz+0xLKLIHJYbe/wsDSw/spuwiE9PUcOlDtySgV+hbTOVfr27vPVyDg+cCiYa0FlqY0/jddtTmzlvqanGdqaSybgFIA==","691f8ca61c6b4dcbb0aeb5f4","691fc98bd239912070a2d37b","index1","<span style='color:red'>Fail,<span style='color:red'>Fail,<span style='color:green'>Lift,<span style='color:green'>Lift,<span style='color:red'>Fail,<span style='color:red'>Fail,<span style='color:red'>Fail,<span style='color:red'>Fail,<span style='color:red'>Fail,<span style='color:green'>Lift,<span style='color:red'>Fail,<span style='color:green'>Lift","<span style='color:red'>Fail,<span style='color:red'>Fail,<span style='color:green'>Lift,<span style='color:green'>Lift,<span style='color:green'>Lift,<span style='color:green'>Lift,<span style='color:red'>Fail,<span style='color:green'>Lift,<span style='color:green'>Lift,<span style='color:green'>Lift,<span style='color:red'>Fail,<span style='color:green'>Lift","<span style='color:red'>Fail,<span style='color:green'>Lift,<span style='color:green'>Lift,<span style='color:red'>Fail,<span style='color:green'>Lift,<span style='color:green'>Lift","0,0,1,1,0,0,0,0,0,1,0,1","0,0,1,1,1,1,0,1,1,1,0,1","0,1,1,0,1,1",10,20,20,"","","","","{""box1"":""2"",""box2"":""2""}","",NA,2,"round2_outcome",3,2,2,2,2,NA,NA,0,0,20,NA,NA,NA,NA,NA,NA,NA,NA,NA,NA,NA,2,2,NA,NA,0,0,20,NA,NA,NA,NA,NA,NA,NA,NA,NA,NA,NA,"",NA,NA,NA,NA,NA,NA,NA,NA,2025-11-21 02:27:53
"21540.79999999702","https://psyc-201.github.io/xiang2023/exp/index1.html?PROLIFIC_PID=REDACTED&STUDY_ID=691f8ca61c6b4dcbb0aeb5f4&SESSION_ID=691fc98bd239912070a2d37b","survey-html-form",21,649164,"0.0-320.0","G5xWq0T2wTQiZKV5zQXrnAtFVf7kE0+xQTgK2Ne7lgEcJN4hZcBApHNYXqf4RNn8zhTv9funSYX3qfIIlWlYvRZmNSyYpTU//2K6hN9jEmRIsV9v5oT2j1sNkx5jpCzRY83c2tfGBl9CjUVk/jclrD85SMhTs02XEdOzzZHlj7/5mlmUdWGhwECZazueM/0PVGdWeo8tFiBCPwMkIupSJHycwgv2WiGkhDHnL+dfHNOTK5nWl3WcQt12Zoopz+0xLKLIHJYbe/wsDSw/spuwiE9PUcOlDtySgV+hbTOVfr27vPVyDg+cCiYa0FlqY0/jddtTmzlvqanGdqaSybgFIA==","691f8ca61c6b4dcbb0aeb5f4","691fc98bd239912070a2d37b","index1","<span style='color:red'>Fail,<span style='color:red'>Fail,<span style='color:green'>Lift,<span style='color:green'>Lift,<span style='color:red'>Fail,<span style='color:red'>Fail,<span style='color:red'>Fail,<span style='color:red'>Fail,<span style='color:red'>Fail,<span style='color:green'>Lift,<span style='color:red'>Fail,<span style='color:green'>Lift","<span style='color:red'>Fail,<span style='color:red'>Fail,<span style='color:green'>Lift,<span style='color:green'>Lift,<span style='color:green'>Lift,<span style='color:green'>Lift,<span style='color:red'>Fail,<span style='color:green'>Lift,<span style='color:green'>Lift,<span style='color:green'>Lift,<span style='color:red'>Fail,<span style='color:green'>Lift","<span style='color:red'>Fail,<span style='color:green'>Lift,<span style='color:green'>Lift,<span style='color:red'>Fail,<span style='color:green'>Lift,<span style='color:green'>Lift","0,0,1,1,0,0,0,0,0,1,0,1","0,0,1,1,1,1,0,1,1,1,0,1","0,1,1,0,1,1",10,20,20,"","","","","{""box1"":""40""}","",NA,2,"round3_ready",4,2,3,NA,NA,NA,NA,NA,NA,NA,NA,NA,NA,NA,NA,NA,NA,40,40,NA,NA,NA,NA,NA,NA,NA,NA,NA,40,40,NA,NA,NA,NA,NA,NA,NA,NA,NA,"",NA,NA,NA,NA,NA,NA,NA,NA,2025-11-21 02:27:53
"14108.59999999404","https://psyc-201.github.io/xiang2023/exp/index1.html?PROLIFIC_PID=REDACTED&STUDY_ID=691f8ca61c6b4dcbb0aeb5f4&SESSION_ID=691fc98bd239912070a2d37b","survey-html-form",22,663275,"0.0-322.0-0.0","G5xWq0T2wTQiZKV5zQXrnAtFVf7kE0+xQTgK2Ne7lgEcJN4hZcBApHNYXqf4RNn8zhTv9funSYX3qfIIlWlYvRZmNSyYpTU//2K6hN9jEmRIsV9v5oT2j1sNkx5jpCzRY83c2tfGBl9CjUVk/jclrD85SMhTs02XEdOzzZHlj7/5mlmUdWGhwECZazueM/0PVGdWeo8tFiBCPwMkIupSJHycwgv2WiGkhDHnL+dfHNOTK5nWl3WcQt12Zoopz+0xLKLIHJYbe/wsDSw/spuwiE9PUcOlDtySgV+hbTOVfr27vPVyDg+cCiYa0FlqY0/jddtTmzlvqanGdqaSybgFIA==","691f8ca61c6b4dcbb0aeb5f4","691fc98bd239912070a2d37b","index1","<span style='color:red'>Fail,<span style='color:red'>Fail,<span style='color:green'>Lift,<span style='color:green'>Lift,<span style='color:red'>Fail,<span style='color:red'>Fail,<span style='color:red'>Fail,<span style='color:red'>Fail,<span style='color:red'>Fail,<span style='color:green'>Lift,<span style='color:red'>Fail,<span style='color:green'>Lift","<span style='color:red'>Fail,<span style='color:red'>Fail,<span style='color:green'>Lift,<span style='color:green'>Lift,<span style='color:green'>Lift,<span style='color:green'>Lift,<span style='color:red'>Fail,<span style='color:green'>Lift,<span style='color:green'>Lift,<span style='color:green'>Lift,<span style='color:red'>Fail,<span style='color:green'>Lift","<span style='color:red'>Fail,<span style='color:green'>Lift,<span style='color:green'>Lift,<span style='color:red'>Fail,<span style='color:green'>Lift,<span style='color:green'>Lift","0,0,1,1,0,0,0,0,0,1,0,1","0,0,1,1,1,1,0,1,1,1,0,1","0,1,1,0,1,1",10,20,20,"","","","","{""box1"":""1"",""box2"":""1"",""box3"":""999"",""box4"":""999""}","",NA,3,"round3_fail",5,2,3,1,1,NA,NA,0,0,20,NA,NA,NA,NA,NA,NA,NA,NA,NA,NA,NA,NA,NA,NA,NA,NA,NA,NA,NA,NA,1,1,NA,NA,0,0,20,1,1,"",NA,NA,NA,NA,NA,NA,NA,NA,2025-11-21 02:27:53
"null","https://psyc-201.github.io/xiang2023/exp/index1.html?PROLIFIC_PID=REDACTED&STUDY_ID=691f8ca61c6b4dcbb0aeb5f4&SESSION_ID=691fc98bd239912070a2d37b","html-keyboard-response",23,666288,"0.0-325.0","G5xWq0T2wTQiZKV5zQXrnAtFVf7kE0+xQTgK2Ne7lgEcJN4hZcBApHNYXqf4RNn8zhTv9funSYX3qfIIlWlYvRZmNSyYpTU//2K6hN9jEmRIsV9v5oT2j1sNkx5jpCzRY83c2tfGBl9CjUVk/jclrD85SMhTs02XEdOzzZHlj7/5mlmUdWGhwECZazueM/0PVGdWeo8tFiBCPwMkIupSJHycwgv2WiGkhDHnL+dfHNOTK5nWl3WcQt12Zoopz+0xLKLIHJYbe/wsDSw/spuwiE9PUcOlDtySgV+hbTOVfr27vPVyDg+cCiYa0FlqY0/jddtTmzlvqanGdqaSybgFIA==","691f8ca61c6b4dcbb0aeb5f4","691fc98bd239912070a2d37b","index1","<span style='color:red'>Fail,<span style='color:red'>Fail,<span style='color:green'>Lift,<span style='color:green'>Lift,<span style='color:red'>Fail,<span style='color:red'>Fail,<span style='color:red'>Fail,<span style='color:red'>Fail,<span style='color:red'>Fail,<span style='color:green'>Lift,<span style='color:red'>Fail,<span style='color:green'>Lift","<span style='color:red'>Fail,<span style='color:red'>Fail,<span style='color:green'>Lift,<span style='color:green'>Lift,<span style='color:green'>Lift,<span style='color:green'>Lift,<span style='color:red'>Fail,<span style='color:green'>Lift,<span style='color:green'>Lift,<span style='color:green'>Lift,<span style='color:red'>Fail,<span style='color:green'>Lift","<span style='color:red'>Fail,<span style='color:green'>Lift,<span style='color:green'>Lift,<span style='color:red'>Fail,<span style='color:green'>Lift,<span style='color:green'>Lift","0,0,1,1,0,0,0,0,0,1,0,1","0,0,1,1,1,1,0,1,1,1,0,1","0,1,1,0,1,1",10,20,20,"","","<p style='font-size:30px'><b> New Contest! </b></p>","null","","",NA,3,"",NA,NA,NA,NA,NA,NA,NA,NA,NA,NA,NA,NA,NA,NA,NA,NA,NA,NA,NA,NA,NA,NA,NA,NA,NA,NA,NA,NA,NA,NA,NA,NA,NA,NA,NA,NA,NA,NA,NA,"",NA,NA,NA,NA,NA,NA,NA,NA,2025-11-21 02:27:53
"9793.40000000596","https://psyc-201.github.io/xiang2023/exp/index1.html?PROLIFIC_PID=REDACTED&STUDY_ID=691f8ca61c6b4dcbb0aeb5f4&SESSION_ID=691fc98bd239912070a2d37b","survey-html-form",24,676083,"0.0-326.0","G5xWq0T2wTQiZKV5zQXrnAtFVf7kE0+xQTgK2Ne7lgEcJN4hZcBApHNYXqf4RNn8zhTv9funSYX3qfIIlWlYvRZmNSyYpTU//2K6hN9jEmRIsV9v5oT2j1sNkx5jpCzRY83c2tfGBl9CjUVk/jclrD85SMhTs02XEdOzzZHlj7/5mlmUdWGhwECZazueM/0PVGdWeo8tFiBCPwMkIupSJHycwgv2WiGkhDHnL+dfHNOTK5nWl3WcQt12Zoopz+0xLKLIHJYbe/wsDSw/spuwiE9PUcOlDtySgV+hbTOVfr27vPVyDg+cCiYa0FlqY0/jddtTmzlvqanGdqaSybgFIA==","691f8ca61c6b4dcbb0aeb5f4","691fc98bd239912070a2d37b","index1","<span style='color:red'>Fail,<span style='color:red'>Fail,<span style='color:green'>Lift,<span style='color:green'>Lift,<span style='color:red'>Fail,<span style='color:red'>Fail,<span style='color:red'>Fail,<span style='color:red'>Fail,<span style='color:red'>Fail,<span style='color:green'>Lift,<span style='color:red'>Fail,<span style='color:green'>Lift","<span style='color:red'>Fail,<span style='color:red'>Fail,<span style='color:green'>Lift,<span style='color:green'>Lift,<span style='color:green'>Lift,<span style='color:green'>Lift,<span style='color:red'>Fail,<span style='color:green'>Lift,<span style='color:green'>Lift,<span style='color:green'>Lift,<span style='color:red'>Fail,<span style='color:green'>Lift","<span style='color:red'>Fail,<span style='color:green'>Lift,<span style='color:green'>Lift,<span style='color:red'>Fail,<span style='color:green'>Lift,<span style='color:green'>Lift","0,0,1,1,0,0,0,0,0,1,0,1","0,0,1,1,1,1,0,1,1,1,0,1","0,1,1,0,1,1",10,20,20,"","","","","{""box1"":""3"",""box2"":""3""}","",NA,3,"round1_outcome",1,3,1,3,3,NA,NA,0,0,10,3,3,NA,NA,0,0,10,NA,NA,NA,NA,NA,NA,NA,NA,NA,NA,NA,NA,NA,NA,NA,NA,NA,NA,NA,NA,NA,NA,"",NA,NA,NA,NA,NA,NA,NA,NA,2025-11-21 02:27:53
"12658.89999999106","https://psyc-201.github.io/xiang2023/exp/index1.html?PROLIFIC_PID=REDACTED&STUDY_ID=691f8ca61c6b4dcbb0aeb5f4&SESSION_ID=691fc98bd239912070a2d37b","survey-html-form",25,688743,"0.0-327.0","G5xWq0T2wTQiZKV5zQXrnAtFVf7kE0+xQTgK2Ne7lgEcJN4hZcBApHNYXqf4RNn8zhTv9funSYX3qfIIlWlYvRZmNSyYpTU//2K6hN9jEmRIsV9v5oT2j1sNkx5jpCzRY83c2tfGBl9CjUVk/jclrD85SMhTs02XEdOzzZHlj7/5mlmUdWGhwECZazueM/0PVGdWeo8tFiBCPwMkIupSJHycwgv2WiGkhDHnL+dfHNOTK5nWl3WcQt12Zoopz+0xLKLIHJYbe/wsDSw/spuwiE9PUcOlDtySgV+hbTOVfr27vPVyDg+cCiYa0FlqY0/jddtTmzlvqanGdqaSybgFIA==","691f8ca61c6b4dcbb0aeb5f4","691fc98bd239912070a2d37b","index1","<span style='color:red'>Fail,<span style='color:red'>Fail,<span style='color:green'>Lift,<span style='color:green'>Lift,<span style='color:red'>Fail,<span style='color:red'>Fail,<span style='color:red'>Fail,<span style='color:red'>Fail,<span style='color:red'>Fail,<span style='color:green'>Lift,<span style='color:red'>Fail,<span style='color:green'>Lift","<span style='color:red'>Fail,<span style='color:red'>Fail,<span style='color:green'>Lift,<span style='color:green'>Lift,<span style='color:green'>Lift,<span style='color:green'>Lift,<span style='color:red'>Fail,<span style='color:green'>Lift,<span style='color:green'>Lift,<span style='color:green'>Lift,<span style='color:red'>Fail,<span style='color:green'>Lift","<span style='color:red'>Fail,<span style='color:green'>Lift,<span style='color:green'>Lift,<span style='color:red'>Fail,<span style='color:green'>Lift,<span style='color:green'>Lift","0,0,1,1,0,0,0,0,0,1,0,1","0,0,1,1,1,1,0,1,1,1,0,1","0,1,1,0,1,1",10,20,20,"","","","","{""box1"":""20"",""box2"":""20""}","",NA,3,"round2_ready",2,3,2,NA,NA,NA,NA,NA,NA,NA,NA,NA,NA,NA,NA,NA,NA,20,20,20,20,NA,NA,NA,NA,NA,NA,NA,NA,NA,NA,NA,NA,NA,NA,NA,NA,NA,NA,"",NA,NA,NA,NA,NA,NA,NA,NA,2025-11-21 02:27:53
"24732.5","https://psyc-201.github.io/xiang2023/exp/index1.html?PROLIFIC_PID=REDACTED&STUDY_ID=691f8ca61c6b4dcbb0aeb5f4&SESSION_ID=691fc98bd239912070a2d37b","survey-html-form",26,713477,"0.0-328.0","G5xWq0T2wTQiZKV5zQXrnAtFVf7kE0+xQTgK2Ne7lgEcJN4hZcBApHNYXqf4RNn8zhTv9funSYX3qfIIlWlYvRZmNSyYpTU//2K6hN9jEmRIsV9v5oT2j1sNkx5jpCzRY83c2tfGBl9CjUVk/jclrD85SMhTs02XEdOzzZHlj7/5mlmUdWGhwECZazueM/0PVGdWeo8tFiBCPwMkIupSJHycwgv2WiGkhDHnL+dfHNOTK5nWl3WcQt12Zoopz+0xLKLIHJYbe/wsDSw/spuwiE9PUcOlDtySgV+hbTOVfr27vPVyDg+cCiYa0FlqY0/jddtTmzlvqanGdqaSybgFIA==","691f8ca61c6b4dcbb0aeb5f4","691fc98bd239912070a2d37b","index1","<span style='color:red'>Fail,<span style='color:red'>Fail,<span style='color:green'>Lift,<span style='color:green'>Lift,<span style='color:red'>Fail,<span style='color:red'>Fail,<span style='color:red'>Fail,<span style='color:red'>Fail,<span style='color:red'>Fail,<span style='color:green'>Lift,<span style='color:red'>Fail,<span style='color:green'>Lift","<span style='color:red'>Fail,<span style='color:red'>Fail,<span style='color:green'>Lift,<span style='color:green'>Lift,<span style='color:green'>Lift,<span style='color:green'>Lift,<span style='color:red'>Fail,<span style='color:green'>Lift,<span style='color:green'>Lift,<span style='color:green'>Lift,<span style='color:red'>Fail,<span style='color:green'>Lift","<span style='color:red'>Fail,<span style='color:green'>Lift,<span style='color:green'>Lift,<span style='color:red'>Fail,<span style='color:green'>Lift,<span style='color:green'>Lift","0,0,1,1,0,0,0,0,0,1,0,1","0,0,1,1,1,1,0,1,1,1,0,1","0,1,1,0,1,1",10,20,20,"","","","","{""box1"":""8"",""box2"":""8"",""box3"":""80"",""box4"":""80""}","",NA,3,"round2_outcome",3,3,2,8,8,80,80,1,1,20,NA,NA,NA,NA,NA,NA,NA,NA,NA,NA,NA,8,8,80,80,1,1,20,NA,NA,NA,NA,NA,NA,NA,NA,NA,NA,NA,"",NA,NA,NA,NA,NA,NA,NA,NA,2025-11-21 02:27:53
"8236.699999988079","https://psyc-201.github.io/xiang2023/exp/index1.html?PROLIFIC_PID=REDACTED&STUDY_ID=691f8ca61c6b4dcbb0aeb5f4&SESSION_ID=691fc98bd239912070a2d37b","survey-html-form",27,721715,"0.0-329.0","G5xWq0T2wTQiZKV5zQXrnAtFVf7kE0+xQTgK2Ne7lgEcJN4hZcBApHNYXqf4RNn8zhTv9funSYX3qfIIlWlYvRZmNSyYpTU//2K6hN9jEmRIsV9v5oT2j1sNkx5jpCzRY83c2tfGBl9CjUVk/jclrD85SMhTs02XEdOzzZHlj7/5mlmUdWGhwECZazueM/0PVGdWeo8tFiBCPwMkIupSJHycwgv2WiGkhDHnL+dfHNOTK5nWl3WcQt12Zoopz+0xLKLIHJYbe/wsDSw/spuwiE9PUcOlDtySgV+hbTOVfr27vPVyDg+cCiYa0FlqY0/jddtTmzlvqanGdqaSybgFIA==","691f8ca61c6b4dcbb0aeb5f4","691fc98bd239912070a2d37b","index1","<span style='color:red'>Fail,<span style='color:red'>Fail,<span style='color:green'>Lift,<span style='color:green'>Lift,<span style='color:red'>Fail,<span style='color:red'>Fail,<span style='color:red'>Fail,<span style='color:red'>Fail,<span style='color:red'>Fail,<span style='color:green'>Lift,<span style='color:red'>Fail,<span style='color:green'>Lift","<span style='color:red'>Fail,<span style='color:red'>Fail,<span style='color:green'>Lift,<span style='color:green'>Lift,<span style='color:green'>Lift,<span style='color:green'>Lift,<span style='color:red'>Fail,<span style='color:green'>Lift,<span style='color:green'>Lift,<span style='color:green'>Lift,<span style='color:red'>Fail,<span style='color:green'>Lift","<span style='color:red'>Fail,<span style='color:green'>Lift,<span style='color:green'>Lift,<span style='color:red'>Fail,<span style='color:green'>Lift,<span style='color:green'>Lift","0,0,1,1,0,0,0,0,0,1,0,1","0,0,1,1,1,1,0,1,1,1,0,1","0,1,1,0,1,1",10,20,20,"","","","","{""box1"":""99""}","",NA,3,"round3_ready",4,3,3,NA,NA,NA,NA,NA,NA,NA,NA,NA,NA,NA,NA,NA,NA,99,99,NA,NA,NA,NA,NA,NA,NA,NA,NA,99,99,NA,NA,NA,NA,NA,NA,NA,NA,NA,"",NA,NA,NA,NA,NA,NA,NA,NA,2025-11-21 02:27:53
"18633","https://psyc-201.github.io/xiang2023/exp/index1.html?PROLIFIC_PID=REDACTED&STUDY_ID=691f8ca61c6b4dcbb0aeb5f4&SESSION_ID=691fc98bd239912070a2d37b","survey-html-form",28,740350,"0.0-330.0-0.0","G5xWq0T2wTQiZKV5zQXrnAtFVf7kE0+xQTgK2Ne7lgEcJN4hZcBApHNYXqf4RNn8zhTv9funSYX3qfIIlWlYvRZmNSyYpTU//2K6hN9jEmRIsV9v5oT2j1sNkx5jpCzRY83c2tfGBl9CjUVk/jclrD85SMhTs02XEdOzzZHlj7/5mlmUdWGhwECZazueM/0PVGdWeo8tFiBCPwMkIupSJHycwgv2WiGkhDHnL+dfHNOTK5nWl3WcQt12Zoopz+0xLKLIHJYbe/wsDSw/spuwiE9PUcOlDtySgV+hbTOVfr27vPVyDg+cCiYa0FlqY0/jddtTmzlvqanGdqaSybgFIA==","691f8ca61c6b4dcbb0aeb5f4","691fc98bd239912070a2d37b","index1","<span style='color:red'>Fail,<span style='color:red'>Fail,<span style='color:green'>Lift,<span style='color:green'>Lift,<span style='color:red'>Fail,<span style='color:red'>Fail,<span style='color:red'>Fail,<span style='color:red'>Fail,<span style='color:red'>Fail,<span style='color:green'>Lift,<span style='color:red'>Fail,<span style='color:green'>Lift","<span style='color:red'>Fail,<span style='color:red'>Fail,<span style='color:green'>Lift,<span style='color:green'>Lift,<span style='color:green'>Lift,<span style='color:green'>Lift,<span style='color:red'>Fail,<span style='color:green'>Lift,<span style='color:green'>Lift,<span style='color:green'>Lift,<span style='color:red'>Fail,<span style='color:green'>Lift","<span style='color:red'>Fail,<span style='color:green'>Lift,<span style='color:green'>Lift,<span style='color:red'>Fail,<span style='color:green'>Lift,<span style='color:green'>Lift","0,0,1,1,0,0,0,0,0,1,0,1","0,0,1,1,1,1,0,1,1,1,0,1","0,1,1,0,1,1",10,20,20,"","","","","{""box1"":""8"",""box2"":""8"",""box3"":""90"",""box4"":""90""}","",NA,4,"round3_lift",5,3,3,8,8,90,90,1,1,20,NA,NA,NA,NA,NA,NA,NA,NA,NA,NA,NA,NA,NA,NA,NA,NA,NA,NA,NA,NA,8,8,90,90,1,1,20,NA,NA,"",NA,NA,NA,NA,NA,NA,NA,NA,2025-11-21 02:27:53
"null","https://psyc-201.github.io/xiang2023/exp/index1.html?PROLIFIC_PID=REDACTED&STUDY_ID=691f8ca61c6b4dcbb0aeb5f4&SESSION_ID=691fc98bd239912070a2d37b","html-keyboard-response",29,743355,"0.0-334.0","G5xWq0T2wTQiZKV5zQXrnAtFVf7kE0+xQTgK2Ne7lgEcJN4hZcBApHNYXqf4RNn8zhTv9funSYX3qfIIlWlYvRZmNSyYpTU//2K6hN9jEmRIsV9v5oT2j1sNkx5jpCzRY83c2tfGBl9CjUVk/jclrD85SMhTs02XEdOzzZHlj7/5mlmUdWGhwECZazueM/0PVGdWeo8tFiBCPwMkIupSJHycwgv2WiGkhDHnL+dfHNOTK5nWl3WcQt12Zoopz+0xLKLIHJYbe/wsDSw/spuwiE9PUcOlDtySgV+hbTOVfr27vPVyDg+cCiYa0FlqY0/jddtTmzlvqanGdqaSybgFIA==","691f8ca61c6b4dcbb0aeb5f4","691fc98bd239912070a2d37b","index1","<span style='color:red'>Fail,<span style='color:red'>Fail,<span style='color:green'>Lift,<span style='color:green'>Lift,<span style='color:red'>Fail,<span style='color:red'>Fail,<span style='color:red'>Fail,<span style='color:red'>Fail,<span style='color:red'>Fail,<span style='color:green'>Lift,<span style='color:red'>Fail,<span style='color:green'>Lift","<span style='color:red'>Fail,<span style='color:red'>Fail,<span style='color:green'>Lift,<span style='color:green'>Lift,<span style='color:green'>Lift,<span style='color:green'>Lift,<span style='color:red'>Fail,<span style='color:green'>Lift,<span style='color:green'>Lift,<span style='color:green'>Lift,<span style='color:red'>Fail,<span style='color:green'>Lift","<span style='color:red'>Fail,<span style='color:green'>Lift,<span style='color:green'>Lift,<span style='color:red'>Fail,<span style='color:green'>Lift,<span style='color:green'>Lift","0,0,1,1,0,0,0,0,0,1,0,1","0,0,1,1,1,1,0,1,1,1,0,1","0,1,1,0,1,1",10,20,20,"","","<p style='font-size:30px'><b> New Contest! </b></p>","null","","",NA,4,"",NA,NA,NA,NA,NA,NA,NA,NA,NA,NA,NA,NA,NA,NA,NA,NA,NA,NA,NA,NA,NA,NA,NA,NA,NA,NA,NA,NA,NA,NA,NA,NA,NA,NA,NA,NA,NA,NA,NA,"",NA,NA,NA,NA,NA,NA,NA,NA,2025-11-21 02:27:53
"46926.89999999106","https://psyc-201.github.io/xiang2023/exp/index1.html?PROLIFIC_PID=REDACTED&STUDY_ID=691f8ca61c6b4dcbb0aeb5f4&SESSION_ID=691fc98bd239912070a2d37b","survey-html-form",30,790285,"0.0-335.0","G5xWq0T2wTQiZKV5zQXrnAtFVf7kE0+xQTgK2Ne7lgEcJN4hZcBApHNYXqf4RNn8zhTv9funSYX3qfIIlWlYvRZmNSyYpTU//2K6hN9jEmRIsV9v5oT2j1sNkx5jpCzRY83c2tfGBl9CjUVk/jclrD85SMhTs02XEdOzzZHlj7/5mlmUdWGhwECZazueM/0PVGdWeo8tFiBCPwMkIupSJHycwgv2WiGkhDHnL+dfHNOTK5nWl3WcQt12Zoopz+0xLKLIHJYbe/wsDSw/spuwiE9PUcOlDtySgV+hbTOVfr27vPVyDg+cCiYa0FlqY0/jddtTmzlvqanGdqaSybgFIA==","691f8ca61c6b4dcbb0aeb5f4","691fc98bd239912070a2d37b","index1","<span style='color:red'>Fail,<span style='color:red'>Fail,<span style='color:green'>Lift,<span style='color:green'>Lift,<span style='color:red'>Fail,<span style='color:red'>Fail,<span style='color:red'>Fail,<span style='color:red'>Fail,<span style='color:red'>Fail,<span style='color:green'>Lift,<span style='color:red'>Fail,<span style='color:green'>Lift","<span style='color:red'>Fail,<span style='color:red'>Fail,<span style='color:green'>Lift,<span style='color:green'>Lift,<span style='color:green'>Lift,<span style='color:green'>Lift,<span style='color:red'>Fail,<span style='color:green'>Lift,<span style='color:green'>Lift,<span style='color:green'>Lift,<span style='color:red'>Fail,<span style='color:green'>Lift","<span style='color:red'>Fail,<span style='color:green'>Lift,<span style='color:green'>Lift,<span style='color:red'>Fail,<span style='color:green'>Lift,<span style='color:green'>Lift","0,0,1,1,0,0,0,0,0,1,0,1","0,0,1,1,1,1,0,1,1,1,0,1","0,1,1,0,1,1",10,20,20,"","","","","{""box1"":""2"",""box2"":""4"",""box4"":""50""}","",NA,4,"round1_outcome",1,4,1,2,4,NA,50,0,1,10,2,4,NA,50,0,1,10,NA,NA,NA,NA,NA,NA,NA,NA,NA,NA,NA,NA,NA,NA,NA,NA,NA,NA,NA,NA,NA,NA,"",NA,NA,NA,NA,NA,NA,NA,NA,2025-11-21 02:27:53
"14554.5","https://psyc-201.github.io/xiang2023/exp/index1.html?PROLIFIC_PID=REDACTED&STUDY_ID=691f8ca61c6b4dcbb0aeb5f4&SESSION_ID=691fc98bd239912070a2d37b","survey-html-form",31,804840,"0.0-336.0","G5xWq0T2wTQiZKV5zQXrnAtFVf7kE0+xQTgK2Ne7lgEcJN4hZcBApHNYXqf4RNn8zhTv9funSYX3qfIIlWlYvRZmNSyYpTU//2K6hN9jEmRIsV9v5oT2j1sNkx5jpCzRY83c2tfGBl9CjUVk/jclrD85SMhTs02XEdOzzZHlj7/5mlmUdWGhwECZazueM/0PVGdWeo8tFiBCPwMkIupSJHycwgv2WiGkhDHnL+dfHNOTK5nWl3WcQt12Zoopz+0xLKLIHJYbe/wsDSw/spuwiE9PUcOlDtySgV+hbTOVfr27vPVyDg+cCiYa0FlqY0/jddtTmzlvqanGdqaSybgFIA==","691f8ca61c6b4dcbb0aeb5f4","691fc98bd239912070a2d37b","index1","<span style='color:red'>Fail,<span style='color:red'>Fail,<span style='color:green'>Lift,<span style='color:green'>Lift,<span style='color:red'>Fail,<span style='color:red'>Fail,<span style='color:red'>Fail,<span style='color:red'>Fail,<span style='color:red'>Fail,<span style='color:green'>Lift,<span style='color:red'>Fail,<span style='color:green'>Lift","<span style='color:red'>Fail,<span style='color:red'>Fail,<span style='color:green'>Lift,<span style='color:green'>Lift,<span style='color:green'>Lift,<span style='color:green'>Lift,<span style='color:red'>Fail,<span style='color:green'>Lift,<span style='color:green'>Lift,<span style='color:green'>Lift,<span style='color:red'>Fail,<span style='color:green'>Lift","<span style='color:red'>Fail,<span style='color:green'>Lift,<span style='color:green'>Lift,<span style='color:red'>Fail,<span style='color:green'>Lift,<span style='color:green'>Lift","0,0,1,1,0,0,0,0,0,1,0,1","0,0,1,1,1,1,0,1,1,1,0,1","0,1,1,0,1,1",10,20,20,"","","","","{""box1"":""40"",""box2"":""60""}","",NA,4,"round2_ready",2,4,2,NA,NA,NA,NA,NA,NA,NA,NA,NA,NA,NA,NA,NA,NA,40,60,40,60,NA,NA,NA,NA,NA,NA,NA,NA,NA,NA,NA,NA,NA,NA,NA,NA,NA,NA,"",NA,NA,NA,NA,NA,NA,NA,NA,2025-11-21 02:27:53
"19760.79999999702","https://psyc-201.github.io/xiang2023/exp/index1.html?PROLIFIC_PID=REDACTED&STUDY_ID=691f8ca61c6b4dcbb0aeb5f4&SESSION_ID=691fc98bd239912070a2d37b","survey-html-form",32,824602,"0.0-337.0","G5xWq0T2wTQiZKV5zQXrnAtFVf7kE0+xQTgK2Ne7lgEcJN4hZcBApHNYXqf4RNn8zhTv9funSYX3qfIIlWlYvRZmNSyYpTU//2K6hN9jEmRIsV9v5oT2j1sNkx5jpCzRY83c2tfGBl9CjUVk/jclrD85SMhTs02XEdOzzZHlj7/5mlmUdWGhwECZazueM/0PVGdWeo8tFiBCPwMkIupSJHycwgv2WiGkhDHnL+dfHNOTK5nWl3WcQt12Zoopz+0xLKLIHJYbe/wsDSw/spuwiE9PUcOlDtySgV+hbTOVfr27vPVyDg+cCiYa0FlqY0/jddtTmzlvqanGdqaSybgFIA==","691f8ca61c6b4dcbb0aeb5f4","691fc98bd239912070a2d37b","index1","<span style='color:red'>Fail,<span style='color:red'>Fail,<span style='color:green'>Lift,<span style='color:green'>Lift,<span style='color:red'>Fail,<span style='color:red'>Fail,<span style='color:red'>Fail,<span style='color:red'>Fail,<span style='color:red'>Fail,<span style='color:green'>Lift,<span style='color:red'>Fail,<span style='color:green'>Lift","<span style='color:red'>Fail,<span style='color:red'>Fail,<span style='color:green'>Lift,<span style='color:green'>Lift,<span style='color:green'>Lift,<span style='color:green'>Lift,<span style='color:red'>Fail,<span style='color:green'>Lift,<span style='color:green'>Lift,<span style='color:green'>Lift,<span style='color:red'>Fail,<span style='color:green'>Lift","<span style='color:red'>Fail,<span style='color:green'>Lift,<span style='color:green'>Lift,<span style='color:red'>Fail,<span style='color:green'>Lift,<span style='color:green'>Lift","0,0,1,1,0,0,0,0,0,1,0,1","0,0,1,1,1,1,0,1,1,1,0,1","0,1,1,0,1,1",10,20,20,"","","","","{""box1"":""3"",""box2"":""8"",""box4"":""60""}","",NA,4,"round2_outcome",3,4,2,3,8,NA,60,0,1,20,NA,NA,NA,NA,NA,NA,NA,NA,NA,NA,NA,3,8,NA,60,0,1,20,NA,NA,NA,NA,NA,NA,NA,NA,NA,NA,NA,"",NA,NA,NA,NA,NA,NA,NA,NA,2025-11-21 02:27:53
"14260.09999999404","https://psyc-201.github.io/xiang2023/exp/index1.html?PROLIFIC_PID=REDACTED&STUDY_ID=691f8ca61c6b4dcbb0aeb5f4&SESSION_ID=691fc98bd239912070a2d37b","survey-html-form",33,838864,"0.0-338.0","G5xWq0T2wTQiZKV5zQXrnAtFVf7kE0+xQTgK2Ne7lgEcJN4hZcBApHNYXqf4RNn8zhTv9funSYX3qfIIlWlYvRZmNSyYpTU//2K6hN9jEmRIsV9v5oT2j1sNkx5jpCzRY83c2tfGBl9CjUVk/jclrD85SMhTs02XEdOzzZHlj7/5mlmUdWGhwECZazueM/0PVGdWeo8tFiBCPwMkIupSJHycwgv2WiGkhDHnL+dfHNOTK5nWl3WcQt12Zoopz+0xLKLIHJYbe/wsDSw/spuwiE9PUcOlDtySgV+hbTOVfr27vPVyDg+cCiYa0FlqY0/jddtTmzlvqanGdqaSybgFIA==","691f8ca61c6b4dcbb0aeb5f4","691fc98bd239912070a2d37b","index1","<span style='color:red'>Fail,<span style='color:red'>Fail,<span style='color:green'>Lift,<span style='color:green'>Lift,<span style='color:red'>Fail,<span style='color:red'>Fail,<span style='color:red'>Fail,<span style='color:red'>Fail,<span style='color:red'>Fail,<span style='color:green'>Lift,<span style='color:red'>Fail,<span style='color:green'>Lift","<span style='color:red'>Fail,<span style='color:red'>Fail,<span style='color:green'>Lift,<span style='color:green'>Lift,<span style='color:green'>Lift,<span style='color:green'>Lift,<span style='color:red'>Fail,<span style='color:green'>Lift,<span style='color:green'>Lift,<span style='color:green'>Lift,<span style='color:red'>Fail,<span style='color:green'>Lift","<span style='color:red'>Fail,<span style='color:green'>Lift,<span style='color:green'>Lift,<span style='color:red'>Fail,<span style='color:green'>Lift,<span style='color:green'>Lift","0,0,1,1,0,0,0,0,0,1,0,1","0,0,1,1,1,1,0,1,1,1,0,1","0,1,1,0,1,1",10,20,20,"","","","","{""box1"":""85""}","",NA,4,"round3_ready",4,4,3,NA,NA,NA,NA,NA,NA,NA,NA,NA,NA,NA,NA,NA,NA,85,85,NA,NA,NA,NA,NA,NA,NA,NA,NA,85,85,NA,NA,NA,NA,NA,NA,NA,NA,NA,"",NA,NA,NA,NA,NA,NA,NA,NA,2025-11-21 02:27:53
"16133.5","https://psyc-201.github.io/xiang2023/exp/index1.html?PROLIFIC_PID=REDACTED&STUDY_ID=691f8ca61c6b4dcbb0aeb5f4&SESSION_ID=691fc98bd239912070a2d37b","survey-html-form",34,854999,"0.0-339.0-0.0","G5xWq0T2wTQiZKV5zQXrnAtFVf7kE0+xQTgK2Ne7lgEcJN4hZcBApHNYXqf4RNn8zhTv9funSYX3qfIIlWlYvRZmNSyYpTU//2K6hN9jEmRIsV9v5oT2j1sNkx5jpCzRY83c2tfGBl9CjUVk/jclrD85SMhTs02XEdOzzZHlj7/5mlmUdWGhwECZazueM/0PVGdWeo8tFiBCPwMkIupSJHycwgv2WiGkhDHnL+dfHNOTK5nWl3WcQt12Zoopz+0xLKLIHJYbe/wsDSw/spuwiE9PUcOlDtySgV+hbTOVfr27vPVyDg+cCiYa0FlqY0/jddtTmzlvqanGdqaSybgFIA==","691f8ca61c6b4dcbb0aeb5f4","691fc98bd239912070a2d37b","index1","<span style='color:red'>Fail,<span style='color:red'>Fail,<span style='color:green'>Lift,<span style='color:green'>Lift,<span style='color:red'>Fail,<span style='color:red'>Fail,<span style='color:red'>Fail,<span style='color:red'>Fail,<span style='color:red'>Fail,<span style='color:green'>Lift,<span style='color:red'>Fail,<span style='color:green'>Lift","<span style='color:red'>Fail,<span style='color:red'>Fail,<span style='color:green'>Lift,<span style='color:green'>Lift,<span style='color:green'>Lift,<span style='color:green'>Lift,<span style='color:red'>Fail,<span style='color:green'>Lift,<span style='color:green'>Lift,<span style='color:green'>Lift,<span style='color:red'>Fail,<span style='color:green'>Lift","<span style='color:red'>Fail,<span style='color:green'>Lift,<span style='color:green'>Lift,<span style='color:red'>Fail,<span style='color:green'>Lift,<span style='color:green'>Lift","0,0,1,1,0,0,0,0,0,1,0,1","0,0,1,1,1,1,0,1,1,1,0,1","0,1,1,0,1,1",10,20,20,"","","","","{""box1"":""2"",""box2"":""8"",""box3"":""90"",""box4"":""50""}","",NA,5,"round3_lift",5,4,3,2,8,90,50,1,1,20,NA,NA,NA,NA,NA,NA,NA,NA,NA,NA,NA,NA,NA,NA,NA,NA,NA,NA,NA,NA,2,8,90,50,1,1,20,NA,NA,"",NA,NA,NA,NA,NA,NA,NA,NA,2025-11-21 02:27:53
"null","https://psyc-201.github.io/xiang2023/exp/index1.html?PROLIFIC_PID=REDACTED&STUDY_ID=691f8ca61c6b4dcbb0aeb5f4&SESSION_ID=691fc98bd239912070a2d37b","html-keyboard-response",35,858002,"0.0-343.0","G5xWq0T2wTQiZKV5zQXrnAtFVf7kE0+xQTgK2Ne7lgEcJN4hZcBApHNYXqf4RNn8zhTv9funSYX3qfIIlWlYvRZmNSyYpTU//2K6hN9jEmRIsV9v5oT2j1sNkx5jpCzRY83c2tfGBl9CjUVk/jclrD85SMhTs02XEdOzzZHlj7/5mlmUdWGhwECZazueM/0PVGdWeo8tFiBCPwMkIupSJHycwgv2WiGkhDHnL+dfHNOTK5nWl3WcQt12Zoopz+0xLKLIHJYbe/wsDSw/spuwiE9PUcOlDtySgV+hbTOVfr27vPVyDg+cCiYa0FlqY0/jddtTmzlvqanGdqaSybgFIA==","691f8ca61c6b4dcbb0aeb5f4","691fc98bd239912070a2d37b","index1","<span style='color:red'>Fail,<span style='color:red'>Fail,<span style='color:green'>Lift,<span style='color:green'>Lift,<span style='color:red'>Fail,<span style='color:red'>Fail,<span style='color:red'>Fail,<span style='color:red'>Fail,<span style='color:red'>Fail,<span style='color:green'>Lift,<span style='color:red'>Fail,<span style='color:green'>Lift","<span style='color:red'>Fail,<span style='color:red'>Fail,<span style='color:green'>Lift,<span style='color:green'>Lift,<span style='color:green'>Lift,<span style='color:green'>Lift,<span style='color:red'>Fail,<span style='color:green'>Lift,<span style='color:green'>Lift,<span style='color:green'>Lift,<span style='color:red'>Fail,<span style='color:green'>Lift","<span style='color:red'>Fail,<span style='color:green'>Lift,<span style='color:green'>Lift,<span style='color:red'>Fail,<span style='color:green'>Lift,<span style='color:green'>Lift","0,0,1,1,0,0,0,0,0,1,0,1","0,0,1,1,1,1,0,1,1,1,0,1","0,1,1,0,1,1",10,20,20,"","","<p style='font-size:30px'><b> New Contest! </b></p>","null","","",NA,5,"",NA,NA,NA,NA,NA,NA,NA,NA,NA,NA,NA,NA,NA,NA,NA,NA,NA,NA,NA,NA,NA,NA,NA,NA,NA,NA,NA,NA,NA,NA,NA,NA,NA,NA,NA,NA,NA,NA,NA,"",NA,NA,NA,NA,NA,NA,NA,NA,2025-11-21 02:27:53
"24433.09999999404","https://psyc-201.github.io/xiang2023/exp/index1.html?PROLIFIC_PID=REDACTED&STUDY_ID=691f8ca61c6b4dcbb0aeb5f4&SESSION_ID=691fc98bd239912070a2d37b","survey-html-form",36,882437,"0.0-344.0","G5xWq0T2wTQiZKV5zQXrnAtFVf7kE0+xQTgK2Ne7lgEcJN4hZcBApHNYXqf4RNn8zhTv9funSYX3qfIIlWlYvRZmNSyYpTU//2K6hN9jEmRIsV9v5oT2j1sNkx5jpCzRY83c2tfGBl9CjUVk/jclrD85SMhTs02XEdOzzZHlj7/5mlmUdWGhwECZazueM/0PVGdWeo8tFiBCPwMkIupSJHycwgv2WiGkhDHnL+dfHNOTK5nWl3WcQt12Zoopz+0xLKLIHJYbe/wsDSw/spuwiE9PUcOlDtySgV+hbTOVfr27vPVyDg+cCiYa0FlqY0/jddtTmzlvqanGdqaSybgFIA==","691f8ca61c6b4dcbb0aeb5f4","691fc98bd239912070a2d37b","index1","<span style='color:red'>Fail,<span style='color:red'>Fail,<span style='color:green'>Lift,<span style='color:green'>Lift,<span style='color:red'>Fail,<span style='color:red'>Fail,<span style='color:red'>Fail,<span style='color:red'>Fail,<span style='color:red'>Fail,<span style='color:green'>Lift,<span style='color:red'>Fail,<span style='color:green'>Lift","<span style='color:red'>Fail,<span style='color:red'>Fail,<span style='color:green'>Lift,<span style='color:green'>Lift,<span style='color:green'>Lift,<span style='color:green'>Lift,<span style='color:red'>Fail,<span style='color:green'>Lift,<span style='color:green'>Lift,<span style='color:green'>Lift,<span style='color:red'>Fail,<span style='color:green'>Lift","<span style='color:red'>Fail,<span style='color:green'>Lift,<span style='color:green'>Lift,<span style='color:red'>Fail,<span style='color:green'>Lift,<span style='color:green'>Lift","0,0,1,1,0,0,0,0,0,1,0,1","0,0,1,1,1,1,0,1,1,1,0,1","0,1,1,0,1,1",10,20,20,"","","","","{""box1"":""2"",""box2"":""2""}","",NA,5,"round1_outcome",1,5,1,2,2,NA,NA,0,0,10,2,2,NA,NA,0,0,10,NA,NA,NA,NA,NA,NA,NA,NA,NA,NA,NA,NA,NA,NA,NA,NA,NA,NA,NA,NA,NA,NA,"",NA,NA,NA,NA,NA,NA,NA,NA,2025-11-21 02:27:53
"8482.60000000894","https://psyc-201.github.io/xiang2023/exp/index1.html?PROLIFIC_PID=REDACTED&STUDY_ID=691f8ca61c6b4dcbb0aeb5f4&SESSION_ID=691fc98bd239912070a2d37b","survey-html-form",37,890921,"0.0-345.0","G5xWq0T2wTQiZKV5zQXrnAtFVf7kE0+xQTgK2Ne7lgEcJN4hZcBApHNYXqf4RNn8zhTv9funSYX3qfIIlWlYvRZmNSyYpTU//2K6hN9jEmRIsV9v5oT2j1sNkx5jpCzRY83c2tfGBl9CjUVk/jclrD85SMhTs02XEdOzzZHlj7/5mlmUdWGhwECZazueM/0PVGdWeo8tFiBCPwMkIupSJHycwgv2WiGkhDHnL+dfHNOTK5nWl3WcQt12Zoopz+0xLKLIHJYbe/wsDSw/spuwiE9PUcOlDtySgV+hbTOVfr27vPVyDg+cCiYa0FlqY0/jddtTmzlvqanGdqaSybgFIA==","691f8ca61c6b4dcbb0aeb5f4","691fc98bd239912070a2d37b","index1","<span style='color:red'>Fail,<span style='color:red'>Fail,<span style='color:green'>Lift,<span style='color:green'>Lift,<span style='color:red'>Fail,<span style='color:red'>Fail,<span style='color:red'>Fail,<span style='color:red'>Fail,<span style='color:red'>Fail,<span style='color:green'>Lift,<span style='color:red'>Fail,<span style='color:green'>Lift","<span style='color:red'>Fail,<span style='color:red'>Fail,<span style='color:green'>Lift,<span style='color:green'>Lift,<span style='color:green'>Lift,<span style='color:green'>Lift,<span style='color:red'>Fail,<span style='color:green'>Lift,<span style='color:green'>Lift,<span style='color:green'>Lift,<span style='color:red'>Fail,<span style='color:green'>Lift","<span style='color:red'>Fail,<span style='color:green'>Lift,<span style='color:green'>Lift,<span style='color:red'>Fail,<span style='color:green'>Lift,<span style='color:green'>Lift","0,0,1,1,0,0,0,0,0,1,0,1","0,0,1,1,1,1,0,1,1,1,0,1","0,1,1,0,1,1",10,20,20,"","","","","{""box1"":""40"",""box2"":""40""}","",NA,5,"round2_ready",2,5,2,NA,NA,NA,NA,NA,NA,NA,NA,NA,NA,NA,NA,NA,NA,40,40,40,40,NA,NA,NA,NA,NA,NA,NA,NA,NA,NA,NA,NA,NA,NA,NA,NA,NA,NA,"",NA,NA,NA,NA,NA,NA,NA,NA,2025-11-21 02:27:53
"21512.70000000298","https://psyc-201.github.io/xiang2023/exp/index1.html?PROLIFIC_PID=REDACTED&STUDY_ID=691f8ca61c6b4dcbb0aeb5f4&SESSION_ID=691fc98bd239912070a2d37b","survey-html-form",38,912436,"0.0-346.0","G5xWq0T2wTQiZKV5zQXrnAtFVf7kE0+xQTgK2Ne7lgEcJN4hZcBApHNYXqf4RNn8zhTv9funSYX3qfIIlWlYvRZmNSyYpTU//2K6hN9jEmRIsV9v5oT2j1sNkx5jpCzRY83c2tfGBl9CjUVk/jclrD85SMhTs02XEdOzzZHlj7/5mlmUdWGhwECZazueM/0PVGdWeo8tFiBCPwMkIupSJHycwgv2WiGkhDHnL+dfHNOTK5nWl3WcQt12Zoopz+0xLKLIHJYbe/wsDSw/spuwiE9PUcOlDtySgV+hbTOVfr27vPVyDg+cCiYa0FlqY0/jddtTmzlvqanGdqaSybgFIA==","691f8ca61c6b4dcbb0aeb5f4","691fc98bd239912070a2d37b","index1","<span style='color:red'>Fail,<span style='color:red'>Fail,<span style='color:green'>Lift,<span style='color:green'>Lift,<span style='color:red'>Fail,<span style='color:red'>Fail,<span style='color:red'>Fail,<span style='color:red'>Fail,<span style='color:red'>Fail,<span style='color:green'>Lift,<span style='color:red'>Fail,<span style='color:green'>Lift","<span style='color:red'>Fail,<span style='color:red'>Fail,<span style='color:green'>Lift,<span style='color:green'>Lift,<span style='color:green'>Lift,<span style='color:green'>Lift,<span style='color:red'>Fail,<span style='color:green'>Lift,<span style='color:green'>Lift,<span style='color:green'>Lift,<span style='color:red'>Fail,<span style='color:green'>Lift","<span style='color:red'>Fail,<span style='color:green'>Lift,<span style='color:green'>Lift,<span style='color:red'>Fail,<span style='color:green'>Lift,<span style='color:green'>Lift","0,0,1,1,0,0,0,0,0,1,0,1","0,0,1,1,1,1,0,1,1,1,0,1","0,1,1,0,1,1",10,20,20,"","","","","{""box1"":""3"",""box2"":""6"",""box4"":""50""}","",NA,5,"round2_outcome",3,5,2,3,6,NA,50,0,1,20,NA,NA,NA,NA,NA,NA,NA,NA,NA,NA,NA,3,6,NA,50,0,1,20,NA,NA,NA,NA,NA,NA,NA,NA,NA,NA,NA,"",NA,NA,NA,NA,NA,NA,NA,NA,2025-11-21 02:27:53
"28604.40000000596","https://psyc-201.github.io/xiang2023/exp/index1.html?PROLIFIC_PID=REDACTED&STUDY_ID=691f8ca61c6b4dcbb0aeb5f4&SESSION_ID=691fc98bd239912070a2d37b","survey-html-form",39,941042,"0.0-347.0","G5xWq0T2wTQiZKV5zQXrnAtFVf7kE0+xQTgK2Ne7lgEcJN4hZcBApHNYXqf4RNn8zhTv9funSYX3qfIIlWlYvRZmNSyYpTU//2K6hN9jEmRIsV9v5oT2j1sNkx5jpCzRY83c2tfGBl9CjUVk/jclrD85SMhTs02XEdOzzZHlj7/5mlmUdWGhwECZazueM/0PVGdWeo8tFiBCPwMkIupSJHycwgv2WiGkhDHnL+dfHNOTK5nWl3WcQt12Zoopz+0xLKLIHJYbe/wsDSw/spuwiE9PUcOlDtySgV+hbTOVfr27vPVyDg+cCiYa0FlqY0/jddtTmzlvqanGdqaSybgFIA==","691f8ca61c6b4dcbb0aeb5f4","691fc98bd239912070a2d37b","index1","<span style='color:red'>Fail,<span style='color:red'>Fail,<span style='color:green'>Lift,<span style='color:green'>Lift,<span style='color:red'>Fail,<span style='color:red'>Fail,<span style='color:red'>Fail,<span style='color:red'>Fail,<span style='color:red'>Fail,<span style='color:green'>Lift,<span style='color:red'>Fail,<span style='color:green'>Lift","<span style='color:red'>Fail,<span style='color:red'>Fail,<span style='color:green'>Lift,<span style='color:green'>Lift,<span style='color:green'>Lift,<span style='color:green'>Lift,<span style='color:red'>Fail,<span style='color:green'>Lift,<span style='color:green'>Lift,<span style='color:green'>Lift,<span style='color:red'>Fail,<span style='color:green'>Lift","<span style='color:red'>Fail,<span style='color:green'>Lift,<span style='color:green'>Lift,<span style='color:red'>Fail,<span style='color:green'>Lift,<span style='color:green'>Lift","0,0,1,1,0,0,0,0,0,1,0,1","0,0,1,1,1,1,0,1,1,1,0,1","0,1,1,0,1,1",10,20,20,"","","","","{""box1"":""50""}","",NA,5,"round3_ready",4,5,3,NA,NA,NA,NA,NA,NA,NA,NA,NA,NA,NA,NA,NA,NA,50,50,NA,NA,NA,NA,NA,NA,NA,NA,NA,50,50,NA,NA,NA,NA,NA,NA,NA,NA,NA,"",NA,NA,NA,NA,NA,NA,NA,NA,2025-11-21 02:27:53
"21868.79999999702","https://psyc-201.github.io/xiang2023/exp/index1.html?PROLIFIC_PID=REDACTED&STUDY_ID=691f8ca61c6b4dcbb0aeb5f4&SESSION_ID=691fc98bd239912070a2d37b","survey-html-form",40,962912,"0.0-349.0-0.0","G5xWq0T2wTQiZKV5zQXrnAtFVf7kE0+xQTgK2Ne7lgEcJN4hZcBApHNYXqf4RNn8zhTv9funSYX3qfIIlWlYvRZmNSyYpTU//2K6hN9jEmRIsV9v5oT2j1sNkx5jpCzRY83c2tfGBl9CjUVk/jclrD85SMhTs02XEdOzzZHlj7/5mlmUdWGhwECZazueM/0PVGdWeo8tFiBCPwMkIupSJHycwgv2WiGkhDHnL+dfHNOTK5nWl3WcQt12Zoopz+0xLKLIHJYbe/wsDSw/spuwiE9PUcOlDtySgV+hbTOVfr27vPVyDg+cCiYa0FlqY0/jddtTmzlvqanGdqaSybgFIA==","691f8ca61c6b4dcbb0aeb5f4","691fc98bd239912070a2d37b","index1","<span style='color:red'>Fail,<span style='color:red'>Fail,<span style='color:green'>Lift,<span style='color:green'>Lift,<span style='color:red'>Fail,<span style='color:red'>Fail,<span style='color:red'>Fail,<span style='color:red'>Fail,<span style='color:red'>Fail,<span style='color:green'>Lift,<span style='color:red'>Fail,<span style='color:green'>Lift","<span style='color:red'>Fail,<span style='color:red'>Fail,<span style='color:green'>Lift,<span style='color:green'>Lift,<span style='color:green'>Lift,<span style='color:green'>Lift,<span style='color:red'>Fail,<span style='color:green'>Lift,<span style='color:green'>Lift,<span style='color:green'>Lift,<span style='color:red'>Fail,<span style='color:green'>Lift","<span style='color:red'>Fail,<span style='color:green'>Lift,<span style='color:green'>Lift,<span style='color:red'>Fail,<span style='color:green'>Lift,<span style='color:green'>Lift","0,0,1,1,0,0,0,0,0,1,0,1","0,0,1,1,1,1,0,1,1,1,0,1","0,1,1,0,1,1",10,20,20,"","","","","{""box1"":""3"",""box2"":""3"",""box3"":""999"",""box4"":""999""}","",NA,6,"round3_fail",5,5,3,3,3,NA,NA,0,0,20,NA,NA,NA,NA,NA,NA,NA,NA,NA,NA,NA,NA,NA,NA,NA,NA,NA,NA,NA,NA,3,3,NA,NA,0,0,20,1,1,"",NA,NA,NA,NA,NA,NA,NA,NA,2025-11-21 02:27:53
"null","https://psyc-201.github.io/xiang2023/exp/index1.html?PROLIFIC_PID=REDACTED&STUDY_ID=691f8ca61c6b4dcbb0aeb5f4&SESSION_ID=691fc98bd239912070a2d37b","html-keyboard-response",41,965921,"0.0-352.0","G5xWq0T2wTQiZKV5zQXrnAtFVf7kE0+xQTgK2Ne7lgEcJN4hZcBApHNYXqf4RNn8zhTv9funSYX3qfIIlWlYvRZmNSyYpTU//2K6hN9jEmRIsV9v5oT2j1sNkx5jpCzRY83c2tfGBl9CjUVk/jclrD85SMhTs02XEdOzzZHlj7/5mlmUdWGhwECZazueM/0PVGdWeo8tFiBCPwMkIupSJHycwgv2WiGkhDHnL+dfHNOTK5nWl3WcQt12Zoopz+0xLKLIHJYbe/wsDSw/spuwiE9PUcOlDtySgV+hbTOVfr27vPVyDg+cCiYa0FlqY0/jddtTmzlvqanGdqaSybgFIA==","691f8ca61c6b4dcbb0aeb5f4","691fc98bd239912070a2d37b","index1","<span style='color:red'>Fail,<span style='color:red'>Fail,<span style='color:green'>Lift,<span style='color:green'>Lift,<span style='color:red'>Fail,<span style='color:red'>Fail,<span style='color:red'>Fail,<span style='color:red'>Fail,<span style='color:red'>Fail,<span style='color:green'>Lift,<span style='color:red'>Fail,<span style='color:green'>Lift","<span style='color:red'>Fail,<span style='color:red'>Fail,<span style='color:green'>Lift,<span style='color:green'>Lift,<span style='color:green'>Lift,<span style='color:green'>Lift,<span style='color:red'>Fail,<span style='color:green'>Lift,<span style='color:green'>Lift,<span style='color:green'>Lift,<span style='color:red'>Fail,<span style='color:green'>Lift","<span style='color:red'>Fail,<span style='color:green'>Lift,<span style='color:green'>Lift,<span style='color:red'>Fail,<span style='color:green'>Lift,<span style='color:green'>Lift","0,0,1,1,0,0,0,0,0,1,0,1","0,0,1,1,1,1,0,1,1,1,0,1","0,1,1,0,1,1",10,20,20,"","","<p style='font-size:30px'><b> New Contest! </b></p>","null","","",NA,6,"",NA,NA,NA,NA,NA,NA,NA,NA,NA,NA,NA,NA,NA,NA,NA,NA,NA,NA,NA,NA,NA,NA,NA,NA,NA,NA,NA,NA,NA,NA,NA,NA,NA,NA,NA,NA,NA,NA,NA,"",NA,NA,NA,NA,NA,NA,NA,NA,2025-11-21 02:27:53
"14858","https://psyc-201.github.io/xiang2023/exp/index1.html?PROLIFIC_PID=REDACTED&STUDY_ID=691f8ca61c6b4dcbb0aeb5f4&SESSION_ID=691fc98bd239912070a2d37b","survey-html-form",42,980781,"0.0-353.0","G5xWq0T2wTQiZKV5zQXrnAtFVf7kE0+xQTgK2Ne7lgEcJN4hZcBApHNYXqf4RNn8zhTv9funSYX3qfIIlWlYvRZmNSyYpTU//2K6hN9jEmRIsV9v5oT2j1sNkx5jpCzRY83c2tfGBl9CjUVk/jclrD85SMhTs02XEdOzzZHlj7/5mlmUdWGhwECZazueM/0PVGdWeo8tFiBCPwMkIupSJHycwgv2WiGkhDHnL+dfHNOTK5nWl3WcQt12Zoopz+0xLKLIHJYbe/wsDSw/spuwiE9PUcOlDtySgV+hbTOVfr27vPVyDg+cCiYa0FlqY0/jddtTmzlvqanGdqaSybgFIA==","691f8ca61c6b4dcbb0aeb5f4","691fc98bd239912070a2d37b","index1","<span style='color:red'>Fail,<span style='color:red'>Fail,<span style='color:green'>Lift,<span style='color:green'>Lift,<span style='color:red'>Fail,<span style='color:red'>Fail,<span style='color:red'>Fail,<span style='color:red'>Fail,<span style='color:red'>Fail,<span style='color:green'>Lift,<span style='color:red'>Fail,<span style='color:green'>Lift","<span style='color:red'>Fail,<span style='color:red'>Fail,<span style='color:green'>Lift,<span style='color:green'>Lift,<span style='color:green'>Lift,<span style='color:green'>Lift,<span style='color:red'>Fail,<span style='color:green'>Lift,<span style='color:green'>Lift,<span style='color:green'>Lift,<span style='color:red'>Fail,<span style='color:green'>Lift","<span style='color:red'>Fail,<span style='color:green'>Lift,<span style='color:green'>Lift,<span style='color:red'>Fail,<span style='color:green'>Lift,<span style='color:green'>Lift","0,0,1,1,0,0,0,0,0,1,0,1","0,0,1,1,1,1,0,1,1,1,0,1","0,1,1,0,1,1",10,20,20,"","","","","{""box1"":""5"",""box2"":""5"",""box3"":""50"",""box4"":""50""}","",NA,6,"round1_outcome",1,6,1,5,5,50,50,1,1,10,5,5,50,50,1,1,10,NA,NA,NA,NA,NA,NA,NA,NA,NA,NA,NA,NA,NA,NA,NA,NA,NA,NA,NA,NA,NA,NA,"",NA,NA,NA,NA,NA,NA,NA,NA,2025-11-21 02:27:53
"24766.5","https://psyc-201.github.io/xiang2023/exp/index1.html?PROLIFIC_PID=REDACTED&STUDY_ID=691f8ca61c6b4dcbb0aeb5f4&SESSION_ID=691fc98bd239912070a2d37b","survey-html-form",43,1005548,"0.0-354.0","G5xWq0T2wTQiZKV5zQXrnAtFVf7kE0+xQTgK2Ne7lgEcJN4hZcBApHNYXqf4RNn8zhTv9funSYX3qfIIlWlYvRZmNSyYpTU//2K6hN9jEmRIsV9v5oT2j1sNkx5jpCzRY83c2tfGBl9CjUVk/jclrD85SMhTs02XEdOzzZHlj7/5mlmUdWGhwECZazueM/0PVGdWeo8tFiBCPwMkIupSJHycwgv2WiGkhDHnL+dfHNOTK5nWl3WcQt12Zoopz+0xLKLIHJYbe/wsDSw/spuwiE9PUcOlDtySgV+hbTOVfr27vPVyDg+cCiYa0FlqY0/jddtTmzlvqanGdqaSybgFIA==","691f8ca61c6b4dcbb0aeb5f4","691fc98bd239912070a2d37b","index1","<span style='color:red'>Fail,<span style='color:red'>Fail,<span style='color:green'>Lift,<span style='color:green'>Lift,<span style='color:red'>Fail,<span style='color:red'>Fail,<span style='color:red'>Fail,<span style='color:red'>Fail,<span style='color:red'>Fail,<span style='color:green'>Lift,<span style='color:red'>Fail,<span style='color:green'>Lift","<span style='color:red'>Fail,<span style='color:red'>Fail,<span style='color:green'>Lift,<span style='color:green'>Lift,<span style='color:green'>Lift,<span style='color:green'>Lift,<span style='color:red'>Fail,<span style='color:green'>Lift,<span style='color:green'>Lift,<span style='color:green'>Lift,<span style='color:red'>Fail,<span style='color:green'>Lift","<span style='color:red'>Fail,<span style='color:green'>Lift,<span style='color:green'>Lift,<span style='color:red'>Fail,<span style='color:green'>Lift,<span style='color:green'>Lift","0,0,1,1,0,0,0,0,0,1,0,1","0,0,1,1,1,1,0,1,1,1,0,1","0,1,1,0,1,1",10,20,20,"","","","","{""box1"":""60"",""box2"":""60""}","",NA,6,"round2_ready",2,6,2,NA,NA,NA,NA,NA,NA,NA,NA,NA,NA,NA,NA,NA,NA,60,60,60,60,NA,NA,NA,NA,NA,NA,NA,NA,NA,NA,NA,NA,NA,NA,NA,NA,NA,NA,"",NA,NA,NA,NA,NA,NA,NA,NA,2025-11-21 02:27:53
"18038.70000000298","https://psyc-201.github.io/xiang2023/exp/index1.html?PROLIFIC_PID=REDACTED&STUDY_ID=691f8ca61c6b4dcbb0aeb5f4&SESSION_ID=691fc98bd239912070a2d37b","survey-html-form",44,1023589,"0.0-355.0","G5xWq0T2wTQiZKV5zQXrnAtFVf7kE0+xQTgK2Ne7lgEcJN4hZcBApHNYXqf4RNn8zhTv9funSYX3qfIIlWlYvRZmNSyYpTU//2K6hN9jEmRIsV9v5oT2j1sNkx5jpCzRY83c2tfGBl9CjUVk/jclrD85SMhTs02XEdOzzZHlj7/5mlmUdWGhwECZazueM/0PVGdWeo8tFiBCPwMkIupSJHycwgv2WiGkhDHnL+dfHNOTK5nWl3WcQt12Zoopz+0xLKLIHJYbe/wsDSw/spuwiE9PUcOlDtySgV+hbTOVfr27vPVyDg+cCiYa0FlqY0/jddtTmzlvqanGdqaSybgFIA==","691f8ca61c6b4dcbb0aeb5f4","691fc98bd239912070a2d37b","index1","<span style='color:red'>Fail,<span style='color:red'>Fail,<span style='color:green'>Lift,<span style='color:green'>Lift,<span style='color:red'>Fail,<span style='color:red'>Fail,<span style='color:red'>Fail,<span style='color:red'>Fail,<span style='color:red'>Fail,<span style='color:green'>Lift,<span style='color:red'>Fail,<span style='color:green'>Lift","<span style='color:red'>Fail,<span style='color:red'>Fail,<span style='color:green'>Lift,<span style='color:green'>Lift,<span style='color:green'>Lift,<span style='color:green'>Lift,<span style='color:red'>Fail,<span style='color:green'>Lift,<span style='color:green'>Lift,<span style='color:green'>Lift,<span style='color:red'>Fail,<span style='color:green'>Lift","<span style='color:red'>Fail,<span style='color:green'>Lift,<span style='color:green'>Lift,<span style='color:red'>Fail,<span style='color:green'>Lift,<span style='color:green'>Lift","0,0,1,1,0,0,0,0,0,1,0,1","0,0,1,1,1,1,0,1,1,1,0,1","0,1,1,0,1,1",10,20,20,"","","","","{""box1"":""7"",""box2"":""7"",""box3"":""80"",""box4"":""80""}","",NA,6,"round2_outcome",3,6,2,7,7,80,80,1,1,20,NA,NA,NA,NA,NA,NA,NA,NA,NA,NA,NA,7,7,80,80,1,1,20,NA,NA,NA,NA,NA,NA,NA,NA,NA,NA,NA,"",NA,NA,NA,NA,NA,NA,NA,NA,2025-11-21 02:27:53
"6952.600000008941","https://psyc-201.github.io/xiang2023/exp/index1.html?PROLIFIC_PID=REDACTED&STUDY_ID=691f8ca61c6b4dcbb0aeb5f4&SESSION_ID=691fc98bd239912070a2d37b","survey-html-form",45,1030543,"0.0-356.0","G5xWq0T2wTQiZKV5zQXrnAtFVf7kE0+xQTgK2Ne7lgEcJN4hZcBApHNYXqf4RNn8zhTv9funSYX3qfIIlWlYvRZmNSyYpTU//2K6hN9jEmRIsV9v5oT2j1sNkx5jpCzRY83c2tfGBl9CjUVk/jclrD85SMhTs02XEdOzzZHlj7/5mlmUdWGhwECZazueM/0PVGdWeo8tFiBCPwMkIupSJHycwgv2WiGkhDHnL+dfHNOTK5nWl3WcQt12Zoopz+0xLKLIHJYbe/wsDSw/spuwiE9PUcOlDtySgV+hbTOVfr27vPVyDg+cCiYa0FlqY0/jddtTmzlvqanGdqaSybgFIA==","691f8ca61c6b4dcbb0aeb5f4","691fc98bd239912070a2d37b","index1","<span style='color:red'>Fail,<span style='color:red'>Fail,<span style='color:green'>Lift,<span style='color:green'>Lift,<span style='color:red'>Fail,<span style='color:red'>Fail,<span style='color:red'>Fail,<span style='color:red'>Fail,<span style='color:red'>Fail,<span style='color:green'>Lift,<span style='color:red'>Fail,<span style='color:green'>Lift","<span style='color:red'>Fail,<span style='color:red'>Fail,<span style='color:green'>Lift,<span style='color:green'>Lift,<span style='color:green'>Lift,<span style='color:green'>Lift,<span style='color:red'>Fail,<span style='color:green'>Lift,<span style='color:green'>Lift,<span style='color:green'>Lift,<span style='color:red'>Fail,<span style='color:green'>Lift","<span style='color:red'>Fail,<span style='color:green'>Lift,<span style='color:green'>Lift,<span style='color:red'>Fail,<span style='color:green'>Lift,<span style='color:green'>Lift","0,0,1,1,0,0,0,0,0,1,0,1","0,0,1,1,1,1,0,1,1,1,0,1","0,1,1,0,1,1",10,20,20,"","","","","{""box1"":""99""}","",NA,6,"round3_ready",4,6,3,NA,NA,NA,NA,NA,NA,NA,NA,NA,NA,NA,NA,NA,NA,99,99,NA,NA,NA,NA,NA,NA,NA,NA,NA,99,99,NA,NA,NA,NA,NA,NA,NA,NA,NA,"",NA,NA,NA,NA,NA,NA,NA,NA,2025-11-21 02:27:53
"22166.90000000596","https://psyc-201.github.io/xiang2023/exp/index1.html?PROLIFIC_PID=REDACTED&STUDY_ID=691f8ca61c6b4dcbb0aeb5f4&SESSION_ID=691fc98bd239912070a2d37b","survey-html-form",46,1052711,"0.0-357.0-0.0","G5xWq0T2wTQiZKV5zQXrnAtFVf7kE0+xQTgK2Ne7lgEcJN4hZcBApHNYXqf4RNn8zhTv9funSYX3qfIIlWlYvRZmNSyYpTU//2K6hN9jEmRIsV9v5oT2j1sNkx5jpCzRY83c2tfGBl9CjUVk/jclrD85SMhTs02XEdOzzZHlj7/5mlmUdWGhwECZazueM/0PVGdWeo8tFiBCPwMkIupSJHycwgv2WiGkhDHnL+dfHNOTK5nWl3WcQt12Zoopz+0xLKLIHJYbe/wsDSw/spuwiE9PUcOlDtySgV+hbTOVfr27vPVyDg+cCiYa0FlqY0/jddtTmzlvqanGdqaSybgFIA==","691f8ca61c6b4dcbb0aeb5f4","691fc98bd239912070a2d37b","index1","<span style='color:red'>Fail,<span style='color:red'>Fail,<span style='color:green'>Lift,<span style='color:green'>Lift,<span style='color:red'>Fail,<span style='color:red'>Fail,<span style='color:red'>Fail,<span style='color:red'>Fail,<span style='color:red'>Fail,<span style='color:green'>Lift,<span style='color:red'>Fail,<span style='color:green'>Lift","<span style='color:red'>Fail,<span style='color:red'>Fail,<span style='color:green'>Lift,<span style='color:green'>Lift,<span style='color:green'>Lift,<span style='color:green'>Lift,<span style='color:red'>Fail,<span style='color:green'>Lift,<span style='color:green'>Lift,<span style='color:green'>Lift,<span style='color:red'>Fail,<span style='color:green'>Lift","<span style='color:red'>Fail,<span style='color:green'>Lift,<span style='color:green'>Lift,<span style='color:red'>Fail,<span style='color:green'>Lift,<span style='color:green'>Lift","0,0,1,1,0,0,0,0,0,1,0,1","0,0,1,1,1,1,0,1,1,1,0,1","0,1,1,0,1,1",10,20,20,"","","","","{""box1"":""8"",""box2"":""8"",""box3"":""80"",""box4"":""80""}","",NA,6,"round3_lift",5,6,3,8,8,80,80,1,1,20,NA,NA,NA,NA,NA,NA,NA,NA,NA,NA,NA,NA,NA,NA,NA,NA,NA,NA,NA,NA,8,8,80,80,1,1,20,NA,NA,"",NA,NA,NA,NA,NA,NA,NA,NA,2025-11-21 02:27:53
"42941.90000000596","https://psyc-201.github.io/xiang2023/exp/index1.html?PROLIFIC_PID=REDACTED&STUDY_ID=691f8ca61c6b4dcbb0aeb5f4&SESSION_ID=691fc98bd239912070a2d37b","survey-text",47,1095656,"0.0-361.0","G5xWq0T2wTQiZKV5zQXrnAtFVf7kE0+xQTgK2Ne7lgEcJN4hZcBApHNYXqf4RNn8zhTv9funSYX3qfIIlWlYvRZmNSyYpTU//2K6hN9jEmRIsV9v5oT2j1sNkx5jpCzRY83c2tfGBl9CjUVk/jclrD85SMhTs02XEdOzzZHlj7/5mlmUdWGhwECZazueM/0PVGdWeo8tFiBCPwMkIupSJHycwgv2WiGkhDHnL+dfHNOTK5nWl3WcQt12Zoopz+0xLKLIHJYbe/wsDSw/spuwiE9PUcOlDtySgV+hbTOVfr27vPVyDg+cCiYa0FlqY0/jddtTmzlvqanGdqaSybgFIA==","691f8ca61c6b4dcbb0aeb5f4","691fc98bd239912070a2d37b","index1","<span style='color:red'>Fail,<span style='color:red'>Fail,<span style='color:green'>Lift,<span style='color:green'>Lift,<span style='color:red'>Fail,<span style='color:red'>Fail,<span style='color:red'>Fail,<span style='color:red'>Fail,<span style='color:red'>Fail,<span style='color:green'>Lift,<span style='color:red'>Fail,<span style='color:green'>Lift","<span style='color:red'>Fail,<span style='color:red'>Fail,<span style='color:green'>Lift,<span style='color:green'>Lift,<span style='color:green'>Lift,<span style='color:green'>Lift,<span style='color:red'>Fail,<span style='color:green'>Lift,<span style='color:green'>Lift,<span style='color:green'>Lift,<span style='color:red'>Fail,<span style='color:green'>Lift","<span style='color:red'>Fail,<span style='color:green'>Lift,<span style='color:green'>Lift,<span style='color:red'>Fail,<span style='color:green'>Lift,<span style='color:green'>Lift","0,0,1,1,0,0,0,0,0,1,0,1","0,0,1,1,1,1,0,1,1,1,0,1","0,1,1,0,1,1",10,20,20,"","","","","{""Q0"":""Predicting which contestants would be able to lift the box and making predictions if they would be able to lift them together""}","",NA,NA,"",NA,NA,NA,NA,NA,NA,NA,NA,NA,NA,NA,NA,NA,NA,NA,NA,NA,NA,NA,NA,NA,NA,NA,NA,NA,NA,NA,NA,NA,NA,NA,NA,NA,NA,NA,NA,NA,NA,NA,"",NA,NA,NA,NA,NA,NA,NA,NA,2025-11-21 02:27:53
"7623.4000000059605","https://psyc-201.github.io/xiang2023/exp/index1.html?PROLIFIC_PID=REDACTED&STUDY_ID=691f8ca61c6b4dcbb0aeb5f4&SESSION_ID=691fc98bd239912070a2d37b","survey-text",48,1103281,"0.0-362.0","G5xWq0T2wTQiZKV5zQXrnAtFVf7kE0+xQTgK2Ne7lgEcJN4hZcBApHNYXqf4RNn8zhTv9funSYX3qfIIlWlYvRZmNSyYpTU//2K6hN9jEmRIsV9v5oT2j1sNkx5jpCzRY83c2tfGBl9CjUVk/jclrD85SMhTs02XEdOzzZHlj7/5mlmUdWGhwECZazueM/0PVGdWeo8tFiBCPwMkIupSJHycwgv2WiGkhDHnL+dfHNOTK5nWl3WcQt12Zoopz+0xLKLIHJYbe/wsDSw/spuwiE9PUcOlDtySgV+hbTOVfr27vPVyDg+cCiYa0FlqY0/jddtTmzlvqanGdqaSybgFIA==","691f8ca61c6b4dcbb0aeb5f4","691fc98bd239912070a2d37b","index1","<span style='color:red'>Fail,<span style='color:red'>Fail,<span style='color:green'>Lift,<span style='color:green'>Lift,<span style='color:red'>Fail,<span style='color:red'>Fail,<span style='color:red'>Fail,<span style='color:red'>Fail,<span style='color:red'>Fail,<span style='color:green'>Lift,<span style='color:red'>Fail,<span style='color:green'>Lift","<span style='color:red'>Fail,<span style='color:red'>Fail,<span style='color:green'>Lift,<span style='color:green'>Lift,<span style='color:green'>Lift,<span style='color:green'>Lift,<span style='color:red'>Fail,<span style='color:green'>Lift,<span style='color:green'>Lift,<span style='color:green'>Lift,<span style='color:red'>Fail,<span style='color:green'>Lift","<span style='color:red'>Fail,<span style='color:green'>Lift,<span style='color:green'>Lift,<span style='color:red'>Fail,<span style='color:green'>Lift,<span style='color:green'>Lift","0,0,1,1,0,0,0,0,0,1,0,1","0,0,1,1,1,1,0,1,1,1,0,1","0,1,1,0,1,1",10,20,20,"","","","","{""Q0"":""none""}","",NA,NA,"",NA,NA,NA,NA,NA,NA,NA,NA,NA,NA,NA,NA,NA,NA,NA,NA,NA,NA,NA,NA,NA,NA,NA,NA,NA,NA,NA,NA,NA,NA,NA,NA,NA,NA,NA,NA,NA,NA,NA,"[{""event"":""fullscreenenter"",""trial"":1,""time"":6033}]",6,3,NA,99,1,0.99,NA,NA,2025-11-21 02:27:53
"7089","https://psyc-201.github.io/xiang2023/exp/index1.html?PROLIFIC_PID=REDACTED&STUDY_ID=691f8ca61c6b4dcbb0aeb5f4&SESSION_ID=691fc98bd239912070a2d37b","html-button-response",49,1110371,"0.0-363.0","G5xWq0T2wTQiZKV5zQXrnAtFVf7kE0+xQTgK2Ne7lgEcJN4hZcBApHNYXqf4RNn8zhTv9funSYX3qfIIlWlYvRZmNSyYpTU//2K6hN9jEmRIsV9v5oT2j1sNkx5jpCzRY83c2tfGBl9CjUVk/jclrD85SMhTs02XEdOzzZHlj7/5mlmUdWGhwECZazueM/0PVGdWeo8tFiBCPwMkIupSJHycwgv2WiGkhDHnL+dfHNOTK5nWl3WcQt12Zoopz+0xLKLIHJYbe/wsDSw/spuwiE9PUcOlDtySgV+hbTOVfr27vPVyDg+cCiYa0FlqY0/jddtTmzlvqanGdqaSybgFIA==","691f8ca61c6b4dcbb0aeb5f4","691fc98bd239912070a2d37b","index1","<span style='color:red'>Fail,<span style='color:red'>Fail,<span style='color:green'>Lift,<span style='color:green'>Lift,<span style='color:red'>Fail,<span style='color:red'>Fail,<span style='color:red'>Fail,<span style='color:red'>Fail,<span style='color:red'>Fail,<span style='color:green'>Lift,<span style='color:red'>Fail,<span style='color:green'>Lift","<span style='color:red'>Fail,<span style='color:red'>Fail,<span style='color:green'>Lift,<span style='color:green'>Lift,<span style='color:green'>Lift,<span style='color:green'>Lift,<span style='color:red'>Fail,<span style='color:green'>Lift,<span style='color:green'>Lift,<span style='color:green'>Lift,<span style='color:red'>Fail,<span style='color:green'>Lift","<span style='color:red'>Fail,<span style='color:green'>Lift,<span style='color:green'>Lift,<span style='color:red'>Fail,<span style='color:green'>Lift,<span style='color:green'>Lift","0,0,1,1,0,0,0,0,0,1,0,1","0,0,1,1,1,1,0,1,1,1,0,1","0,1,1,0,1,1",10,20,20,"","","<p> We randomly picked <b>Contest 6, Round 3</b> to calculate your bonus. </p><p> The outcome of Contestant K and L on that round is <span style='color:green'>Lift</span>. </p><p> The probability you entered was 99. </p><p><b> You won a bonus of $0.99!</b></p><p> IMPORTANT: Please click 'Next' to complete the game. </p>","","","",0,NA,"",NA,NA,NA,NA,NA,NA,NA,NA,NA,NA,NA,NA,NA,NA,NA,NA,NA,NA,NA,NA,NA,NA,NA,NA,NA,NA,NA,NA,NA,NA,NA,NA,NA,NA,NA,NA,NA,NA,NA,"",NA,NA,NA,NA,NA,NA,2,1,2025-11-21 02:27:53
