"rt","url","trial_type","trial_index","time_elapsed","internal_node_id","encryptedProlificId","studyId","sessionId","expIndex","round1_outcomes","round2_outcomes","round3_outcomes","round1_o","round2_o","round3_o","round1_reward","round2_reward","round3_reward","success","view_history","stimulus","key_press","responses","question_order","button_pressed","j","Stage","stage","contest","round","strength_a","strength_b","effort_a","effort_b","outcome_a","outcome_b","reward","r1_strength_a","r1_strength_b","r1_effort_a","r1_effort_b","r1_outcome_a","r1_outcome_b","r1_reward","probability_a","probability_b","r2_prob_a","r2_prob_b","r2_strength_a","r2_strength_b","r2_effort_a","r2_effort_b","r2_outcome_a","r2_outcome_b","r2_reward","r3_prob_a","r3_prob_b","attention_check","count","r3_strength_a","r3_strength_b","r3_outcome_a","r3_outcome_b","r3_reward","r3_effort_a","r3_effort_b","already","screen","pick_contest","pick_round","pick_side","trial_probability","trial_outcome","bonus","attention_sum","attention","datapipe_meta.attributes.date_modified"
"6297.89999999851","https://psyc-201.github.io/xiang2023/exp/index1.html?PROLIFIC_PID=REDACTED&STUDY_ID=691f8ca61c6b4dcbb0aeb5f4&SESSION_ID=691fb5b1503a22c9c1904fa8","external-html",0,6427,"0.0-0.0","adjh18wI5oAu2EHZFFW1ewV0NTdHhaRMAy5hneuZq0OILJyXjpR/0AOhJ5VqzJtOAmkbjHUEM+G7wJmP/DQSaitW3Jd/DdPDv8GrmTtF3gsC+vKP2R+xzW+Ql2oa7Ws4IVxGLQrH/Fpb0hhLtBsSlai4U0aqbhkBABxi/Pm1Tp/QuEoFJW65vvc2UvWecPqPSMGPiEHHHZZ2q/OFjwDl/zASWyXz6h5fd7eF3V4LoNTIVfEmfxwF9gIIJA69A8bwXvYy/Y3g8j9sz6PKzLBO0Fz778WGhQYaG29AIsH4wf8xHWRP6/vKsfWv/p3Vs5t6zrm5Xo8Q2eJ4Kd3gBl2chg==","691f8ca61c6b4dcbb0aeb5f4","691fb5b1503a22c9c1904fa8","index1","<span style='color:red'>Fail,<span style='color:red'>Fail,<span style='color:green'>Lift,<span style='color:green'>Lift,<span style='color:red'>Fail,<span style='color:red'>Fail,<span style='color:red'>Fail,<span style='color:red'>Fail,<span style='color:red'>Fail,<span style='color:green'>Lift,<span style='color:red'>Fail,<span style='color:green'>Lift","<span style='color:red'>Fail,<span style='color:red'>Fail,<span style='color:green'>Lift,<span style='color:green'>Lift,<span style='color:green'>Lift,<span style='color:green'>Lift,<span style='color:green'>Lift,<span style='color:red'>Fail,<span style='color:green'>Lift,<span style='color:green'>Lift,<span style='color:red'>Fail,<span style='color:green'>Lift","<span style='color:red'>Fail,<span style='color:green'>Lift,<span style='color:green'>Lift,<span style='color:red'>Fail,<span style='color:green'>Lift,<span style='color:green'>Lift","0,0,1,1,0,0,0,0,0,1,0,1","0,0,1,1,1,1,1,0,1,1,0,1","0,1,1,0,1,1",10,20,20,"","","","","","",NA,NA,"",NA,NA,NA,NA,NA,NA,NA,NA,NA,NA,NA,NA,NA,NA,NA,NA,NA,NA,NA,NA,NA,NA,NA,NA,NA,NA,NA,NA,NA,NA,NA,NA,NA,NA,NA,NA,NA,NA,NA,NA,"",NA,NA,NA,NA,NA,NA,NA,NA,2025-11-21 01:03:17
"","https://psyc-201.github.io/xiang2023/exp/index1.html?PROLIFIC_PID=REDACTED&STUDY_ID=691f8ca61c6b4dcbb0aeb5f4&SESSION_ID=691fb5b1503a22c9c1904fa8","fullscreen",1,8954,"0.0-1.0","adjh18wI5oAu2EHZFFW1ewV0NTdHhaRMAy5hneuZq0OILJyXjpR/0AOhJ5VqzJtOAmkbjHUEM+G7wJmP/DQSaitW3Jd/DdPDv8GrmTtF3gsC+vKP2R+xzW+Ql2oa7Ws4IVxGLQrH/Fpb0hhLtBsSlai4U0aqbhkBABxi/Pm1Tp/QuEoFJW65vvc2UvWecPqPSMGPiEHHHZZ2q/OFjwDl/zASWyXz6h5fd7eF3V4LoNTIVfEmfxwF9gIIJA69A8bwXvYy/Y3g8j9sz6PKzLBO0Fz778WGhQYaG29AIsH4wf8xHWRP6/vKsfWv/p3Vs5t6zrm5Xo8Q2eJ4Kd3gBl2chg==","691f8ca61c6b4dcbb0aeb5f4","691fb5b1503a22c9c1904fa8","index1","<span style='color:red'>Fail,<span style='color:red'>Fail,<span style='color:green'>Lift,<span style='color:green'>Lift,<span style='color:red'>Fail,<span style='color:red'>Fail,<span style='color:red'>Fail,<span style='color:red'>Fail,<span style='color:red'>Fail,<span style='color:green'>Lift,<span style='color:red'>Fail,<span style='color:green'>Lift","<span style='color:red'>Fail,<span style='color:red'>Fail,<span style='color:green'>Lift,<span style='color:green'>Lift,<span style='color:green'>Lift,<span style='color:green'>Lift,<span style='color:green'>Lift,<span style='color:red'>Fail,<span style='color:green'>Lift,<span style='color:green'>Lift,<span style='color:red'>Fail,<span style='color:green'>Lift","<span style='color:red'>Fail,<span style='color:green'>Lift,<span style='color:green'>Lift,<span style='color:red'>Fail,<span style='color:green'>Lift,<span style='color:green'>Lift","0,0,1,1,0,0,0,0,0,1,0,1","0,0,1,1,1,1,1,0,1,1,0,1","0,1,1,0,1,1",10,20,20,"true","","","","","",NA,NA,"",NA,NA,NA,NA,NA,NA,NA,NA,NA,NA,NA,NA,NA,NA,NA,NA,NA,NA,NA,NA,NA,NA,NA,NA,NA,NA,NA,NA,NA,NA,NA,NA,NA,NA,NA,NA,NA,NA,NA,NA,"",NA,NA,NA,NA,NA,NA,NA,NA,2025-11-21 01:03:17
"156471.69999999925","https://psyc-201.github.io/xiang2023/exp/index1.html?PROLIFIC_PID=REDACTED&STUDY_ID=691f8ca61c6b4dcbb0aeb5f4&SESSION_ID=691fb5b1503a22c9c1904fa8","instructions",2,165424,"0.0-2.0","adjh18wI5oAu2EHZFFW1ewV0NTdHhaRMAy5hneuZq0OILJyXjpR/0AOhJ5VqzJtOAmkbjHUEM+G7wJmP/DQSaitW3Jd/DdPDv8GrmTtF3gsC+vKP2R+xzW+Ql2oa7Ws4IVxGLQrH/Fpb0hhLtBsSlai4U0aqbhkBABxi/Pm1Tp/QuEoFJW65vvc2UvWecPqPSMGPiEHHHZZ2q/OFjwDl/zASWyXz6h5fd7eF3V4LoNTIVfEmfxwF9gIIJA69A8bwXvYy/Y3g8j9sz6PKzLBO0Fz778WGhQYaG29AIsH4wf8xHWRP6/vKsfWv/p3Vs5t6zrm5Xo8Q2eJ4Kd3gBl2chg==","691f8ca61c6b4dcbb0aeb5f4","691fb5b1503a22c9c1904fa8","index1","<span style='color:red'>Fail,<span style='color:red'>Fail,<span style='color:green'>Lift,<span style='color:green'>Lift,<span style='color:red'>Fail,<span style='color:red'>Fail,<span style='color:red'>Fail,<span style='color:red'>Fail,<span style='color:red'>Fail,<span style='color:green'>Lift,<span style='color:red'>Fail,<span style='color:green'>Lift","<span style='color:red'>Fail,<span style='color:red'>Fail,<span style='color:green'>Lift,<span style='color:green'>Lift,<span style='color:green'>Lift,<span style='color:green'>Lift,<span style='color:green'>Lift,<span style='color:red'>Fail,<span style='color:green'>Lift,<span style='color:green'>Lift,<span style='color:red'>Fail,<span style='color:green'>Lift","<span style='color:red'>Fail,<span style='color:green'>Lift,<span style='color:green'>Lift,<span style='color:red'>Fail,<span style='color:green'>Lift,<span style='color:green'>Lift","0,0,1,1,0,0,0,0,0,1,0,1","0,0,1,1,1,1,1,0,1,1,0,1","0,1,1,0,1,1",10,20,20,"","[{""page_index"":0,""viewing_time"":28750.5},{""page_index"":1,""viewing_time"":30910.900000002235},{""page_index"":2,""viewing_time"":18608.29999999702},{""page_index"":3,""viewing_time"":28994.300000000745},{""page_index"":4,""viewing_time"":11567.199999999255},{""page_index"":5,""viewing_time"":28260},{""page_index"":6,""viewing_time"":9380.20000000298}]","","","","",NA,NA,"",NA,NA,NA,NA,NA,NA,NA,NA,NA,NA,NA,NA,NA,NA,NA,NA,NA,NA,NA,NA,NA,NA,NA,NA,NA,NA,NA,NA,NA,NA,NA,NA,NA,NA,NA,NA,NA,NA,NA,NA,"",NA,NA,NA,NA,NA,NA,NA,NA,2025-11-21 01:03:17
"null","https://psyc-201.github.io/xiang2023/exp/index1.html?PROLIFIC_PID=REDACTED&STUDY_ID=691f8ca61c6b4dcbb0aeb5f4&SESSION_ID=691fb5b1503a22c9c1904fa8","html-keyboard-response",3,166432,"0.0-3.0","adjh18wI5oAu2EHZFFW1ewV0NTdHhaRMAy5hneuZq0OILJyXjpR/0AOhJ5VqzJtOAmkbjHUEM+G7wJmP/DQSaitW3Jd/DdPDv8GrmTtF3gsC+vKP2R+xzW+Ql2oa7Ws4IVxGLQrH/Fpb0hhLtBsSlai4U0aqbhkBABxi/Pm1Tp/QuEoFJW65vvc2UvWecPqPSMGPiEHHHZZ2q/OFjwDl/zASWyXz6h5fd7eF3V4LoNTIVfEmfxwF9gIIJA69A8bwXvYy/Y3g8j9sz6PKzLBO0Fz778WGhQYaG29AIsH4wf8xHWRP6/vKsfWv/p3Vs5t6zrm5Xo8Q2eJ4Kd3gBl2chg==","691f8ca61c6b4dcbb0aeb5f4","691fb5b1503a22c9c1904fa8","index1","<span style='color:red'>Fail,<span style='color:red'>Fail,<span style='color:green'>Lift,<span style='color:green'>Lift,<span style='color:red'>Fail,<span style='color:red'>Fail,<span style='color:red'>Fail,<span style='color:red'>Fail,<span style='color:red'>Fail,<span style='color:green'>Lift,<span style='color:red'>Fail,<span style='color:green'>Lift","<span style='color:red'>Fail,<span style='color:red'>Fail,<span style='color:green'>Lift,<span style='color:green'>Lift,<span style='color:green'>Lift,<span style='color:green'>Lift,<span style='color:green'>Lift,<span style='color:red'>Fail,<span style='color:green'>Lift,<span style='color:green'>Lift,<span style='color:red'>Fail,<span style='color:green'>Lift","<span style='color:red'>Fail,<span style='color:green'>Lift,<span style='color:green'>Lift,<span style='color:red'>Fail,<span style='color:green'>Lift,<span style='color:green'>Lift","0,0,1,1,0,0,0,0,0,1,0,1","0,0,1,1,1,1,1,0,1,1,0,1","0,1,1,0,1,1",10,20,20,"",""," ","null","","",NA,NA,"",NA,NA,NA,NA,NA,NA,NA,NA,NA,NA,NA,NA,NA,NA,NA,NA,NA,NA,NA,NA,NA,NA,NA,NA,NA,NA,NA,NA,NA,NA,NA,NA,NA,NA,NA,NA,NA,NA,NA,NA,"",NA,NA,NA,NA,NA,NA,NA,NA,2025-11-21 01:03:17
"80200.89999999851","https://psyc-201.github.io/xiang2023/exp/index1.html?PROLIFIC_PID=REDACTED&STUDY_ID=691f8ca61c6b4dcbb0aeb5f4&SESSION_ID=691fb5b1503a22c9c1904fa8","survey-multi-choice",4,246632,"0.0-4.0","adjh18wI5oAu2EHZFFW1ewV0NTdHhaRMAy5hneuZq0OILJyXjpR/0AOhJ5VqzJtOAmkbjHUEM+G7wJmP/DQSaitW3Jd/DdPDv8GrmTtF3gsC+vKP2R+xzW+Ql2oa7Ws4IVxGLQrH/Fpb0hhLtBsSlai4U0aqbhkBABxi/Pm1Tp/QuEoFJW65vvc2UvWecPqPSMGPiEHHHZZ2q/OFjwDl/zASWyXz6h5fd7eF3V4LoNTIVfEmfxwF9gIIJA69A8bwXvYy/Y3g8j9sz6PKzLBO0Fz778WGhQYaG29AIsH4wf8xHWRP6/vKsfWv/p3Vs5t6zrm5Xo8Q2eJ4Kd3gBl2chg==","691f8ca61c6b4dcbb0aeb5f4","691fb5b1503a22c9c1904fa8","index1","<span style='color:red'>Fail,<span style='color:red'>Fail,<span style='color:green'>Lift,<span style='color:green'>Lift,<span style='color:red'>Fail,<span style='color:red'>Fail,<span style='color:red'>Fail,<span style='color:red'>Fail,<span style='color:red'>Fail,<span style='color:green'>Lift,<span style='color:red'>Fail,<span style='color:green'>Lift","<span style='color:red'>Fail,<span style='color:red'>Fail,<span style='color:green'>Lift,<span style='color:green'>Lift,<span style='color:green'>Lift,<span style='color:green'>Lift,<span style='color:green'>Lift,<span style='color:red'>Fail,<span style='color:green'>Lift,<span style='color:green'>Lift,<span style='color:red'>Fail,<span style='color:green'>Lift","<span style='color:red'>Fail,<span style='color:green'>Lift,<span style='color:green'>Lift,<span style='color:red'>Fail,<span style='color:green'>Lift,<span style='color:green'>Lift","0,0,1,1,0,0,0,0,0,1,0,1","0,0,1,1,1,1,1,0,1,1,0,1","0,1,1,0,1,1",10,20,20,"","","","","{""Q0"":""It consists of multiple contests, each contest with three rounds."",""Q1"":""When a new contest begins."",""Q2"":""The box weight changes across contests, but not across rounds within each contest."",""Q3"":""Each will get $20."",""Q4"":""How close my guesses are to the actual outcome.""}","[0,1,2,3,4]",NA,NA,"",NA,NA,NA,NA,NA,NA,NA,NA,NA,NA,NA,NA,NA,NA,NA,NA,NA,NA,NA,NA,NA,NA,NA,NA,NA,NA,NA,NA,NA,NA,NA,NA,NA,NA,NA,NA,NA,NA,NA,NA,"",NA,NA,NA,NA,NA,NA,NA,NA,2025-11-21 01:03:17
"4218.199999999255","https://psyc-201.github.io/xiang2023/exp/index1.html?PROLIFIC_PID=REDACTED&STUDY_ID=691f8ca61c6b4dcbb0aeb5f4&SESSION_ID=691fb5b1503a22c9c1904fa8","html-button-response",5,250852,"0.0-5.0-1.0","adjh18wI5oAu2EHZFFW1ewV0NTdHhaRMAy5hneuZq0OILJyXjpR/0AOhJ5VqzJtOAmkbjHUEM+G7wJmP/DQSaitW3Jd/DdPDv8GrmTtF3gsC+vKP2R+xzW+Ql2oa7Ws4IVxGLQrH/Fpb0hhLtBsSlai4U0aqbhkBABxi/Pm1Tp/QuEoFJW65vvc2UvWecPqPSMGPiEHHHZZ2q/OFjwDl/zASWyXz6h5fd7eF3V4LoNTIVfEmfxwF9gIIJA69A8bwXvYy/Y3g8j9sz6PKzLBO0Fz778WGhQYaG29AIsH4wf8xHWRP6/vKsfWv/p3Vs5t6zrm5Xo8Q2eJ4Kd3gBl2chg==","691f8ca61c6b4dcbb0aeb5f4","691fb5b1503a22c9c1904fa8","index1","<span style='color:red'>Fail,<span style='color:red'>Fail,<span style='color:green'>Lift,<span style='color:green'>Lift,<span style='color:red'>Fail,<span style='color:red'>Fail,<span style='color:red'>Fail,<span style='color:red'>Fail,<span style='color:red'>Fail,<span style='color:green'>Lift,<span style='color:red'>Fail,<span style='color:green'>Lift","<span style='color:red'>Fail,<span style='color:red'>Fail,<span style='color:green'>Lift,<span style='color:green'>Lift,<span style='color:green'>Lift,<span style='color:green'>Lift,<span style='color:green'>Lift,<span style='color:red'>Fail,<span style='color:green'>Lift,<span style='color:green'>Lift,<span style='color:red'>Fail,<span style='color:green'>Lift","<span style='color:red'>Fail,<span style='color:green'>Lift,<span style='color:green'>Lift,<span style='color:red'>Fail,<span style='color:green'>Lift,<span style='color:green'>Lift","0,0,1,1,0,0,0,0,0,1,0,1","0,0,1,1,1,1,1,0,1,1,0,1","0,1,1,0,1,1",10,20,20,"","","<p> Oops! You did not pass the comprehension check. <b>Please note that you have only 1 attempt(s) left.</b> </p>","","","",1,NA,"",NA,NA,NA,NA,NA,NA,NA,NA,NA,NA,NA,NA,NA,NA,NA,NA,NA,NA,NA,NA,NA,NA,NA,NA,NA,NA,NA,NA,NA,NA,NA,NA,NA,NA,NA,NA,NA,NA,NA,NA,"",NA,NA,NA,NA,NA,NA,NA,NA,2025-11-21 01:03:17
"110753.90000000224","https://psyc-201.github.io/xiang2023/exp/index1.html?PROLIFIC_PID=REDACTED&STUDY_ID=691f8ca61c6b4dcbb0aeb5f4&SESSION_ID=691fb5b1503a22c9c1904fa8","instructions",6,361604,"0.0-6.0-0.0","adjh18wI5oAu2EHZFFW1ewV0NTdHhaRMAy5hneuZq0OILJyXjpR/0AOhJ5VqzJtOAmkbjHUEM+G7wJmP/DQSaitW3Jd/DdPDv8GrmTtF3gsC+vKP2R+xzW+Ql2oa7Ws4IVxGLQrH/Fpb0hhLtBsSlai4U0aqbhkBABxi/Pm1Tp/QuEoFJW65vvc2UvWecPqPSMGPiEHHHZZ2q/OFjwDl/zASWyXz6h5fd7eF3V4LoNTIVfEmfxwF9gIIJA69A8bwXvYy/Y3g8j9sz6PKzLBO0Fz778WGhQYaG29AIsH4wf8xHWRP6/vKsfWv/p3Vs5t6zrm5Xo8Q2eJ4Kd3gBl2chg==","691f8ca61c6b4dcbb0aeb5f4","691fb5b1503a22c9c1904fa8","index1","<span style='color:red'>Fail,<span style='color:red'>Fail,<span style='color:green'>Lift,<span style='color:green'>Lift,<span style='color:red'>Fail,<span style='color:red'>Fail,<span style='color:red'>Fail,<span style='color:red'>Fail,<span style='color:red'>Fail,<span style='color:green'>Lift,<span style='color:red'>Fail,<span style='color:green'>Lift","<span style='color:red'>Fail,<span style='color:red'>Fail,<span style='color:green'>Lift,<span style='color:green'>Lift,<span style='color:green'>Lift,<span style='color:green'>Lift,<span style='color:green'>Lift,<span style='color:red'>Fail,<span style='color:green'>Lift,<span style='color:green'>Lift,<span style='color:red'>Fail,<span style='color:green'>Lift","<span style='color:red'>Fail,<span style='color:green'>Lift,<span style='color:green'>Lift,<span style='color:red'>Fail,<span style='color:green'>Lift,<span style='color:green'>Lift","0,0,1,1,0,0,0,0,0,1,0,1","0,0,1,1,1,1,1,0,1,1,0,1","0,1,1,0,1,1",10,20,20,"","[{""page_index"":0,""viewing_time"":20159.5},{""page_index"":1,""viewing_time"":8713.70000000298},{""page_index"":2,""viewing_time"":8206.199999999255},{""page_index"":3,""viewing_time"":8289.099999997765},{""page_index"":4,""viewing_time"":52495},{""page_index"":5,""viewing_time"":8797},{""page_index"":6,""viewing_time"":4093.300000000745}]","","","","",NA,NA,"",NA,NA,NA,NA,NA,NA,NA,NA,NA,NA,NA,NA,NA,NA,NA,NA,NA,NA,NA,NA,NA,NA,NA,NA,NA,NA,NA,NA,NA,NA,NA,NA,NA,NA,NA,NA,NA,NA,NA,NA,"",NA,NA,NA,NA,NA,NA,NA,NA,2025-11-21 01:03:17
"null","https://psyc-201.github.io/xiang2023/exp/index1.html?PROLIFIC_PID=REDACTED&STUDY_ID=691f8ca61c6b4dcbb0aeb5f4&SESSION_ID=691fb5b1503a22c9c1904fa8","html-keyboard-response",7,362613,"0.0-6.0-1.0","adjh18wI5oAu2EHZFFW1ewV0NTdHhaRMAy5hneuZq0OILJyXjpR/0AOhJ5VqzJtOAmkbjHUEM+G7wJmP/DQSaitW3Jd/DdPDv8GrmTtF3gsC+vKP2R+xzW+Ql2oa7Ws4IVxGLQrH/Fpb0hhLtBsSlai4U0aqbhkBABxi/Pm1Tp/QuEoFJW65vvc2UvWecPqPSMGPiEHHHZZ2q/OFjwDl/zASWyXz6h5fd7eF3V4LoNTIVfEmfxwF9gIIJA69A8bwXvYy/Y3g8j9sz6PKzLBO0Fz778WGhQYaG29AIsH4wf8xHWRP6/vKsfWv/p3Vs5t6zrm5Xo8Q2eJ4Kd3gBl2chg==","691f8ca61c6b4dcbb0aeb5f4","691fb5b1503a22c9c1904fa8","index1","<span style='color:red'>Fail,<span style='color:red'>Fail,<span style='color:green'>Lift,<span style='color:green'>Lift,<span style='color:red'>Fail,<span style='color:red'>Fail,<span style='color:red'>Fail,<span style='color:red'>Fail,<span style='color:red'>Fail,<span style='color:green'>Lift,<span style='color:red'>Fail,<span style='color:green'>Lift","<span style='color:red'>Fail,<span style='color:red'>Fail,<span style='color:green'>Lift,<span style='color:green'>Lift,<span style='color:green'>Lift,<span style='color:green'>Lift,<span style='color:green'>Lift,<span style='color:red'>Fail,<span style='color:green'>Lift,<span style='color:green'>Lift,<span style='color:red'>Fail,<span style='color:green'>Lift","<span style='color:red'>Fail,<span style='color:green'>Lift,<span style='color:green'>Lift,<span style='color:red'>Fail,<span style='color:green'>Lift,<span style='color:green'>Lift","0,0,1,1,0,0,0,0,0,1,0,1","0,0,1,1,1,1,1,0,1,1,0,1","0,1,1,0,1,1",10,20,20,"",""," ","null","","",NA,NA,"",NA,NA,NA,NA,NA,NA,NA,NA,NA,NA,NA,NA,NA,NA,NA,NA,NA,NA,NA,NA,NA,NA,NA,NA,NA,NA,NA,NA,NA,NA,NA,NA,NA,NA,NA,NA,NA,NA,NA,NA,"",NA,NA,NA,NA,NA,NA,NA,NA,2025-11-21 01:03:17
"202275.1000000015","https://psyc-201.github.io/xiang2023/exp/index1.html?PROLIFIC_PID=REDACTED&STUDY_ID=691f8ca61c6b4dcbb0aeb5f4&SESSION_ID=691fb5b1503a22c9c1904fa8","survey-multi-choice",8,564887,"0.0-7.0-0.0","adjh18wI5oAu2EHZFFW1ewV0NTdHhaRMAy5hneuZq0OILJyXjpR/0AOhJ5VqzJtOAmkbjHUEM+G7wJmP/DQSaitW3Jd/DdPDv8GrmTtF3gsC+vKP2R+xzW+Ql2oa7Ws4IVxGLQrH/Fpb0hhLtBsSlai4U0aqbhkBABxi/Pm1Tp/QuEoFJW65vvc2UvWecPqPSMGPiEHHHZZ2q/OFjwDl/zASWyXz6h5fd7eF3V4LoNTIVfEmfxwF9gIIJA69A8bwXvYy/Y3g8j9sz6PKzLBO0Fz778WGhQYaG29AIsH4wf8xHWRP6/vKsfWv/p3Vs5t6zrm5Xo8Q2eJ4Kd3gBl2chg==","691f8ca61c6b4dcbb0aeb5f4","691fb5b1503a22c9c1904fa8","index1","<span style='color:red'>Fail,<span style='color:red'>Fail,<span style='color:green'>Lift,<span style='color:green'>Lift,<span style='color:red'>Fail,<span style='color:red'>Fail,<span style='color:red'>Fail,<span style='color:red'>Fail,<span style='color:red'>Fail,<span style='color:green'>Lift,<span style='color:red'>Fail,<span style='color:green'>Lift","<span style='color:red'>Fail,<span style='color:red'>Fail,<span style='color:green'>Lift,<span style='color:green'>Lift,<span style='color:green'>Lift,<span style='color:green'>Lift,<span style='color:green'>Lift,<span style='color:red'>Fail,<span style='color:green'>Lift,<span style='color:green'>Lift,<span style='color:red'>Fail,<span style='color:green'>Lift","<span style='color:red'>Fail,<span style='color:green'>Lift,<span style='color:green'>Lift,<span style='color:red'>Fail,<span style='color:green'>Lift,<span style='color:green'>Lift","0,0,1,1,0,0,0,0,0,1,0,1","0,0,1,1,1,1,1,0,1,1,0,1","0,1,1,0,1,1",10,20,20,"","","","","{""Q0"":""It consists of multiple contests, each contest with three rounds."",""Q1"":""When a new contest begins."",""Q2"":""The box weight always stays the same (equivalent to strength of 5)."",""Q3"":""Each will get $20."",""Q4"":""How close my guesses are to the actual outcome.""}","[0,1,2,3,4]",NA,NA,"",NA,NA,NA,NA,NA,NA,NA,NA,NA,NA,NA,NA,NA,NA,NA,NA,NA,NA,NA,NA,NA,NA,NA,NA,NA,NA,NA,NA,NA,NA,NA,NA,NA,NA,NA,NA,NA,NA,NA,NA,"",NA,NA,NA,NA,NA,NA,NA,NA,2025-11-21 01:03:17
"12147.89999999851","https://psyc-201.github.io/xiang2023/exp/index1.html?PROLIFIC_PID=REDACTED&STUDY_ID=691f8ca61c6b4dcbb0aeb5f4&SESSION_ID=691fb5b1503a22c9c1904fa8","instructions",9,577037,"0.0-305.0","adjh18wI5oAu2EHZFFW1ewV0NTdHhaRMAy5hneuZq0OILJyXjpR/0AOhJ5VqzJtOAmkbjHUEM+G7wJmP/DQSaitW3Jd/DdPDv8GrmTtF3gsC+vKP2R+xzW+Ql2oa7Ws4IVxGLQrH/Fpb0hhLtBsSlai4U0aqbhkBABxi/Pm1Tp/QuEoFJW65vvc2UvWecPqPSMGPiEHHHZZ2q/OFjwDl/zASWyXz6h5fd7eF3V4LoNTIVfEmfxwF9gIIJA69A8bwXvYy/Y3g8j9sz6PKzLBO0Fz778WGhQYaG29AIsH4wf8xHWRP6/vKsfWv/p3Vs5t6zrm5Xo8Q2eJ4Kd3gBl2chg==","691f8ca61c6b4dcbb0aeb5f4","691fb5b1503a22c9c1904fa8","index1","<span style='color:red'>Fail,<span style='color:red'>Fail,<span style='color:green'>Lift,<span style='color:green'>Lift,<span style='color:red'>Fail,<span style='color:red'>Fail,<span style='color:red'>Fail,<span style='color:red'>Fail,<span style='color:red'>Fail,<span style='color:green'>Lift,<span style='color:red'>Fail,<span style='color:green'>Lift","<span style='color:red'>Fail,<span style='color:red'>Fail,<span style='color:green'>Lift,<span style='color:green'>Lift,<span style='color:green'>Lift,<span style='color:green'>Lift,<span style='color:green'>Lift,<span style='color:red'>Fail,<span style='color:green'>Lift,<span style='color:green'>Lift,<span style='color:red'>Fail,<span style='color:green'>Lift","<span style='color:red'>Fail,<span style='color:green'>Lift,<span style='color:green'>Lift,<span style='color:red'>Fail,<span style='color:green'>Lift,<span style='color:green'>Lift","0,0,1,1,0,0,0,0,0,1,0,1","0,0,1,1,1,1,1,0,1,1,0,1","0,1,1,0,1,1",10,20,20,"","[{""page_index"":0,""viewing_time"":8247.699999999255},{""page_index"":1,""viewing_time"":3900}]","","","","",NA,NA,"",NA,NA,NA,NA,NA,NA,NA,NA,NA,NA,NA,NA,NA,NA,NA,NA,NA,NA,NA,NA,NA,NA,NA,NA,NA,NA,NA,NA,NA,NA,NA,NA,NA,NA,NA,NA,NA,NA,NA,NA,"",NA,NA,NA,NA,NA,NA,NA,NA,2025-11-21 01:03:17
"null","https://psyc-201.github.io/xiang2023/exp/index1.html?PROLIFIC_PID=REDACTED&STUDY_ID=691f8ca61c6b4dcbb0aeb5f4&SESSION_ID=691fb5b1503a22c9c1904fa8","html-keyboard-response",10,578038,"0.0-306.0","adjh18wI5oAu2EHZFFW1ewV0NTdHhaRMAy5hneuZq0OILJyXjpR/0AOhJ5VqzJtOAmkbjHUEM+G7wJmP/DQSaitW3Jd/DdPDv8GrmTtF3gsC+vKP2R+xzW+Ql2oa7Ws4IVxGLQrH/Fpb0hhLtBsSlai4U0aqbhkBABxi/Pm1Tp/QuEoFJW65vvc2UvWecPqPSMGPiEHHHZZ2q/OFjwDl/zASWyXz6h5fd7eF3V4LoNTIVfEmfxwF9gIIJA69A8bwXvYy/Y3g8j9sz6PKzLBO0Fz778WGhQYaG29AIsH4wf8xHWRP6/vKsfWv/p3Vs5t6zrm5Xo8Q2eJ4Kd3gBl2chg==","691f8ca61c6b4dcbb0aeb5f4","691fb5b1503a22c9c1904fa8","index1","<span style='color:red'>Fail,<span style='color:red'>Fail,<span style='color:green'>Lift,<span style='color:green'>Lift,<span style='color:red'>Fail,<span style='color:red'>Fail,<span style='color:red'>Fail,<span style='color:red'>Fail,<span style='color:red'>Fail,<span style='color:green'>Lift,<span style='color:red'>Fail,<span style='color:green'>Lift","<span style='color:red'>Fail,<span style='color:red'>Fail,<span style='color:green'>Lift,<span style='color:green'>Lift,<span style='color:green'>Lift,<span style='color:green'>Lift,<span style='color:green'>Lift,<span style='color:red'>Fail,<span style='color:green'>Lift,<span style='color:green'>Lift,<span style='color:red'>Fail,<span style='color:green'>Lift","<span style='color:red'>Fail,<span style='color:green'>Lift,<span style='color:green'>Lift,<span style='color:red'>Fail,<span style='color:green'>Lift,<span style='color:green'>Lift","0,0,1,1,0,0,0,0,0,1,0,1","0,0,1,1,1,1,1,0,1,1,0,1","0,1,1,0,1,1",10,20,20,"",""," ","null","","",NA,1,"",NA,NA,NA,NA,NA,NA,NA,NA,NA,NA,NA,NA,NA,NA,NA,NA,NA,NA,NA,NA,NA,NA,NA,NA,NA,NA,NA,NA,NA,NA,NA,NA,NA,NA,NA,NA,NA,NA,NA,NA,"",NA,NA,NA,NA,NA,NA,NA,NA,2025-11-21 01:03:17
"null","https://psyc-201.github.io/xiang2023/exp/index1.html?PROLIFIC_PID=REDACTED&STUDY_ID=691f8ca61c6b4dcbb0aeb5f4&SESSION_ID=691fb5b1503a22c9c1904fa8","html-keyboard-response",11,581052,"0.0-307.0","adjh18wI5oAu2EHZFFW1ewV0NTdHhaRMAy5hneuZq0OILJyXjpR/0AOhJ5VqzJtOAmkbjHUEM+G7wJmP/DQSaitW3Jd/DdPDv8GrmTtF3gsC+vKP2R+xzW+Ql2oa7Ws4IVxGLQrH/Fpb0hhLtBsSlai4U0aqbhkBABxi/Pm1Tp/QuEoFJW65vvc2UvWecPqPSMGPiEHHHZZ2q/OFjwDl/zASWyXz6h5fd7eF3V4LoNTIVfEmfxwF9gIIJA69A8bwXvYy/Y3g8j9sz6PKzLBO0Fz778WGhQYaG29AIsH4wf8xHWRP6/vKsfWv/p3Vs5t6zrm5Xo8Q2eJ4Kd3gBl2chg==","691f8ca61c6b4dcbb0aeb5f4","691fb5b1503a22c9c1904fa8","index1","<span style='color:red'>Fail,<span style='color:red'>Fail,<span style='color:green'>Lift,<span style='color:green'>Lift,<span style='color:red'>Fail,<span style='color:red'>Fail,<span style='color:red'>Fail,<span style='color:red'>Fail,<span style='color:red'>Fail,<span style='color:green'>Lift,<span style='color:red'>Fail,<span style='color:green'>Lift","<span style='color:red'>Fail,<span style='color:red'>Fail,<span style='color:green'>Lift,<span style='color:green'>Lift,<span style='color:green'>Lift,<span style='color:green'>Lift,<span style='color:green'>Lift,<span style='color:red'>Fail,<span style='color:green'>Lift,<span style='color:green'>Lift,<span style='color:red'>Fail,<span style='color:green'>Lift","<span style='color:red'>Fail,<span style='color:green'>Lift,<span style='color:green'>Lift,<span style='color:red'>Fail,<span style='color:green'>Lift,<span style='color:green'>Lift","0,0,1,1,0,0,0,0,0,1,0,1","0,0,1,1,1,1,1,0,1,1,0,1","0,1,1,0,1,1",10,20,20,"","","<p style='font-size:30px'><b> New Contest! </b></p>","null","","",NA,1,"",NA,NA,NA,NA,NA,NA,NA,NA,NA,NA,NA,NA,NA,NA,NA,NA,NA,NA,NA,NA,NA,NA,NA,NA,NA,NA,NA,NA,NA,NA,NA,NA,NA,NA,NA,NA,NA,NA,NA,NA,"",NA,NA,NA,NA,NA,NA,NA,NA,2025-11-21 01:03:17
"24402.699999999255","https://psyc-201.github.io/xiang2023/exp/index1.html?PROLIFIC_PID=REDACTED&STUDY_ID=691f8ca61c6b4dcbb0aeb5f4&SESSION_ID=691fb5b1503a22c9c1904fa8","survey-html-form",12,605456,"0.0-308.0","adjh18wI5oAu2EHZFFW1ewV0NTdHhaRMAy5hneuZq0OILJyXjpR/0AOhJ5VqzJtOAmkbjHUEM+G7wJmP/DQSaitW3Jd/DdPDv8GrmTtF3gsC+vKP2R+xzW+Ql2oa7Ws4IVxGLQrH/Fpb0hhLtBsSlai4U0aqbhkBABxi/Pm1Tp/QuEoFJW65vvc2UvWecPqPSMGPiEHHHZZ2q/OFjwDl/zASWyXz6h5fd7eF3V4LoNTIVfEmfxwF9gIIJA69A8bwXvYy/Y3g8j9sz6PKzLBO0Fz778WGhQYaG29AIsH4wf8xHWRP6/vKsfWv/p3Vs5t6zrm5Xo8Q2eJ4Kd3gBl2chg==","691f8ca61c6b4dcbb0aeb5f4","691fb5b1503a22c9c1904fa8","index1","<span style='color:red'>Fail,<span style='color:red'>Fail,<span style='color:green'>Lift,<span style='color:green'>Lift,<span style='color:red'>Fail,<span style='color:red'>Fail,<span style='color:red'>Fail,<span style='color:red'>Fail,<span style='color:red'>Fail,<span style='color:green'>Lift,<span style='color:red'>Fail,<span style='color:green'>Lift","<span style='color:red'>Fail,<span style='color:red'>Fail,<span style='color:green'>Lift,<span style='color:green'>Lift,<span style='color:green'>Lift,<span style='color:green'>Lift,<span style='color:green'>Lift,<span style='color:red'>Fail,<span style='color:green'>Lift,<span style='color:green'>Lift,<span style='color:red'>Fail,<span style='color:green'>Lift","<span style='color:red'>Fail,<span style='color:green'>Lift,<span style='color:green'>Lift,<span style='color:red'>Fail,<span style='color:green'>Lift,<span style='color:green'>Lift","0,0,1,1,0,0,0,0,0,1,0,1","0,0,1,1,1,1,1,0,1,1,0,1","0,1,1,0,1,1",10,20,20,"","","","","{""box1"":""3"",""box2"":""3""}","",NA,1,"round1_outcome",1,1,1,3,3,NA,NA,0,0,10,3,3,NA,NA,0,0,10,NA,NA,NA,NA,NA,NA,NA,NA,NA,NA,NA,NA,NA,NA,NA,NA,NA,NA,NA,NA,NA,NA,NA,"",NA,NA,NA,NA,NA,NA,NA,NA,2025-11-21 01:03:17
"19355.70000000298","https://psyc-201.github.io/xiang2023/exp/index1.html?PROLIFIC_PID=REDACTED&STUDY_ID=691f8ca61c6b4dcbb0aeb5f4&SESSION_ID=691fb5b1503a22c9c1904fa8","survey-html-form",13,624812,"0.0-309.0","adjh18wI5oAu2EHZFFW1ewV0NTdHhaRMAy5hneuZq0OILJyXjpR/0AOhJ5VqzJtOAmkbjHUEM+G7wJmP/DQSaitW3Jd/DdPDv8GrmTtF3gsC+vKP2R+xzW+Ql2oa7Ws4IVxGLQrH/Fpb0hhLtBsSlai4U0aqbhkBABxi/Pm1Tp/QuEoFJW65vvc2UvWecPqPSMGPiEHHHZZ2q/OFjwDl/zASWyXz6h5fd7eF3V4LoNTIVfEmfxwF9gIIJA69A8bwXvYy/Y3g8j9sz6PKzLBO0Fz778WGhQYaG29AIsH4wf8xHWRP6/vKsfWv/p3Vs5t6zrm5Xo8Q2eJ4Kd3gBl2chg==","691f8ca61c6b4dcbb0aeb5f4","691fb5b1503a22c9c1904fa8","index1","<span style='color:red'>Fail,<span style='color:red'>Fail,<span style='color:green'>Lift,<span style='color:green'>Lift,<span style='color:red'>Fail,<span style='color:red'>Fail,<span style='color:red'>Fail,<span style='color:red'>Fail,<span style='color:red'>Fail,<span style='color:green'>Lift,<span style='color:red'>Fail,<span style='color:green'>Lift","<span style='color:red'>Fail,<span style='color:red'>Fail,<span style='color:green'>Lift,<span style='color:green'>Lift,<span style='color:green'>Lift,<span style='color:green'>Lift,<span style='color:green'>Lift,<span style='color:red'>Fail,<span style='color:green'>Lift,<span style='color:green'>Lift,<span style='color:red'>Fail,<span style='color:green'>Lift","<span style='color:red'>Fail,<span style='color:green'>Lift,<span style='color:green'>Lift,<span style='color:red'>Fail,<span style='color:green'>Lift,<span style='color:green'>Lift","0,0,1,1,0,0,0,0,0,1,0,1","0,0,1,1,1,1,1,0,1,1,0,1","0,1,1,0,1,1",10,20,20,"","","","","{""box1"":""20"",""box2"":""20""}","",NA,1,"round2_ready",2,1,2,NA,NA,NA,NA,NA,NA,NA,NA,NA,NA,NA,NA,NA,NA,20,20,20,20,NA,NA,NA,NA,NA,NA,NA,NA,NA,NA,NA,NA,NA,NA,NA,NA,NA,NA,NA,"",NA,NA,NA,NA,NA,NA,NA,NA,2025-11-21 01:03:17
"10808.5","https://psyc-201.github.io/xiang2023/exp/index1.html?PROLIFIC_PID=REDACTED&STUDY_ID=691f8ca61c6b4dcbb0aeb5f4&SESSION_ID=691fb5b1503a22c9c1904fa8","survey-html-form",14,635621,"0.0-310.0","adjh18wI5oAu2EHZFFW1ewV0NTdHhaRMAy5hneuZq0OILJyXjpR/0AOhJ5VqzJtOAmkbjHUEM+G7wJmP/DQSaitW3Jd/DdPDv8GrmTtF3gsC+vKP2R+xzW+Ql2oa7Ws4IVxGLQrH/Fpb0hhLtBsSlai4U0aqbhkBABxi/Pm1Tp/QuEoFJW65vvc2UvWecPqPSMGPiEHHHZZ2q/OFjwDl/zASWyXz6h5fd7eF3V4LoNTIVfEmfxwF9gIIJA69A8bwXvYy/Y3g8j9sz6PKzLBO0Fz778WGhQYaG29AIsH4wf8xHWRP6/vKsfWv/p3Vs5t6zrm5Xo8Q2eJ4Kd3gBl2chg==","691f8ca61c6b4dcbb0aeb5f4","691fb5b1503a22c9c1904fa8","index1","<span style='color:red'>Fail,<span style='color:red'>Fail,<span style='color:green'>Lift,<span style='color:green'>Lift,<span style='color:red'>Fail,<span style='color:red'>Fail,<span style='color:red'>Fail,<span style='color:red'>Fail,<span style='color:red'>Fail,<span style='color:green'>Lift,<span style='color:red'>Fail,<span style='color:green'>Lift","<span style='color:red'>Fail,<span style='color:red'>Fail,<span style='color:green'>Lift,<span style='color:green'>Lift,<span style='color:green'>Lift,<span style='color:green'>Lift,<span style='color:green'>Lift,<span style='color:red'>Fail,<span style='color:green'>Lift,<span style='color:green'>Lift,<span style='color:red'>Fail,<span style='color:green'>Lift","<span style='color:red'>Fail,<span style='color:green'>Lift,<span style='color:green'>Lift,<span style='color:red'>Fail,<span style='color:green'>Lift,<span style='color:green'>Lift","0,0,1,1,0,0,0,0,0,1,0,1","0,0,1,1,1,1,1,0,1,1,0,1","0,1,1,0,1,1",10,20,20,"","","","","{""box1"":""3"",""box2"":""3""}","",NA,1,"round2_outcome",3,1,2,3,3,NA,NA,0,0,20,NA,NA,NA,NA,NA,NA,NA,NA,NA,NA,NA,3,3,NA,NA,0,0,20,NA,NA,NA,NA,NA,NA,NA,NA,NA,NA,NA,NA,"",NA,NA,NA,NA,NA,NA,NA,NA,2025-11-21 01:03:17
"15060.5","https://psyc-201.github.io/xiang2023/exp/index1.html?PROLIFIC_PID=REDACTED&STUDY_ID=691f8ca61c6b4dcbb0aeb5f4&SESSION_ID=691fb5b1503a22c9c1904fa8","survey-html-form",15,650683,"0.0-311.0","adjh18wI5oAu2EHZFFW1ewV0NTdHhaRMAy5hneuZq0OILJyXjpR/0AOhJ5VqzJtOAmkbjHUEM+G7wJmP/DQSaitW3Jd/DdPDv8GrmTtF3gsC+vKP2R+xzW+Ql2oa7Ws4IVxGLQrH/Fpb0hhLtBsSlai4U0aqbhkBABxi/Pm1Tp/QuEoFJW65vvc2UvWecPqPSMGPiEHHHZZ2q/OFjwDl/zASWyXz6h5fd7eF3V4LoNTIVfEmfxwF9gIIJA69A8bwXvYy/Y3g8j9sz6PKzLBO0Fz778WGhQYaG29AIsH4wf8xHWRP6/vKsfWv/p3Vs5t6zrm5Xo8Q2eJ4Kd3gBl2chg==","691f8ca61c6b4dcbb0aeb5f4","691fb5b1503a22c9c1904fa8","index1","<span style='color:red'>Fail,<span style='color:red'>Fail,<span style='color:green'>Lift,<span style='color:green'>Lift,<span style='color:red'>Fail,<span style='color:red'>Fail,<span style='color:red'>Fail,<span style='color:red'>Fail,<span style='color:red'>Fail,<span style='color:green'>Lift,<span style='color:red'>Fail,<span style='color:green'>Lift","<span style='color:red'>Fail,<span style='color:red'>Fail,<span style='color:green'>Lift,<span style='color:green'>Lift,<span style='color:green'>Lift,<span style='color:green'>Lift,<span style='color:green'>Lift,<span style='color:red'>Fail,<span style='color:green'>Lift,<span style='color:green'>Lift,<span style='color:red'>Fail,<span style='color:green'>Lift","<span style='color:red'>Fail,<span style='color:green'>Lift,<span style='color:green'>Lift,<span style='color:red'>Fail,<span style='color:green'>Lift,<span style='color:green'>Lift","0,0,1,1,0,0,0,0,0,1,0,1","0,0,1,1,1,1,1,0,1,1,0,1","0,1,1,0,1,1",10,20,20,"","","","","{""box1"":""90""}","",NA,1,"round3_ready",4,1,3,NA,NA,NA,NA,NA,NA,NA,NA,NA,NA,NA,NA,NA,NA,90,90,NA,NA,NA,NA,NA,NA,NA,NA,NA,90,90,NA,NA,NA,NA,NA,NA,NA,NA,NA,NA,"",NA,NA,NA,NA,NA,NA,NA,NA,2025-11-21 01:03:17
"23006","https://psyc-201.github.io/xiang2023/exp/index1.html?PROLIFIC_PID=REDACTED&STUDY_ID=691f8ca61c6b4dcbb0aeb5f4&SESSION_ID=691fb5b1503a22c9c1904fa8","survey-html-form",16,673689,"0.0-313.0-0.0","adjh18wI5oAu2EHZFFW1ewV0NTdHhaRMAy5hneuZq0OILJyXjpR/0AOhJ5VqzJtOAmkbjHUEM+G7wJmP/DQSaitW3Jd/DdPDv8GrmTtF3gsC+vKP2R+xzW+Ql2oa7Ws4IVxGLQrH/Fpb0hhLtBsSlai4U0aqbhkBABxi/Pm1Tp/QuEoFJW65vvc2UvWecPqPSMGPiEHHHZZ2q/OFjwDl/zASWyXz6h5fd7eF3V4LoNTIVfEmfxwF9gIIJA69A8bwXvYy/Y3g8j9sz6PKzLBO0Fz778WGhQYaG29AIsH4wf8xHWRP6/vKsfWv/p3Vs5t6zrm5Xo8Q2eJ4Kd3gBl2chg==","691f8ca61c6b4dcbb0aeb5f4","691fb5b1503a22c9c1904fa8","index1","<span style='color:red'>Fail,<span style='color:red'>Fail,<span style='color:green'>Lift,<span style='color:green'>Lift,<span style='color:red'>Fail,<span style='color:red'>Fail,<span style='color:red'>Fail,<span style='color:red'>Fail,<span style='color:red'>Fail,<span style='color:green'>Lift,<span style='color:red'>Fail,<span style='color:green'>Lift","<span style='color:red'>Fail,<span style='color:red'>Fail,<span style='color:green'>Lift,<span style='color:green'>Lift,<span style='color:green'>Lift,<span style='color:green'>Lift,<span style='color:green'>Lift,<span style='color:red'>Fail,<span style='color:green'>Lift,<span style='color:green'>Lift,<span style='color:red'>Fail,<span style='color:green'>Lift","<span style='color:red'>Fail,<span style='color:green'>Lift,<span style='color:green'>Lift,<span style='color:red'>Fail,<span style='color:green'>Lift,<span style='color:green'>Lift","0,0,1,1,0,0,0,0,0,1,0,1","0,0,1,1,1,1,1,0,1,1,0,1","0,1,1,0,1,1",10,20,20,"","","","","{""box1"":""3"",""box2"":""3"",""box3"":""999"",""box4"":""999""}","",NA,2,"round3_fail",5,1,3,3,3,NA,NA,0,0,20,NA,NA,NA,NA,NA,NA,NA,NA,NA,NA,NA,NA,NA,NA,NA,NA,NA,NA,NA,NA,1,1,3,3,0,0,20,NA,NA,NA,"",NA,NA,NA,NA,NA,NA,NA,NA,2025-11-21 01:03:17
"null","https://psyc-201.github.io/xiang2023/exp/index1.html?PROLIFIC_PID=REDACTED&STUDY_ID=691f8ca61c6b4dcbb0aeb5f4&SESSION_ID=691fb5b1503a22c9c1904fa8","html-keyboard-response",17,676700,"0.0-316.0","adjh18wI5oAu2EHZFFW1ewV0NTdHhaRMAy5hneuZq0OILJyXjpR/0AOhJ5VqzJtOAmkbjHUEM+G7wJmP/DQSaitW3Jd/DdPDv8GrmTtF3gsC+vKP2R+xzW+Ql2oa7Ws4IVxGLQrH/Fpb0hhLtBsSlai4U0aqbhkBABxi/Pm1Tp/QuEoFJW65vvc2UvWecPqPSMGPiEHHHZZ2q/OFjwDl/zASWyXz6h5fd7eF3V4LoNTIVfEmfxwF9gIIJA69A8bwXvYy/Y3g8j9sz6PKzLBO0Fz778WGhQYaG29AIsH4wf8xHWRP6/vKsfWv/p3Vs5t6zrm5Xo8Q2eJ4Kd3gBl2chg==","691f8ca61c6b4dcbb0aeb5f4","691fb5b1503a22c9c1904fa8","index1","<span style='color:red'>Fail,<span style='color:red'>Fail,<span style='color:green'>Lift,<span style='color:green'>Lift,<span style='color:red'>Fail,<span style='color:red'>Fail,<span style='color:red'>Fail,<span style='color:red'>Fail,<span style='color:red'>Fail,<span style='color:green'>Lift,<span style='color:red'>Fail,<span style='color:green'>Lift","<span style='color:red'>Fail,<span style='color:red'>Fail,<span style='color:green'>Lift,<span style='color:green'>Lift,<span style='color:green'>Lift,<span style='color:green'>Lift,<span style='color:green'>Lift,<span style='color:red'>Fail,<span style='color:green'>Lift,<span style='color:green'>Lift,<span style='color:red'>Fail,<span style='color:green'>Lift","<span style='color:red'>Fail,<span style='color:green'>Lift,<span style='color:green'>Lift,<span style='color:red'>Fail,<span style='color:green'>Lift,<span style='color:green'>Lift","0,0,1,1,0,0,0,0,0,1,0,1","0,0,1,1,1,1,1,0,1,1,0,1","0,1,1,0,1,1",10,20,20,"","","<p style='font-size:30px'><b> New Contest! </b></p>","null","","",NA,2,"",NA,NA,NA,NA,NA,NA,NA,NA,NA,NA,NA,NA,NA,NA,NA,NA,NA,NA,NA,NA,NA,NA,NA,NA,NA,NA,NA,NA,NA,NA,NA,NA,NA,NA,NA,NA,NA,NA,NA,NA,"",NA,NA,NA,NA,NA,NA,NA,NA,2025-11-21 01:03:17
"10983.400000002235","https://psyc-201.github.io/xiang2023/exp/index1.html?PROLIFIC_PID=REDACTED&STUDY_ID=691f8ca61c6b4dcbb0aeb5f4&SESSION_ID=691fb5b1503a22c9c1904fa8","survey-html-form",18,687684,"0.0-317.0","adjh18wI5oAu2EHZFFW1ewV0NTdHhaRMAy5hneuZq0OILJyXjpR/0AOhJ5VqzJtOAmkbjHUEM+G7wJmP/DQSaitW3Jd/DdPDv8GrmTtF3gsC+vKP2R+xzW+Ql2oa7Ws4IVxGLQrH/Fpb0hhLtBsSlai4U0aqbhkBABxi/Pm1Tp/QuEoFJW65vvc2UvWecPqPSMGPiEHHHZZ2q/OFjwDl/zASWyXz6h5fd7eF3V4LoNTIVfEmfxwF9gIIJA69A8bwXvYy/Y3g8j9sz6PKzLBO0Fz778WGhQYaG29AIsH4wf8xHWRP6/vKsfWv/p3Vs5t6zrm5Xo8Q2eJ4Kd3gBl2chg==","691f8ca61c6b4dcbb0aeb5f4","691fb5b1503a22c9c1904fa8","index1","<span style='color:red'>Fail,<span style='color:red'>Fail,<span style='color:green'>Lift,<span style='color:green'>Lift,<span style='color:red'>Fail,<span style='color:red'>Fail,<span style='color:red'>Fail,<span style='color:red'>Fail,<span style='color:red'>Fail,<span style='color:green'>Lift,<span style='color:red'>Fail,<span style='color:green'>Lift","<span style='color:red'>Fail,<span style='color:red'>Fail,<span style='color:green'>Lift,<span style='color:green'>Lift,<span style='color:green'>Lift,<span style='color:green'>Lift,<span style='color:green'>Lift,<span style='color:red'>Fail,<span style='color:green'>Lift,<span style='color:green'>Lift,<span style='color:red'>Fail,<span style='color:green'>Lift","<span style='color:red'>Fail,<span style='color:green'>Lift,<span style='color:green'>Lift,<span style='color:red'>Fail,<span style='color:green'>Lift,<span style='color:green'>Lift","0,0,1,1,0,0,0,0,0,1,0,1","0,0,1,1,1,1,1,0,1,1,0,1","0,1,1,0,1,1",10,20,20,"","","","","{""box1"":""4"",""box2"":""4""}","",NA,2,"round1_outcome",1,2,1,4,4,NA,NA,0,0,10,4,4,NA,NA,0,0,10,NA,NA,NA,NA,NA,NA,NA,NA,NA,NA,NA,NA,NA,NA,NA,NA,NA,NA,NA,NA,NA,NA,NA,"",NA,NA,NA,NA,NA,NA,NA,NA,2025-11-21 01:03:17
"13314.70000000298","https://psyc-201.github.io/xiang2023/exp/index1.html?PROLIFIC_PID=REDACTED&STUDY_ID=691f8ca61c6b4dcbb0aeb5f4&SESSION_ID=691fb5b1503a22c9c1904fa8","survey-html-form",19,701000,"0.0-318.0","adjh18wI5oAu2EHZFFW1ewV0NTdHhaRMAy5hneuZq0OILJyXjpR/0AOhJ5VqzJtOAmkbjHUEM+G7wJmP/DQSaitW3Jd/DdPDv8GrmTtF3gsC+vKP2R+xzW+Ql2oa7Ws4IVxGLQrH/Fpb0hhLtBsSlai4U0aqbhkBABxi/Pm1Tp/QuEoFJW65vvc2UvWecPqPSMGPiEHHHZZ2q/OFjwDl/zASWyXz6h5fd7eF3V4LoNTIVfEmfxwF9gIIJA69A8bwXvYy/Y3g8j9sz6PKzLBO0Fz778WGhQYaG29AIsH4wf8xHWRP6/vKsfWv/p3Vs5t6zrm5Xo8Q2eJ4Kd3gBl2chg==","691f8ca61c6b4dcbb0aeb5f4","691fb5b1503a22c9c1904fa8","index1","<span style='color:red'>Fail,<span style='color:red'>Fail,<span style='color:green'>Lift,<span style='color:green'>Lift,<span style='color:red'>Fail,<span style='color:red'>Fail,<span style='color:red'>Fail,<span style='color:red'>Fail,<span style='color:red'>Fail,<span style='color:green'>Lift,<span style='color:red'>Fail,<span style='color:green'>Lift","<span style='color:red'>Fail,<span style='color:red'>Fail,<span style='color:green'>Lift,<span style='color:green'>Lift,<span style='color:green'>Lift,<span style='color:green'>Lift,<span style='color:green'>Lift,<span style='color:red'>Fail,<span style='color:green'>Lift,<span style='color:green'>Lift,<span style='color:red'>Fail,<span style='color:green'>Lift","<span style='color:red'>Fail,<span style='color:green'>Lift,<span style='color:green'>Lift,<span style='color:red'>Fail,<span style='color:green'>Lift,<span style='color:green'>Lift","0,0,1,1,0,0,0,0,0,1,0,1","0,0,1,1,1,1,1,0,1,1,0,1","0,1,1,0,1,1",10,20,20,"","","","","{""box1"":""25"",""box2"":""25""}","",NA,2,"round2_ready",2,2,2,NA,NA,NA,NA,NA,NA,NA,NA,NA,NA,NA,NA,NA,NA,25,25,25,25,NA,NA,NA,NA,NA,NA,NA,NA,NA,NA,NA,NA,NA,NA,NA,NA,NA,NA,NA,"",NA,NA,NA,NA,NA,NA,NA,NA,2025-11-21 01:03:17
"32350.900000002235","https://psyc-201.github.io/xiang2023/exp/index1.html?PROLIFIC_PID=REDACTED&STUDY_ID=691f8ca61c6b4dcbb0aeb5f4&SESSION_ID=691fb5b1503a22c9c1904fa8","survey-html-form",20,733351,"0.0-319.0","adjh18wI5oAu2EHZFFW1ewV0NTdHhaRMAy5hneuZq0OILJyXjpR/0AOhJ5VqzJtOAmkbjHUEM+G7wJmP/DQSaitW3Jd/DdPDv8GrmTtF3gsC+vKP2R+xzW+Ql2oa7Ws4IVxGLQrH/Fpb0hhLtBsSlai4U0aqbhkBABxi/Pm1Tp/QuEoFJW65vvc2UvWecPqPSMGPiEHHHZZ2q/OFjwDl/zASWyXz6h5fd7eF3V4LoNTIVfEmfxwF9gIIJA69A8bwXvYy/Y3g8j9sz6PKzLBO0Fz778WGhQYaG29AIsH4wf8xHWRP6/vKsfWv/p3Vs5t6zrm5Xo8Q2eJ4Kd3gBl2chg==","691f8ca61c6b4dcbb0aeb5f4","691fb5b1503a22c9c1904fa8","index1","<span style='color:red'>Fail,<span style='color:red'>Fail,<span style='color:green'>Lift,<span style='color:green'>Lift,<span style='color:red'>Fail,<span style='color:red'>Fail,<span style='color:red'>Fail,<span style='color:red'>Fail,<span style='color:red'>Fail,<span style='color:green'>Lift,<span style='color:red'>Fail,<span style='color:green'>Lift","<span style='color:red'>Fail,<span style='color:red'>Fail,<span style='color:green'>Lift,<span style='color:green'>Lift,<span style='color:green'>Lift,<span style='color:green'>Lift,<span style='color:green'>Lift,<span style='color:red'>Fail,<span style='color:green'>Lift,<span style='color:green'>Lift,<span style='color:red'>Fail,<span style='color:green'>Lift","<span style='color:red'>Fail,<span style='color:green'>Lift,<span style='color:green'>Lift,<span style='color:red'>Fail,<span style='color:green'>Lift,<span style='color:green'>Lift","0,0,1,1,0,0,0,0,0,1,0,1","0,0,1,1,1,1,1,0,1,1,0,1","0,1,1,0,1,1",10,20,20,"","","","","{""box1"":""5"",""box2"":""5"",""box3"":""85"",""box4"":""85""}","",NA,2,"round2_outcome",3,2,2,5,5,85,85,1,1,20,NA,NA,NA,NA,NA,NA,NA,NA,NA,NA,NA,5,5,85,85,1,1,20,NA,NA,NA,NA,NA,NA,NA,NA,NA,NA,NA,NA,"",NA,NA,NA,NA,NA,NA,NA,NA,2025-11-21 01:03:17
"5151","https://psyc-201.github.io/xiang2023/exp/index1.html?PROLIFIC_PID=REDACTED&STUDY_ID=691f8ca61c6b4dcbb0aeb5f4&SESSION_ID=691fb5b1503a22c9c1904fa8","survey-html-form",21,738503,"0.0-320.0","adjh18wI5oAu2EHZFFW1ewV0NTdHhaRMAy5hneuZq0OILJyXjpR/0AOhJ5VqzJtOAmkbjHUEM+G7wJmP/DQSaitW3Jd/DdPDv8GrmTtF3gsC+vKP2R+xzW+Ql2oa7Ws4IVxGLQrH/Fpb0hhLtBsSlai4U0aqbhkBABxi/Pm1Tp/QuEoFJW65vvc2UvWecPqPSMGPiEHHHZZ2q/OFjwDl/zASWyXz6h5fd7eF3V4LoNTIVfEmfxwF9gIIJA69A8bwXvYy/Y3g8j9sz6PKzLBO0Fz778WGhQYaG29AIsH4wf8xHWRP6/vKsfWv/p3Vs5t6zrm5Xo8Q2eJ4Kd3gBl2chg==","691f8ca61c6b4dcbb0aeb5f4","691fb5b1503a22c9c1904fa8","index1","<span style='color:red'>Fail,<span style='color:red'>Fail,<span style='color:green'>Lift,<span style='color:green'>Lift,<span style='color:red'>Fail,<span style='color:red'>Fail,<span style='color:red'>Fail,<span style='color:red'>Fail,<span style='color:red'>Fail,<span style='color:green'>Lift,<span style='color:red'>Fail,<span style='color:green'>Lift","<span style='color:red'>Fail,<span style='color:red'>Fail,<span style='color:green'>Lift,<span style='color:green'>Lift,<span style='color:green'>Lift,<span style='color:green'>Lift,<span style='color:green'>Lift,<span style='color:red'>Fail,<span style='color:green'>Lift,<span style='color:green'>Lift,<span style='color:red'>Fail,<span style='color:green'>Lift","<span style='color:red'>Fail,<span style='color:green'>Lift,<span style='color:green'>Lift,<span style='color:red'>Fail,<span style='color:green'>Lift,<span style='color:green'>Lift","0,0,1,1,0,0,0,0,0,1,0,1","0,0,1,1,1,1,1,0,1,1,0,1","0,1,1,0,1,1",10,20,20,"","","","","{""box1"":""100""}","",NA,2,"round3_ready",4,2,3,NA,NA,NA,NA,NA,NA,NA,NA,NA,NA,NA,NA,NA,NA,100,100,NA,NA,NA,NA,NA,NA,NA,NA,NA,100,100,NA,NA,NA,NA,NA,NA,NA,NA,NA,NA,"",NA,NA,NA,NA,NA,NA,NA,NA,2025-11-21 01:03:17
"20492.699999999255","https://psyc-201.github.io/xiang2023/exp/index1.html?PROLIFIC_PID=REDACTED&STUDY_ID=691f8ca61c6b4dcbb0aeb5f4&SESSION_ID=691fb5b1503a22c9c1904fa8","survey-html-form",22,758996,"0.0-321.0-0.0","adjh18wI5oAu2EHZFFW1ewV0NTdHhaRMAy5hneuZq0OILJyXjpR/0AOhJ5VqzJtOAmkbjHUEM+G7wJmP/DQSaitW3Jd/DdPDv8GrmTtF3gsC+vKP2R+xzW+Ql2oa7Ws4IVxGLQrH/Fpb0hhLtBsSlai4U0aqbhkBABxi/Pm1Tp/QuEoFJW65vvc2UvWecPqPSMGPiEHHHZZ2q/OFjwDl/zASWyXz6h5fd7eF3V4LoNTIVfEmfxwF9gIIJA69A8bwXvYy/Y3g8j9sz6PKzLBO0Fz778WGhQYaG29AIsH4wf8xHWRP6/vKsfWv/p3Vs5t6zrm5Xo8Q2eJ4Kd3gBl2chg==","691f8ca61c6b4dcbb0aeb5f4","691fb5b1503a22c9c1904fa8","index1","<span style='color:red'>Fail,<span style='color:red'>Fail,<span style='color:green'>Lift,<span style='color:green'>Lift,<span style='color:red'>Fail,<span style='color:red'>Fail,<span style='color:red'>Fail,<span style='color:red'>Fail,<span style='color:red'>Fail,<span style='color:green'>Lift,<span style='color:red'>Fail,<span style='color:green'>Lift","<span style='color:red'>Fail,<span style='color:red'>Fail,<span style='color:green'>Lift,<span style='color:green'>Lift,<span style='color:green'>Lift,<span style='color:green'>Lift,<span style='color:green'>Lift,<span style='color:red'>Fail,<span style='color:green'>Lift,<span style='color:green'>Lift,<span style='color:red'>Fail,<span style='color:green'>Lift","<span style='color:red'>Fail,<span style='color:green'>Lift,<span style='color:green'>Lift,<span style='color:red'>Fail,<span style='color:green'>Lift,<span style='color:green'>Lift","0,0,1,1,0,0,0,0,0,1,0,1","0,0,1,1,1,1,1,0,1,1,0,1","0,1,1,0,1,1",10,20,20,"","","","","{""box1"":""5"",""box2"":""5"",""box3"":""25"",""box4"":""25""}","",NA,3,"round3_lift",5,2,3,5,5,25,25,1,1,20,NA,NA,NA,NA,NA,NA,NA,NA,NA,NA,NA,NA,NA,NA,NA,NA,NA,NA,NA,NA,NA,NA,5,5,1,1,20,25,25,NA,"",NA,NA,NA,NA,NA,NA,NA,NA,2025-11-21 01:03:17
"null","https://psyc-201.github.io/xiang2023/exp/index1.html?PROLIFIC_PID=REDACTED&STUDY_ID=691f8ca61c6b4dcbb0aeb5f4&SESSION_ID=691fb5b1503a22c9c1904fa8","html-keyboard-response",23,762000,"0.0-325.0","adjh18wI5oAu2EHZFFW1ewV0NTdHhaRMAy5hneuZq0OILJyXjpR/0AOhJ5VqzJtOAmkbjHUEM+G7wJmP/DQSaitW3Jd/DdPDv8GrmTtF3gsC+vKP2R+xzW+Ql2oa7Ws4IVxGLQrH/Fpb0hhLtBsSlai4U0aqbhkBABxi/Pm1Tp/QuEoFJW65vvc2UvWecPqPSMGPiEHHHZZ2q/OFjwDl/zASWyXz6h5fd7eF3V4LoNTIVfEmfxwF9gIIJA69A8bwXvYy/Y3g8j9sz6PKzLBO0Fz778WGhQYaG29AIsH4wf8xHWRP6/vKsfWv/p3Vs5t6zrm5Xo8Q2eJ4Kd3gBl2chg==","691f8ca61c6b4dcbb0aeb5f4","691fb5b1503a22c9c1904fa8","index1","<span style='color:red'>Fail,<span style='color:red'>Fail,<span style='color:green'>Lift,<span style='color:green'>Lift,<span style='color:red'>Fail,<span style='color:red'>Fail,<span style='color:red'>Fail,<span style='color:red'>Fail,<span style='color:red'>Fail,<span style='color:green'>Lift,<span style='color:red'>Fail,<span style='color:green'>Lift","<span style='color:red'>Fail,<span style='color:red'>Fail,<span style='color:green'>Lift,<span style='color:green'>Lift,<span style='color:green'>Lift,<span style='color:green'>Lift,<span style='color:green'>Lift,<span style='color:red'>Fail,<span style='color:green'>Lift,<span style='color:green'>Lift,<span style='color:red'>Fail,<span style='color:green'>Lift","<span style='color:red'>Fail,<span style='color:green'>Lift,<span style='color:green'>Lift,<span style='color:red'>Fail,<span style='color:green'>Lift,<span style='color:green'>Lift","0,0,1,1,0,0,0,0,0,1,0,1","0,0,1,1,1,1,1,0,1,1,0,1","0,1,1,0,1,1",10,20,20,"","","<p style='font-size:30px'><b> New Contest! </b></p>","null","","",NA,3,"",NA,NA,NA,NA,NA,NA,NA,NA,NA,NA,NA,NA,NA,NA,NA,NA,NA,NA,NA,NA,NA,NA,NA,NA,NA,NA,NA,NA,NA,NA,NA,NA,NA,NA,NA,NA,NA,NA,NA,NA,"",NA,NA,NA,NA,NA,NA,NA,NA,2025-11-21 01:03:17
"29137","https://psyc-201.github.io/xiang2023/exp/index1.html?PROLIFIC_PID=REDACTED&STUDY_ID=691f8ca61c6b4dcbb0aeb5f4&SESSION_ID=691fb5b1503a22c9c1904fa8","survey-html-form",24,791138,"0.0-326.0","adjh18wI5oAu2EHZFFW1ewV0NTdHhaRMAy5hneuZq0OILJyXjpR/0AOhJ5VqzJtOAmkbjHUEM+G7wJmP/DQSaitW3Jd/DdPDv8GrmTtF3gsC+vKP2R+xzW+Ql2oa7Ws4IVxGLQrH/Fpb0hhLtBsSlai4U0aqbhkBABxi/Pm1Tp/QuEoFJW65vvc2UvWecPqPSMGPiEHHHZZ2q/OFjwDl/zASWyXz6h5fd7eF3V4LoNTIVfEmfxwF9gIIJA69A8bwXvYy/Y3g8j9sz6PKzLBO0Fz778WGhQYaG29AIsH4wf8xHWRP6/vKsfWv/p3Vs5t6zrm5Xo8Q2eJ4Kd3gBl2chg==","691f8ca61c6b4dcbb0aeb5f4","691fb5b1503a22c9c1904fa8","index1","<span style='color:red'>Fail,<span style='color:red'>Fail,<span style='color:green'>Lift,<span style='color:green'>Lift,<span style='color:red'>Fail,<span style='color:red'>Fail,<span style='color:red'>Fail,<span style='color:red'>Fail,<span style='color:red'>Fail,<span style='color:green'>Lift,<span style='color:red'>Fail,<span style='color:green'>Lift","<span style='color:red'>Fail,<span style='color:red'>Fail,<span style='color:green'>Lift,<span style='color:green'>Lift,<span style='color:green'>Lift,<span style='color:green'>Lift,<span style='color:green'>Lift,<span style='color:red'>Fail,<span style='color:green'>Lift,<span style='color:green'>Lift,<span style='color:red'>Fail,<span style='color:green'>Lift","<span style='color:red'>Fail,<span style='color:green'>Lift,<span style='color:green'>Lift,<span style='color:red'>Fail,<span style='color:green'>Lift,<span style='color:green'>Lift","0,0,1,1,0,0,0,0,0,1,0,1","0,0,1,1,1,1,1,0,1,1,0,1","0,1,1,0,1,1",10,20,20,"","","","","{""box1"":""4"",""box2"":""6"",""box4"":""25""}","",NA,3,"round1_outcome",1,3,1,4,6,NA,25,0,1,10,4,6,NA,25,0,1,10,NA,NA,NA,NA,NA,NA,NA,NA,NA,NA,NA,NA,NA,NA,NA,NA,NA,NA,NA,NA,NA,NA,NA,"",NA,NA,NA,NA,NA,NA,NA,NA,2025-11-21 01:03:17
"11343.400000002235","https://psyc-201.github.io/xiang2023/exp/index1.html?PROLIFIC_PID=REDACTED&STUDY_ID=691f8ca61c6b4dcbb0aeb5f4&SESSION_ID=691fb5b1503a22c9c1904fa8","survey-html-form",25,802481,"0.0-327.0","adjh18wI5oAu2EHZFFW1ewV0NTdHhaRMAy5hneuZq0OILJyXjpR/0AOhJ5VqzJtOAmkbjHUEM+G7wJmP/DQSaitW3Jd/DdPDv8GrmTtF3gsC+vKP2R+xzW+Ql2oa7Ws4IVxGLQrH/Fpb0hhLtBsSlai4U0aqbhkBABxi/Pm1Tp/QuEoFJW65vvc2UvWecPqPSMGPiEHHHZZ2q/OFjwDl/zASWyXz6h5fd7eF3V4LoNTIVfEmfxwF9gIIJA69A8bwXvYy/Y3g8j9sz6PKzLBO0Fz778WGhQYaG29AIsH4wf8xHWRP6/vKsfWv/p3Vs5t6zrm5Xo8Q2eJ4Kd3gBl2chg==","691f8ca61c6b4dcbb0aeb5f4","691fb5b1503a22c9c1904fa8","index1","<span style='color:red'>Fail,<span style='color:red'>Fail,<span style='color:green'>Lift,<span style='color:green'>Lift,<span style='color:red'>Fail,<span style='color:red'>Fail,<span style='color:red'>Fail,<span style='color:red'>Fail,<span style='color:red'>Fail,<span style='color:green'>Lift,<span style='color:red'>Fail,<span style='color:green'>Lift","<span style='color:red'>Fail,<span style='color:red'>Fail,<span style='color:green'>Lift,<span style='color:green'>Lift,<span style='color:green'>Lift,<span style='color:green'>Lift,<span style='color:green'>Lift,<span style='color:red'>Fail,<span style='color:green'>Lift,<span style='color:green'>Lift,<span style='color:red'>Fail,<span style='color:green'>Lift","<span style='color:red'>Fail,<span style='color:green'>Lift,<span style='color:green'>Lift,<span style='color:red'>Fail,<span style='color:green'>Lift,<span style='color:green'>Lift","0,0,1,1,0,0,0,0,0,1,0,1","0,0,1,1,1,1,1,0,1,1,0,1","0,1,1,0,1,1",10,20,20,"","","","","{""box1"":""10"",""box2"":""85""}","",NA,3,"round2_ready",2,3,2,NA,NA,NA,NA,NA,NA,NA,NA,NA,NA,NA,NA,NA,NA,10,85,10,85,NA,NA,NA,NA,NA,NA,NA,NA,NA,NA,NA,NA,NA,NA,NA,NA,NA,NA,NA,"",NA,NA,NA,NA,NA,NA,NA,NA,2025-11-21 01:03:17
"21707","https://psyc-201.github.io/xiang2023/exp/index1.html?PROLIFIC_PID=REDACTED&STUDY_ID=691f8ca61c6b4dcbb0aeb5f4&SESSION_ID=691fb5b1503a22c9c1904fa8","survey-html-form",26,824189,"0.0-328.0","adjh18wI5oAu2EHZFFW1ewV0NTdHhaRMAy5hneuZq0OILJyXjpR/0AOhJ5VqzJtOAmkbjHUEM+G7wJmP/DQSaitW3Jd/DdPDv8GrmTtF3gsC+vKP2R+xzW+Ql2oa7Ws4IVxGLQrH/Fpb0hhLtBsSlai4U0aqbhkBABxi/Pm1Tp/QuEoFJW65vvc2UvWecPqPSMGPiEHHHZZ2q/OFjwDl/zASWyXz6h5fd7eF3V4LoNTIVfEmfxwF9gIIJA69A8bwXvYy/Y3g8j9sz6PKzLBO0Fz778WGhQYaG29AIsH4wf8xHWRP6/vKsfWv/p3Vs5t6zrm5Xo8Q2eJ4Kd3gBl2chg==","691f8ca61c6b4dcbb0aeb5f4","691fb5b1503a22c9c1904fa8","index1","<span style='color:red'>Fail,<span style='color:red'>Fail,<span style='color:green'>Lift,<span style='color:green'>Lift,<span style='color:red'>Fail,<span style='color:red'>Fail,<span style='color:red'>Fail,<span style='color:red'>Fail,<span style='color:red'>Fail,<span style='color:green'>Lift,<span style='color:red'>Fail,<span style='color:green'>Lift","<span style='color:red'>Fail,<span style='color:red'>Fail,<span style='color:green'>Lift,<span style='color:green'>Lift,<span style='color:green'>Lift,<span style='color:green'>Lift,<span style='color:green'>Lift,<span style='color:red'>Fail,<span style='color:green'>Lift,<span style='color:green'>Lift,<span style='color:red'>Fail,<span style='color:green'>Lift","<span style='color:red'>Fail,<span style='color:green'>Lift,<span style='color:green'>Lift,<span style='color:red'>Fail,<span style='color:green'>Lift,<span style='color:green'>Lift","0,0,1,1,0,0,0,0,0,1,0,1","0,0,1,1,1,1,1,0,1,1,0,1","0,1,1,0,1,1",10,20,20,"","","","","{""box1"":""3"",""box2"":""6"",""box4"":""45""}","",NA,3,"round2_outcome",3,3,2,3,6,NA,45,0,1,20,NA,NA,NA,NA,NA,NA,NA,NA,NA,NA,NA,3,6,NA,45,0,1,20,NA,NA,NA,NA,NA,NA,NA,NA,NA,NA,NA,NA,"",NA,NA,NA,NA,NA,NA,NA,NA,2025-11-21 01:03:17
"4702.10000000149","https://psyc-201.github.io/xiang2023/exp/index1.html?PROLIFIC_PID=REDACTED&STUDY_ID=691f8ca61c6b4dcbb0aeb5f4&SESSION_ID=691fb5b1503a22c9c1904fa8","survey-html-form",27,828892,"0.0-329.0","adjh18wI5oAu2EHZFFW1ewV0NTdHhaRMAy5hneuZq0OILJyXjpR/0AOhJ5VqzJtOAmkbjHUEM+G7wJmP/DQSaitW3Jd/DdPDv8GrmTtF3gsC+vKP2R+xzW+Ql2oa7Ws4IVxGLQrH/Fpb0hhLtBsSlai4U0aqbhkBABxi/Pm1Tp/QuEoFJW65vvc2UvWecPqPSMGPiEHHHZZ2q/OFjwDl/zASWyXz6h5fd7eF3V4LoNTIVfEmfxwF9gIIJA69A8bwXvYy/Y3g8j9sz6PKzLBO0Fz778WGhQYaG29AIsH4wf8xHWRP6/vKsfWv/p3Vs5t6zrm5Xo8Q2eJ4Kd3gBl2chg==","691f8ca61c6b4dcbb0aeb5f4","691fb5b1503a22c9c1904fa8","index1","<span style='color:red'>Fail,<span style='color:red'>Fail,<span style='color:green'>Lift,<span style='color:green'>Lift,<span style='color:red'>Fail,<span style='color:red'>Fail,<span style='color:red'>Fail,<span style='color:red'>Fail,<span style='color:red'>Fail,<span style='color:green'>Lift,<span style='color:red'>Fail,<span style='color:green'>Lift","<span style='color:red'>Fail,<span style='color:red'>Fail,<span style='color:green'>Lift,<span style='color:green'>Lift,<span style='color:green'>Lift,<span style='color:green'>Lift,<span style='color:green'>Lift,<span style='color:red'>Fail,<span style='color:green'>Lift,<span style='color:green'>Lift,<span style='color:red'>Fail,<span style='color:green'>Lift","<span style='color:red'>Fail,<span style='color:green'>Lift,<span style='color:green'>Lift,<span style='color:red'>Fail,<span style='color:green'>Lift,<span style='color:green'>Lift","0,0,1,1,0,0,0,0,0,1,0,1","0,0,1,1,1,1,1,0,1,1,0,1","0,1,1,0,1,1",10,20,20,"","","","","{""box1"":""90""}","",NA,3,"round3_ready",4,3,3,NA,NA,NA,NA,NA,NA,NA,NA,NA,NA,NA,NA,NA,NA,90,90,NA,NA,NA,NA,NA,NA,NA,NA,NA,90,90,NA,NA,NA,NA,NA,NA,NA,NA,NA,NA,"",NA,NA,NA,NA,NA,NA,NA,NA,2025-11-21 01:03:17
"24019.29999999702","https://psyc-201.github.io/xiang2023/exp/index1.html?PROLIFIC_PID=REDACTED&STUDY_ID=691f8ca61c6b4dcbb0aeb5f4&SESSION_ID=691fb5b1503a22c9c1904fa8","survey-html-form",28,852911,"0.0-330.0-0.0","adjh18wI5oAu2EHZFFW1ewV0NTdHhaRMAy5hneuZq0OILJyXjpR/0AOhJ5VqzJtOAmkbjHUEM+G7wJmP/DQSaitW3Jd/DdPDv8GrmTtF3gsC+vKP2R+xzW+Ql2oa7Ws4IVxGLQrH/Fpb0hhLtBsSlai4U0aqbhkBABxi/Pm1Tp/QuEoFJW65vvc2UvWecPqPSMGPiEHHHZZ2q/OFjwDl/zASWyXz6h5fd7eF3V4LoNTIVfEmfxwF9gIIJA69A8bwXvYy/Y3g8j9sz6PKzLBO0Fz778WGhQYaG29AIsH4wf8xHWRP6/vKsfWv/p3Vs5t6zrm5Xo8Q2eJ4Kd3gBl2chg==","691f8ca61c6b4dcbb0aeb5f4","691fb5b1503a22c9c1904fa8","index1","<span style='color:red'>Fail,<span style='color:red'>Fail,<span style='color:green'>Lift,<span style='color:green'>Lift,<span style='color:red'>Fail,<span style='color:red'>Fail,<span style='color:red'>Fail,<span style='color:red'>Fail,<span style='color:red'>Fail,<span style='color:green'>Lift,<span style='color:red'>Fail,<span style='color:green'>Lift","<span style='color:red'>Fail,<span style='color:red'>Fail,<span style='color:green'>Lift,<span style='color:green'>Lift,<span style='color:green'>Lift,<span style='color:green'>Lift,<span style='color:green'>Lift,<span style='color:red'>Fail,<span style='color:green'>Lift,<span style='color:green'>Lift,<span style='color:red'>Fail,<span style='color:green'>Lift","<span style='color:red'>Fail,<span style='color:green'>Lift,<span style='color:green'>Lift,<span style='color:red'>Fail,<span style='color:green'>Lift,<span style='color:green'>Lift","0,0,1,1,0,0,0,0,0,1,0,1","0,0,1,1,1,1,1,0,1,1,0,1","0,1,1,0,1,1",10,20,20,"","","","","{""box1"":""3"",""box2"":""6"",""box3"":""25"",""box4"":""35""}","",NA,4,"round3_lift",5,3,3,3,6,25,35,1,1,20,NA,NA,NA,NA,NA,NA,NA,NA,NA,NA,NA,NA,NA,NA,NA,NA,NA,NA,NA,NA,NA,NA,3,6,1,1,20,25,35,NA,"",NA,NA,NA,NA,NA,NA,NA,NA,2025-11-21 01:03:17
"null","https://psyc-201.github.io/xiang2023/exp/index1.html?PROLIFIC_PID=REDACTED&STUDY_ID=691f8ca61c6b4dcbb0aeb5f4&SESSION_ID=691fb5b1503a22c9c1904fa8","html-keyboard-response",29,855914,"0.0-334.0","adjh18wI5oAu2EHZFFW1ewV0NTdHhaRMAy5hneuZq0OILJyXjpR/0AOhJ5VqzJtOAmkbjHUEM+G7wJmP/DQSaitW3Jd/DdPDv8GrmTtF3gsC+vKP2R+xzW+Ql2oa7Ws4IVxGLQrH/Fpb0hhLtBsSlai4U0aqbhkBABxi/Pm1Tp/QuEoFJW65vvc2UvWecPqPSMGPiEHHHZZ2q/OFjwDl/zASWyXz6h5fd7eF3V4LoNTIVfEmfxwF9gIIJA69A8bwXvYy/Y3g8j9sz6PKzLBO0Fz778WGhQYaG29AIsH4wf8xHWRP6/vKsfWv/p3Vs5t6zrm5Xo8Q2eJ4Kd3gBl2chg==","691f8ca61c6b4dcbb0aeb5f4","691fb5b1503a22c9c1904fa8","index1","<span style='color:red'>Fail,<span style='color:red'>Fail,<span style='color:green'>Lift,<span style='color:green'>Lift,<span style='color:red'>Fail,<span style='color:red'>Fail,<span style='color:red'>Fail,<span style='color:red'>Fail,<span style='color:red'>Fail,<span style='color:green'>Lift,<span style='color:red'>Fail,<span style='color:green'>Lift","<span style='color:red'>Fail,<span style='color:red'>Fail,<span style='color:green'>Lift,<span style='color:green'>Lift,<span style='color:green'>Lift,<span style='color:green'>Lift,<span style='color:green'>Lift,<span style='color:red'>Fail,<span style='color:green'>Lift,<span style='color:green'>Lift,<span style='color:red'>Fail,<span style='color:green'>Lift","<span style='color:red'>Fail,<span style='color:green'>Lift,<span style='color:green'>Lift,<span style='color:red'>Fail,<span style='color:green'>Lift,<span style='color:green'>Lift","0,0,1,1,0,0,0,0,0,1,0,1","0,0,1,1,1,1,1,0,1,1,0,1","0,1,1,0,1,1",10,20,20,"","","<p style='font-size:30px'><b> New Contest! </b></p>","null","","",NA,4,"",NA,NA,NA,NA,NA,NA,NA,NA,NA,NA,NA,NA,NA,NA,NA,NA,NA,NA,NA,NA,NA,NA,NA,NA,NA,NA,NA,NA,NA,NA,NA,NA,NA,NA,NA,NA,NA,NA,NA,NA,"",NA,NA,NA,NA,NA,NA,NA,NA,2025-11-21 01:03:17
"79674.80000000075","https://psyc-201.github.io/xiang2023/exp/index1.html?PROLIFIC_PID=REDACTED&STUDY_ID=691f8ca61c6b4dcbb0aeb5f4&SESSION_ID=691fb5b1503a22c9c1904fa8","survey-html-form",30,935589,"0.0-335.0","adjh18wI5oAu2EHZFFW1ewV0NTdHhaRMAy5hneuZq0OILJyXjpR/0AOhJ5VqzJtOAmkbjHUEM+G7wJmP/DQSaitW3Jd/DdPDv8GrmTtF3gsC+vKP2R+xzW+Ql2oa7Ws4IVxGLQrH/Fpb0hhLtBsSlai4U0aqbhkBABxi/Pm1Tp/QuEoFJW65vvc2UvWecPqPSMGPiEHHHZZ2q/OFjwDl/zASWyXz6h5fd7eF3V4LoNTIVfEmfxwF9gIIJA69A8bwXvYy/Y3g8j9sz6PKzLBO0Fz778WGhQYaG29AIsH4wf8xHWRP6/vKsfWv/p3Vs5t6zrm5Xo8Q2eJ4Kd3gBl2chg==","691f8ca61c6b4dcbb0aeb5f4","691fb5b1503a22c9c1904fa8","index1","<span style='color:red'>Fail,<span style='color:red'>Fail,<span style='color:green'>Lift,<span style='color:green'>Lift,<span style='color:red'>Fail,<span style='color:red'>Fail,<span style='color:red'>Fail,<span style='color:red'>Fail,<span style='color:red'>Fail,<span style='color:green'>Lift,<span style='color:red'>Fail,<span style='color:green'>Lift","<span style='color:red'>Fail,<span style='color:red'>Fail,<span style='color:green'>Lift,<span style='color:green'>Lift,<span style='color:green'>Lift,<span style='color:green'>Lift,<span style='color:green'>Lift,<span style='color:red'>Fail,<span style='color:green'>Lift,<span style='color:green'>Lift,<span style='color:red'>Fail,<span style='color:green'>Lift","<span style='color:red'>Fail,<span style='color:green'>Lift,<span style='color:green'>Lift,<span style='color:red'>Fail,<span style='color:green'>Lift,<span style='color:green'>Lift","0,0,1,1,0,0,0,0,0,1,0,1","0,0,1,1,1,1,1,0,1,1,0,1","0,1,1,0,1,1",10,20,20,"","","","","{""box1"":""2"",""box2"":""7"",""box4"":""15""}","",NA,4,"round1_outcome",1,4,1,2,7,NA,15,0,1,10,2,7,NA,15,0,1,10,NA,NA,NA,NA,NA,NA,NA,NA,NA,NA,NA,NA,NA,NA,NA,NA,NA,NA,NA,NA,NA,NA,NA,"",NA,NA,NA,NA,NA,NA,NA,NA,2025-11-21 01:03:17
"6961.599999997765","https://psyc-201.github.io/xiang2023/exp/index1.html?PROLIFIC_PID=REDACTED&STUDY_ID=691f8ca61c6b4dcbb0aeb5f4&SESSION_ID=691fb5b1503a22c9c1904fa8","survey-html-form",31,942551,"0.0-336.0","adjh18wI5oAu2EHZFFW1ewV0NTdHhaRMAy5hneuZq0OILJyXjpR/0AOhJ5VqzJtOAmkbjHUEM+G7wJmP/DQSaitW3Jd/DdPDv8GrmTtF3gsC+vKP2R+xzW+Ql2oa7Ws4IVxGLQrH/Fpb0hhLtBsSlai4U0aqbhkBABxi/Pm1Tp/QuEoFJW65vvc2UvWecPqPSMGPiEHHHZZ2q/OFjwDl/zASWyXz6h5fd7eF3V4LoNTIVfEmfxwF9gIIJA69A8bwXvYy/Y3g8j9sz6PKzLBO0Fz778WGhQYaG29AIsH4wf8xHWRP6/vKsfWv/p3Vs5t6zrm5Xo8Q2eJ4Kd3gBl2chg==","691f8ca61c6b4dcbb0aeb5f4","691fb5b1503a22c9c1904fa8","index1","<span style='color:red'>Fail,<span style='color:red'>Fail,<span style='color:green'>Lift,<span style='color:green'>Lift,<span style='color:red'>Fail,<span style='color:red'>Fail,<span style='color:red'>Fail,<span style='color:red'>Fail,<span style='color:red'>Fail,<span style='color:green'>Lift,<span style='color:red'>Fail,<span style='color:green'>Lift","<span style='color:red'>Fail,<span style='color:red'>Fail,<span style='color:green'>Lift,<span style='color:green'>Lift,<span style='color:green'>Lift,<span style='color:green'>Lift,<span style='color:green'>Lift,<span style='color:red'>Fail,<span style='color:green'>Lift,<span style='color:green'>Lift,<span style='color:red'>Fail,<span style='color:green'>Lift","<span style='color:red'>Fail,<span style='color:green'>Lift,<span style='color:green'>Lift,<span style='color:red'>Fail,<span style='color:green'>Lift,<span style='color:green'>Lift","0,0,1,1,0,0,0,0,0,1,0,1","0,0,1,1,1,1,1,0,1,1,0,1","0,1,1,0,1,1",10,20,20,"","","","","{""box1"":""20"",""box2"":""100""}","",NA,4,"round2_ready",2,4,2,NA,NA,NA,NA,NA,NA,NA,NA,NA,NA,NA,NA,NA,NA,20,100,20,100,NA,NA,NA,NA,NA,NA,NA,NA,NA,NA,NA,NA,NA,NA,NA,NA,NA,NA,NA,"",NA,NA,NA,NA,NA,NA,NA,NA,2025-11-21 01:03:17
"17803.800000000745","https://psyc-201.github.io/xiang2023/exp/index1.html?PROLIFIC_PID=REDACTED&STUDY_ID=691f8ca61c6b4dcbb0aeb5f4&SESSION_ID=691fb5b1503a22c9c1904fa8","survey-html-form",32,960356,"0.0-337.0","adjh18wI5oAu2EHZFFW1ewV0NTdHhaRMAy5hneuZq0OILJyXjpR/0AOhJ5VqzJtOAmkbjHUEM+G7wJmP/DQSaitW3Jd/DdPDv8GrmTtF3gsC+vKP2R+xzW+Ql2oa7Ws4IVxGLQrH/Fpb0hhLtBsSlai4U0aqbhkBABxi/Pm1Tp/QuEoFJW65vvc2UvWecPqPSMGPiEHHHZZ2q/OFjwDl/zASWyXz6h5fd7eF3V4LoNTIVfEmfxwF9gIIJA69A8bwXvYy/Y3g8j9sz6PKzLBO0Fz778WGhQYaG29AIsH4wf8xHWRP6/vKsfWv/p3Vs5t6zrm5Xo8Q2eJ4Kd3gBl2chg==","691f8ca61c6b4dcbb0aeb5f4","691fb5b1503a22c9c1904fa8","index1","<span style='color:red'>Fail,<span style='color:red'>Fail,<span style='color:green'>Lift,<span style='color:green'>Lift,<span style='color:red'>Fail,<span style='color:red'>Fail,<span style='color:red'>Fail,<span style='color:red'>Fail,<span style='color:red'>Fail,<span style='color:green'>Lift,<span style='color:red'>Fail,<span style='color:green'>Lift","<span style='color:red'>Fail,<span style='color:red'>Fail,<span style='color:green'>Lift,<span style='color:green'>Lift,<span style='color:green'>Lift,<span style='color:green'>Lift,<span style='color:green'>Lift,<span style='color:red'>Fail,<span style='color:green'>Lift,<span style='color:green'>Lift,<span style='color:red'>Fail,<span style='color:green'>Lift","<span style='color:red'>Fail,<span style='color:green'>Lift,<span style='color:green'>Lift,<span style='color:red'>Fail,<span style='color:green'>Lift,<span style='color:green'>Lift","0,0,1,1,0,0,0,0,0,1,0,1","0,0,1,1,1,1,1,0,1,1,0,1","0,1,1,0,1,1",10,20,20,"","","","","{""box1"":""5"",""box2"":""7"",""box3"":""80"",""box4"":""25""}","",NA,4,"round2_outcome",3,4,2,5,7,80,25,1,1,20,NA,NA,NA,NA,NA,NA,NA,NA,NA,NA,NA,5,7,80,25,1,1,20,NA,NA,NA,NA,NA,NA,NA,NA,NA,NA,NA,NA,"",NA,NA,NA,NA,NA,NA,NA,NA,2025-11-21 01:03:17
"3137","https://psyc-201.github.io/xiang2023/exp/index1.html?PROLIFIC_PID=REDACTED&STUDY_ID=691f8ca61c6b4dcbb0aeb5f4&SESSION_ID=691fb5b1503a22c9c1904fa8","survey-html-form",33,963494,"0.0-338.0","adjh18wI5oAu2EHZFFW1ewV0NTdHhaRMAy5hneuZq0OILJyXjpR/0AOhJ5VqzJtOAmkbjHUEM+G7wJmP/DQSaitW3Jd/DdPDv8GrmTtF3gsC+vKP2R+xzW+Ql2oa7Ws4IVxGLQrH/Fpb0hhLtBsSlai4U0aqbhkBABxi/Pm1Tp/QuEoFJW65vvc2UvWecPqPSMGPiEHHHZZ2q/OFjwDl/zASWyXz6h5fd7eF3V4LoNTIVfEmfxwF9gIIJA69A8bwXvYy/Y3g8j9sz6PKzLBO0Fz778WGhQYaG29AIsH4wf8xHWRP6/vKsfWv/p3Vs5t6zrm5Xo8Q2eJ4Kd3gBl2chg==","691f8ca61c6b4dcbb0aeb5f4","691fb5b1503a22c9c1904fa8","index1","<span style='color:red'>Fail,<span style='color:red'>Fail,<span style='color:green'>Lift,<span style='color:green'>Lift,<span style='color:red'>Fail,<span style='color:red'>Fail,<span style='color:red'>Fail,<span style='color:red'>Fail,<span style='color:red'>Fail,<span style='color:green'>Lift,<span style='color:red'>Fail,<span style='color:green'>Lift","<span style='color:red'>Fail,<span style='color:red'>Fail,<span style='color:green'>Lift,<span style='color:green'>Lift,<span style='color:green'>Lift,<span style='color:green'>Lift,<span style='color:green'>Lift,<span style='color:red'>Fail,<span style='color:green'>Lift,<span style='color:green'>Lift,<span style='color:red'>Fail,<span style='color:green'>Lift","<span style='color:red'>Fail,<span style='color:green'>Lift,<span style='color:green'>Lift,<span style='color:red'>Fail,<span style='color:green'>Lift,<span style='color:green'>Lift","0,0,1,1,0,0,0,0,0,1,0,1","0,0,1,1,1,1,1,0,1,1,0,1","0,1,1,0,1,1",10,20,20,"","","","","{""box1"":""100""}","",NA,4,"round3_ready",4,4,3,NA,NA,NA,NA,NA,NA,NA,NA,NA,NA,NA,NA,NA,NA,100,100,NA,NA,NA,NA,NA,NA,NA,NA,NA,100,100,NA,NA,NA,NA,NA,NA,NA,NA,NA,NA,"",NA,NA,NA,NA,NA,NA,NA,NA,2025-11-21 01:03:17
"11078.900000002235","https://psyc-201.github.io/xiang2023/exp/index1.html?PROLIFIC_PID=REDACTED&STUDY_ID=691f8ca61c6b4dcbb0aeb5f4&SESSION_ID=691fb5b1503a22c9c1904fa8","survey-html-form",34,974574,"0.0-339.0-0.0","adjh18wI5oAu2EHZFFW1ewV0NTdHhaRMAy5hneuZq0OILJyXjpR/0AOhJ5VqzJtOAmkbjHUEM+G7wJmP/DQSaitW3Jd/DdPDv8GrmTtF3gsC+vKP2R+xzW+Ql2oa7Ws4IVxGLQrH/Fpb0hhLtBsSlai4U0aqbhkBABxi/Pm1Tp/QuEoFJW65vvc2UvWecPqPSMGPiEHHHZZ2q/OFjwDl/zASWyXz6h5fd7eF3V4LoNTIVfEmfxwF9gIIJA69A8bwXvYy/Y3g8j9sz6PKzLBO0Fz778WGhQYaG29AIsH4wf8xHWRP6/vKsfWv/p3Vs5t6zrm5Xo8Q2eJ4Kd3gBl2chg==","691f8ca61c6b4dcbb0aeb5f4","691fb5b1503a22c9c1904fa8","index1","<span style='color:red'>Fail,<span style='color:red'>Fail,<span style='color:green'>Lift,<span style='color:green'>Lift,<span style='color:red'>Fail,<span style='color:red'>Fail,<span style='color:red'>Fail,<span style='color:red'>Fail,<span style='color:red'>Fail,<span style='color:green'>Lift,<span style='color:red'>Fail,<span style='color:green'>Lift","<span style='color:red'>Fail,<span style='color:red'>Fail,<span style='color:green'>Lift,<span style='color:green'>Lift,<span style='color:green'>Lift,<span style='color:green'>Lift,<span style='color:green'>Lift,<span style='color:red'>Fail,<span style='color:green'>Lift,<span style='color:green'>Lift,<span style='color:red'>Fail,<span style='color:green'>Lift","<span style='color:red'>Fail,<span style='color:green'>Lift,<span style='color:green'>Lift,<span style='color:red'>Fail,<span style='color:green'>Lift,<span style='color:green'>Lift","0,0,1,1,0,0,0,0,0,1,0,1","0,0,1,1,1,1,1,0,1,1,0,1","0,1,1,0,1,1",10,20,20,"","","","","{""box1"":""5"",""box2"":""7"",""box3"":""25"",""box4"":""35""}","",NA,5,"round3_lift",5,4,3,5,7,25,35,1,1,20,NA,NA,NA,NA,NA,NA,NA,NA,NA,NA,NA,NA,NA,NA,NA,NA,NA,NA,NA,NA,NA,NA,5,7,1,1,20,25,35,NA,"",NA,NA,NA,NA,NA,NA,NA,NA,2025-11-21 01:03:17
"null","https://psyc-201.github.io/xiang2023/exp/index1.html?PROLIFIC_PID=REDACTED&STUDY_ID=691f8ca61c6b4dcbb0aeb5f4&SESSION_ID=691fb5b1503a22c9c1904fa8","html-keyboard-response",35,977587,"0.0-343.0","adjh18wI5oAu2EHZFFW1ewV0NTdHhaRMAy5hneuZq0OILJyXjpR/0AOhJ5VqzJtOAmkbjHUEM+G7wJmP/DQSaitW3Jd/DdPDv8GrmTtF3gsC+vKP2R+xzW+Ql2oa7Ws4IVxGLQrH/Fpb0hhLtBsSlai4U0aqbhkBABxi/Pm1Tp/QuEoFJW65vvc2UvWecPqPSMGPiEHHHZZ2q/OFjwDl/zASWyXz6h5fd7eF3V4LoNTIVfEmfxwF9gIIJA69A8bwXvYy/Y3g8j9sz6PKzLBO0Fz778WGhQYaG29AIsH4wf8xHWRP6/vKsfWv/p3Vs5t6zrm5Xo8Q2eJ4Kd3gBl2chg==","691f8ca61c6b4dcbb0aeb5f4","691fb5b1503a22c9c1904fa8","index1","<span style='color:red'>Fail,<span style='color:red'>Fail,<span style='color:green'>Lift,<span style='color:green'>Lift,<span style='color:red'>Fail,<span style='color:red'>Fail,<span style='color:red'>Fail,<span style='color:red'>Fail,<span style='color:red'>Fail,<span style='color:green'>Lift,<span style='color:red'>Fail,<span style='color:green'>Lift","<span style='color:red'>Fail,<span style='color:red'>Fail,<span style='color:green'>Lift,<span style='color:green'>Lift,<span style='color:green'>Lift,<span style='color:green'>Lift,<span style='color:green'>Lift,<span style='color:red'>Fail,<span style='color:green'>Lift,<span style='color:green'>Lift,<span style='color:red'>Fail,<span style='color:green'>Lift","<span style='color:red'>Fail,<span style='color:green'>Lift,<span style='color:green'>Lift,<span style='color:red'>Fail,<span style='color:green'>Lift,<span style='color:green'>Lift","0,0,1,1,0,0,0,0,0,1,0,1","0,0,1,1,1,1,1,0,1,1,0,1","0,1,1,0,1,1",10,20,20,"","","<p style='font-size:30px'><b> New Contest! </b></p>","null","","",NA,5,"",NA,NA,NA,NA,NA,NA,NA,NA,NA,NA,NA,NA,NA,NA,NA,NA,NA,NA,NA,NA,NA,NA,NA,NA,NA,NA,NA,NA,NA,NA,NA,NA,NA,NA,NA,NA,NA,NA,NA,NA,"",NA,NA,NA,NA,NA,NA,NA,NA,2025-11-21 01:03:17
"35813.099999997765","https://psyc-201.github.io/xiang2023/exp/index1.html?PROLIFIC_PID=REDACTED&STUDY_ID=691f8ca61c6b4dcbb0aeb5f4&SESSION_ID=691fb5b1503a22c9c1904fa8","survey-html-form",36,1013400,"0.0-344.0","adjh18wI5oAu2EHZFFW1ewV0NTdHhaRMAy5hneuZq0OILJyXjpR/0AOhJ5VqzJtOAmkbjHUEM+G7wJmP/DQSaitW3Jd/DdPDv8GrmTtF3gsC+vKP2R+xzW+Ql2oa7Ws4IVxGLQrH/Fpb0hhLtBsSlai4U0aqbhkBABxi/Pm1Tp/QuEoFJW65vvc2UvWecPqPSMGPiEHHHZZ2q/OFjwDl/zASWyXz6h5fd7eF3V4LoNTIVfEmfxwF9gIIJA69A8bwXvYy/Y3g8j9sz6PKzLBO0Fz778WGhQYaG29AIsH4wf8xHWRP6/vKsfWv/p3Vs5t6zrm5Xo8Q2eJ4Kd3gBl2chg==","691f8ca61c6b4dcbb0aeb5f4","691fb5b1503a22c9c1904fa8","index1","<span style='color:red'>Fail,<span style='color:red'>Fail,<span style='color:green'>Lift,<span style='color:green'>Lift,<span style='color:red'>Fail,<span style='color:red'>Fail,<span style='color:red'>Fail,<span style='color:red'>Fail,<span style='color:red'>Fail,<span style='color:green'>Lift,<span style='color:red'>Fail,<span style='color:green'>Lift","<span style='color:red'>Fail,<span style='color:red'>Fail,<span style='color:green'>Lift,<span style='color:green'>Lift,<span style='color:green'>Lift,<span style='color:green'>Lift,<span style='color:green'>Lift,<span style='color:red'>Fail,<span style='color:green'>Lift,<span style='color:green'>Lift,<span style='color:red'>Fail,<span style='color:green'>Lift","<span style='color:red'>Fail,<span style='color:green'>Lift,<span style='color:green'>Lift,<span style='color:red'>Fail,<span style='color:green'>Lift,<span style='color:green'>Lift","0,0,1,1,0,0,0,0,0,1,0,1","0,0,1,1,1,1,1,0,1,1,0,1","0,1,1,0,1,1",10,20,20,"","","","","{""box1"":""4"",""box2"":""4""}","",NA,5,"round1_outcome",1,5,1,4,4,NA,NA,0,0,10,4,4,NA,NA,0,0,10,NA,NA,NA,NA,NA,NA,NA,NA,NA,NA,NA,NA,NA,NA,NA,NA,NA,NA,NA,NA,NA,NA,NA,"",NA,NA,NA,NA,NA,NA,NA,NA,2025-11-21 01:03:17
"6055.300000000745","https://psyc-201.github.io/xiang2023/exp/index1.html?PROLIFIC_PID=REDACTED&STUDY_ID=691f8ca61c6b4dcbb0aeb5f4&SESSION_ID=691fb5b1503a22c9c1904fa8","survey-html-form",37,1019456,"0.0-345.0","adjh18wI5oAu2EHZFFW1ewV0NTdHhaRMAy5hneuZq0OILJyXjpR/0AOhJ5VqzJtOAmkbjHUEM+G7wJmP/DQSaitW3Jd/DdPDv8GrmTtF3gsC+vKP2R+xzW+Ql2oa7Ws4IVxGLQrH/Fpb0hhLtBsSlai4U0aqbhkBABxi/Pm1Tp/QuEoFJW65vvc2UvWecPqPSMGPiEHHHZZ2q/OFjwDl/zASWyXz6h5fd7eF3V4LoNTIVfEmfxwF9gIIJA69A8bwXvYy/Y3g8j9sz6PKzLBO0Fz778WGhQYaG29AIsH4wf8xHWRP6/vKsfWv/p3Vs5t6zrm5Xo8Q2eJ4Kd3gBl2chg==","691f8ca61c6b4dcbb0aeb5f4","691fb5b1503a22c9c1904fa8","index1","<span style='color:red'>Fail,<span style='color:red'>Fail,<span style='color:green'>Lift,<span style='color:green'>Lift,<span style='color:red'>Fail,<span style='color:red'>Fail,<span style='color:red'>Fail,<span style='color:red'>Fail,<span style='color:red'>Fail,<span style='color:green'>Lift,<span style='color:red'>Fail,<span style='color:green'>Lift","<span style='color:red'>Fail,<span style='color:red'>Fail,<span style='color:green'>Lift,<span style='color:green'>Lift,<span style='color:green'>Lift,<span style='color:green'>Lift,<span style='color:green'>Lift,<span style='color:red'>Fail,<span style='color:green'>Lift,<span style='color:green'>Lift,<span style='color:red'>Fail,<span style='color:green'>Lift","<span style='color:red'>Fail,<span style='color:green'>Lift,<span style='color:green'>Lift,<span style='color:red'>Fail,<span style='color:green'>Lift,<span style='color:green'>Lift","0,0,1,1,0,0,0,0,0,1,0,1","0,0,1,1,1,1,1,0,1,1,0,1","0,1,1,0,1,1",10,20,20,"","","","","{""box1"":""35"",""box2"":""35""}","",NA,5,"round2_ready",2,5,2,NA,NA,NA,NA,NA,NA,NA,NA,NA,NA,NA,NA,NA,NA,35,35,35,35,NA,NA,NA,NA,NA,NA,NA,NA,NA,NA,NA,NA,NA,NA,NA,NA,NA,NA,NA,"",NA,NA,NA,NA,NA,NA,NA,NA,2025-11-21 01:03:17
"15338.099999997765","https://psyc-201.github.io/xiang2023/exp/index1.html?PROLIFIC_PID=REDACTED&STUDY_ID=691f8ca61c6b4dcbb0aeb5f4&SESSION_ID=691fb5b1503a22c9c1904fa8","survey-html-form",38,1034795,"0.0-346.0","adjh18wI5oAu2EHZFFW1ewV0NTdHhaRMAy5hneuZq0OILJyXjpR/0AOhJ5VqzJtOAmkbjHUEM+G7wJmP/DQSaitW3Jd/DdPDv8GrmTtF3gsC+vKP2R+xzW+Ql2oa7Ws4IVxGLQrH/Fpb0hhLtBsSlai4U0aqbhkBABxi/Pm1Tp/QuEoFJW65vvc2UvWecPqPSMGPiEHHHZZ2q/OFjwDl/zASWyXz6h5fd7eF3V4LoNTIVfEmfxwF9gIIJA69A8bwXvYy/Y3g8j9sz6PKzLBO0Fz778WGhQYaG29AIsH4wf8xHWRP6/vKsfWv/p3Vs5t6zrm5Xo8Q2eJ4Kd3gBl2chg==","691f8ca61c6b4dcbb0aeb5f4","691fb5b1503a22c9c1904fa8","index1","<span style='color:red'>Fail,<span style='color:red'>Fail,<span style='color:green'>Lift,<span style='color:green'>Lift,<span style='color:red'>Fail,<span style='color:red'>Fail,<span style='color:red'>Fail,<span style='color:red'>Fail,<span style='color:red'>Fail,<span style='color:green'>Lift,<span style='color:red'>Fail,<span style='color:green'>Lift","<span style='color:red'>Fail,<span style='color:red'>Fail,<span style='color:green'>Lift,<span style='color:green'>Lift,<span style='color:green'>Lift,<span style='color:green'>Lift,<span style='color:green'>Lift,<span style='color:red'>Fail,<span style='color:green'>Lift,<span style='color:green'>Lift,<span style='color:red'>Fail,<span style='color:green'>Lift","<span style='color:red'>Fail,<span style='color:green'>Lift,<span style='color:green'>Lift,<span style='color:red'>Fail,<span style='color:green'>Lift,<span style='color:green'>Lift","0,0,1,1,0,0,0,0,0,1,0,1","0,0,1,1,1,1,1,0,1,1,0,1","0,1,1,0,1,1",10,20,20,"","","","","{""box1"":""5"",""box2"":""4"",""box3"":""50""}","",NA,5,"round2_outcome",3,5,2,5,4,50,NA,1,0,20,NA,NA,NA,NA,NA,NA,NA,NA,NA,NA,NA,5,4,50,NA,1,0,20,NA,NA,NA,NA,NA,NA,NA,NA,NA,NA,NA,NA,"",NA,NA,NA,NA,NA,NA,NA,NA,2025-11-21 01:03:17
"4137.900000002235","https://psyc-201.github.io/xiang2023/exp/index1.html?PROLIFIC_PID=REDACTED&STUDY_ID=691f8ca61c6b4dcbb0aeb5f4&SESSION_ID=691fb5b1503a22c9c1904fa8","survey-html-form",39,1038933,"0.0-347.0","adjh18wI5oAu2EHZFFW1ewV0NTdHhaRMAy5hneuZq0OILJyXjpR/0AOhJ5VqzJtOAmkbjHUEM+G7wJmP/DQSaitW3Jd/DdPDv8GrmTtF3gsC+vKP2R+xzW+Ql2oa7Ws4IVxGLQrH/Fpb0hhLtBsSlai4U0aqbhkBABxi/Pm1Tp/QuEoFJW65vvc2UvWecPqPSMGPiEHHHZZ2q/OFjwDl/zASWyXz6h5fd7eF3V4LoNTIVfEmfxwF9gIIJA69A8bwXvYy/Y3g8j9sz6PKzLBO0Fz778WGhQYaG29AIsH4wf8xHWRP6/vKsfWv/p3Vs5t6zrm5Xo8Q2eJ4Kd3gBl2chg==","691f8ca61c6b4dcbb0aeb5f4","691fb5b1503a22c9c1904fa8","index1","<span style='color:red'>Fail,<span style='color:red'>Fail,<span style='color:green'>Lift,<span style='color:green'>Lift,<span style='color:red'>Fail,<span style='color:red'>Fail,<span style='color:red'>Fail,<span style='color:red'>Fail,<span style='color:red'>Fail,<span style='color:green'>Lift,<span style='color:red'>Fail,<span style='color:green'>Lift","<span style='color:red'>Fail,<span style='color:red'>Fail,<span style='color:green'>Lift,<span style='color:green'>Lift,<span style='color:green'>Lift,<span style='color:green'>Lift,<span style='color:green'>Lift,<span style='color:red'>Fail,<span style='color:green'>Lift,<span style='color:green'>Lift,<span style='color:red'>Fail,<span style='color:green'>Lift","<span style='color:red'>Fail,<span style='color:green'>Lift,<span style='color:green'>Lift,<span style='color:red'>Fail,<span style='color:green'>Lift,<span style='color:green'>Lift","0,0,1,1,0,0,0,0,0,1,0,1","0,0,1,1,1,1,1,0,1,1,0,1","0,1,1,0,1,1",10,20,20,"","","","","{""box1"":""100""}","",NA,5,"round3_ready",4,5,3,NA,NA,NA,NA,NA,NA,NA,NA,NA,NA,NA,NA,NA,NA,100,100,NA,NA,NA,NA,NA,NA,NA,NA,NA,100,100,NA,NA,NA,NA,NA,NA,NA,NA,NA,NA,"",NA,NA,NA,NA,NA,NA,NA,NA,2025-11-21 01:03:17
"23798.400000002235","https://psyc-201.github.io/xiang2023/exp/index1.html?PROLIFIC_PID=REDACTED&STUDY_ID=691f8ca61c6b4dcbb0aeb5f4&SESSION_ID=691fb5b1503a22c9c1904fa8","survey-html-form",40,1062732,"0.0-349.0-0.0","adjh18wI5oAu2EHZFFW1ewV0NTdHhaRMAy5hneuZq0OILJyXjpR/0AOhJ5VqzJtOAmkbjHUEM+G7wJmP/DQSaitW3Jd/DdPDv8GrmTtF3gsC+vKP2R+xzW+Ql2oa7Ws4IVxGLQrH/Fpb0hhLtBsSlai4U0aqbhkBABxi/Pm1Tp/QuEoFJW65vvc2UvWecPqPSMGPiEHHHZZ2q/OFjwDl/zASWyXz6h5fd7eF3V4LoNTIVfEmfxwF9gIIJA69A8bwXvYy/Y3g8j9sz6PKzLBO0Fz778WGhQYaG29AIsH4wf8xHWRP6/vKsfWv/p3Vs5t6zrm5Xo8Q2eJ4Kd3gBl2chg==","691f8ca61c6b4dcbb0aeb5f4","691fb5b1503a22c9c1904fa8","index1","<span style='color:red'>Fail,<span style='color:red'>Fail,<span style='color:green'>Lift,<span style='color:green'>Lift,<span style='color:red'>Fail,<span style='color:red'>Fail,<span style='color:red'>Fail,<span style='color:red'>Fail,<span style='color:red'>Fail,<span style='color:green'>Lift,<span style='color:red'>Fail,<span style='color:green'>Lift","<span style='color:red'>Fail,<span style='color:red'>Fail,<span style='color:green'>Lift,<span style='color:green'>Lift,<span style='color:green'>Lift,<span style='color:green'>Lift,<span style='color:green'>Lift,<span style='color:red'>Fail,<span style='color:green'>Lift,<span style='color:green'>Lift,<span style='color:red'>Fail,<span style='color:green'>Lift","<span style='color:red'>Fail,<span style='color:green'>Lift,<span style='color:green'>Lift,<span style='color:red'>Fail,<span style='color:green'>Lift,<span style='color:green'>Lift","0,0,1,1,0,0,0,0,0,1,0,1","0,0,1,1,1,1,1,0,1,1,0,1","0,1,1,0,1,1",10,20,20,"","","","","{""box1"":""2"",""box2"":""2"",""box3"":""10"",""box4"":""10""}","",NA,5,"round3_fail",5,5,3,2,2,NA,NA,0,0,20,NA,NA,NA,NA,NA,NA,NA,NA,NA,NA,NA,NA,NA,NA,NA,NA,NA,NA,NA,NA,0,1,2,2,0,0,20,NA,NA,NA,"",NA,NA,NA,NA,NA,NA,NA,NA,2025-11-21 01:03:17
"null","https://psyc-201.github.io/xiang2023/exp/index1.html?PROLIFIC_PID=REDACTED&STUDY_ID=691f8ca61c6b4dcbb0aeb5f4&SESSION_ID=691fb5b1503a22c9c1904fa8","html-keyboard-response",41,1067734,"0.0-350.0-0.0","adjh18wI5oAu2EHZFFW1ewV0NTdHhaRMAy5hneuZq0OILJyXjpR/0AOhJ5VqzJtOAmkbjHUEM+G7wJmP/DQSaitW3Jd/DdPDv8GrmTtF3gsC+vKP2R+xzW+Ql2oa7Ws4IVxGLQrH/Fpb0hhLtBsSlai4U0aqbhkBABxi/Pm1Tp/QuEoFJW65vvc2UvWecPqPSMGPiEHHHZZ2q/OFjwDl/zASWyXz6h5fd7eF3V4LoNTIVfEmfxwF9gIIJA69A8bwXvYy/Y3g8j9sz6PKzLBO0Fz778WGhQYaG29AIsH4wf8xHWRP6/vKsfWv/p3Vs5t6zrm5Xo8Q2eJ4Kd3gBl2chg==","691f8ca61c6b4dcbb0aeb5f4","691fb5b1503a22c9c1904fa8","index1","<span style='color:red'>Fail,<span style='color:red'>Fail,<span style='color:green'>Lift,<span style='color:green'>Lift,<span style='color:red'>Fail,<span style='color:red'>Fail,<span style='color:red'>Fail,<span style='color:red'>Fail,<span style='color:red'>Fail,<span style='color:green'>Lift,<span style='color:red'>Fail,<span style='color:green'>Lift","<span style='color:red'>Fail,<span style='color:red'>Fail,<span style='color:green'>Lift,<span style='color:green'>Lift,<span style='color:green'>Lift,<span style='color:green'>Lift,<span style='color:green'>Lift,<span style='color:red'>Fail,<span style='color:green'>Lift,<span style='color:green'>Lift,<span style='color:red'>Fail,<span style='color:green'>Lift","<span style='color:red'>Fail,<span style='color:green'>Lift,<span style='color:green'>Lift,<span style='color:red'>Fail,<span style='color:green'>Lift,<span style='color:green'>Lift","0,0,1,1,0,0,0,0,0,1,0,1","0,0,1,1,1,1,1,0,1,1,0,1","0,1,1,0,1,1",10,20,20,"","","<p> <b>Oops you failed an attention check!</b> </p><p> <b>We will have to discard your data if you fail another one.</b> </p><p> <b>Please pay more attention!</b> </p>","null","","",NA,6,"warning",NA,NA,NA,NA,NA,NA,NA,NA,NA,NA,NA,NA,NA,NA,NA,NA,NA,NA,NA,NA,NA,NA,NA,NA,NA,NA,NA,NA,NA,NA,NA,NA,NA,NA,NA,NA,NA,NA,NA,1,"",NA,NA,NA,NA,NA,NA,NA,NA,2025-11-21 01:03:17
"null","https://psyc-201.github.io/xiang2023/exp/index1.html?PROLIFIC_PID=REDACTED&STUDY_ID=691f8ca61c6b4dcbb0aeb5f4&SESSION_ID=691fb5b1503a22c9c1904fa8","html-keyboard-response",42,1070748,"0.0-352.0","adjh18wI5oAu2EHZFFW1ewV0NTdHhaRMAy5hneuZq0OILJyXjpR/0AOhJ5VqzJtOAmkbjHUEM+G7wJmP/DQSaitW3Jd/DdPDv8GrmTtF3gsC+vKP2R+xzW+Ql2oa7Ws4IVxGLQrH/Fpb0hhLtBsSlai4U0aqbhkBABxi/Pm1Tp/QuEoFJW65vvc2UvWecPqPSMGPiEHHHZZ2q/OFjwDl/zASWyXz6h5fd7eF3V4LoNTIVfEmfxwF9gIIJA69A8bwXvYy/Y3g8j9sz6PKzLBO0Fz778WGhQYaG29AIsH4wf8xHWRP6/vKsfWv/p3Vs5t6zrm5Xo8Q2eJ4Kd3gBl2chg==","691f8ca61c6b4dcbb0aeb5f4","691fb5b1503a22c9c1904fa8","index1","<span style='color:red'>Fail,<span style='color:red'>Fail,<span style='color:green'>Lift,<span style='color:green'>Lift,<span style='color:red'>Fail,<span style='color:red'>Fail,<span style='color:red'>Fail,<span style='color:red'>Fail,<span style='color:red'>Fail,<span style='color:green'>Lift,<span style='color:red'>Fail,<span style='color:green'>Lift","<span style='color:red'>Fail,<span style='color:red'>Fail,<span style='color:green'>Lift,<span style='color:green'>Lift,<span style='color:green'>Lift,<span style='color:green'>Lift,<span style='color:green'>Lift,<span style='color:red'>Fail,<span style='color:green'>Lift,<span style='color:green'>Lift,<span style='color:red'>Fail,<span style='color:green'>Lift","<span style='color:red'>Fail,<span style='color:green'>Lift,<span style='color:green'>Lift,<span style='color:red'>Fail,<span style='color:green'>Lift,<span style='color:green'>Lift","0,0,1,1,0,0,0,0,0,1,0,1","0,0,1,1,1,1,1,0,1,1,0,1","0,1,1,0,1,1",10,20,20,"","","<p style='font-size:30px'><b> New Contest! </b></p>","null","","",NA,6,"",NA,NA,NA,NA,NA,NA,NA,NA,NA,NA,NA,NA,NA,NA,NA,NA,NA,NA,NA,NA,NA,NA,NA,NA,NA,NA,NA,NA,NA,NA,NA,NA,NA,NA,NA,NA,NA,NA,NA,NA,"",NA,NA,NA,NA,NA,NA,NA,NA,2025-11-21 01:03:17
"19757.39999999851","https://psyc-201.github.io/xiang2023/exp/index1.html?PROLIFIC_PID=REDACTED&STUDY_ID=691f8ca61c6b4dcbb0aeb5f4&SESSION_ID=691fb5b1503a22c9c1904fa8","survey-html-form",43,1090506,"0.0-353.0","adjh18wI5oAu2EHZFFW1ewV0NTdHhaRMAy5hneuZq0OILJyXjpR/0AOhJ5VqzJtOAmkbjHUEM+G7wJmP/DQSaitW3Jd/DdPDv8GrmTtF3gsC+vKP2R+xzW+Ql2oa7Ws4IVxGLQrH/Fpb0hhLtBsSlai4U0aqbhkBABxi/Pm1Tp/QuEoFJW65vvc2UvWecPqPSMGPiEHHHZZ2q/OFjwDl/zASWyXz6h5fd7eF3V4LoNTIVfEmfxwF9gIIJA69A8bwXvYy/Y3g8j9sz6PKzLBO0Fz778WGhQYaG29AIsH4wf8xHWRP6/vKsfWv/p3Vs5t6zrm5Xo8Q2eJ4Kd3gBl2chg==","691f8ca61c6b4dcbb0aeb5f4","691fb5b1503a22c9c1904fa8","index1","<span style='color:red'>Fail,<span style='color:red'>Fail,<span style='color:green'>Lift,<span style='color:green'>Lift,<span style='color:red'>Fail,<span style='color:red'>Fail,<span style='color:red'>Fail,<span style='color:red'>Fail,<span style='color:red'>Fail,<span style='color:green'>Lift,<span style='color:red'>Fail,<span style='color:green'>Lift","<span style='color:red'>Fail,<span style='color:red'>Fail,<span style='color:green'>Lift,<span style='color:green'>Lift,<span style='color:green'>Lift,<span style='color:green'>Lift,<span style='color:green'>Lift,<span style='color:red'>Fail,<span style='color:green'>Lift,<span style='color:green'>Lift,<span style='color:red'>Fail,<span style='color:green'>Lift","<span style='color:red'>Fail,<span style='color:green'>Lift,<span style='color:green'>Lift,<span style='color:red'>Fail,<span style='color:green'>Lift,<span style='color:green'>Lift","0,0,1,1,0,0,0,0,0,1,0,1","0,0,1,1,1,1,1,0,1,1,0,1","0,1,1,0,1,1",10,20,20,"","","","","{""box1"":""7"",""box2"":""7"",""box3"":""25"",""box4"":""25""}","",NA,6,"round1_outcome",1,6,1,7,7,25,25,1,1,10,7,7,25,25,1,1,10,NA,NA,NA,NA,NA,NA,NA,NA,NA,NA,NA,NA,NA,NA,NA,NA,NA,NA,NA,NA,NA,NA,NA,"",NA,NA,NA,NA,NA,NA,NA,NA,2025-11-21 01:03:17
"6283.5","https://psyc-201.github.io/xiang2023/exp/index1.html?PROLIFIC_PID=REDACTED&STUDY_ID=691f8ca61c6b4dcbb0aeb5f4&SESSION_ID=691fb5b1503a22c9c1904fa8","survey-html-form",44,1096791,"0.0-354.0","adjh18wI5oAu2EHZFFW1ewV0NTdHhaRMAy5hneuZq0OILJyXjpR/0AOhJ5VqzJtOAmkbjHUEM+G7wJmP/DQSaitW3Jd/DdPDv8GrmTtF3gsC+vKP2R+xzW+Ql2oa7Ws4IVxGLQrH/Fpb0hhLtBsSlai4U0aqbhkBABxi/Pm1Tp/QuEoFJW65vvc2UvWecPqPSMGPiEHHHZZ2q/OFjwDl/zASWyXz6h5fd7eF3V4LoNTIVfEmfxwF9gIIJA69A8bwXvYy/Y3g8j9sz6PKzLBO0Fz778WGhQYaG29AIsH4wf8xHWRP6/vKsfWv/p3Vs5t6zrm5Xo8Q2eJ4Kd3gBl2chg==","691f8ca61c6b4dcbb0aeb5f4","691fb5b1503a22c9c1904fa8","index1","<span style='color:red'>Fail,<span style='color:red'>Fail,<span style='color:green'>Lift,<span style='color:green'>Lift,<span style='color:red'>Fail,<span style='color:red'>Fail,<span style='color:red'>Fail,<span style='color:red'>Fail,<span style='color:red'>Fail,<span style='color:green'>Lift,<span style='color:red'>Fail,<span style='color:green'>Lift","<span style='color:red'>Fail,<span style='color:red'>Fail,<span style='color:green'>Lift,<span style='color:green'>Lift,<span style='color:green'>Lift,<span style='color:green'>Lift,<span style='color:green'>Lift,<span style='color:red'>Fail,<span style='color:green'>Lift,<span style='color:green'>Lift,<span style='color:red'>Fail,<span style='color:green'>Lift","<span style='color:red'>Fail,<span style='color:green'>Lift,<span style='color:green'>Lift,<span style='color:red'>Fail,<span style='color:green'>Lift,<span style='color:green'>Lift","0,0,1,1,0,0,0,0,0,1,0,1","0,0,1,1,1,1,1,0,1,1,0,1","0,1,1,0,1,1",10,20,20,"","","","","{""box1"":""85"",""box2"":""85""}","",NA,6,"round2_ready",2,6,2,NA,NA,NA,NA,NA,NA,NA,NA,NA,NA,NA,NA,NA,NA,85,85,85,85,NA,NA,NA,NA,NA,NA,NA,NA,NA,NA,NA,NA,NA,NA,NA,NA,NA,NA,NA,"",NA,NA,NA,NA,NA,NA,NA,NA,2025-11-21 01:03:17
"12631.60000000149","https://psyc-201.github.io/xiang2023/exp/index1.html?PROLIFIC_PID=REDACTED&STUDY_ID=691f8ca61c6b4dcbb0aeb5f4&SESSION_ID=691fb5b1503a22c9c1904fa8","survey-html-form",45,1109423,"0.0-355.0","adjh18wI5oAu2EHZFFW1ewV0NTdHhaRMAy5hneuZq0OILJyXjpR/0AOhJ5VqzJtOAmkbjHUEM+G7wJmP/DQSaitW3Jd/DdPDv8GrmTtF3gsC+vKP2R+xzW+Ql2oa7Ws4IVxGLQrH/Fpb0hhLtBsSlai4U0aqbhkBABxi/Pm1Tp/QuEoFJW65vvc2UvWecPqPSMGPiEHHHZZ2q/OFjwDl/zASWyXz6h5fd7eF3V4LoNTIVfEmfxwF9gIIJA69A8bwXvYy/Y3g8j9sz6PKzLBO0Fz778WGhQYaG29AIsH4wf8xHWRP6/vKsfWv/p3Vs5t6zrm5Xo8Q2eJ4Kd3gBl2chg==","691f8ca61c6b4dcbb0aeb5f4","691fb5b1503a22c9c1904fa8","index1","<span style='color:red'>Fail,<span style='color:red'>Fail,<span style='color:green'>Lift,<span style='color:green'>Lift,<span style='color:red'>Fail,<span style='color:red'>Fail,<span style='color:red'>Fail,<span style='color:red'>Fail,<span style='color:red'>Fail,<span style='color:green'>Lift,<span style='color:red'>Fail,<span style='color:green'>Lift","<span style='color:red'>Fail,<span style='color:red'>Fail,<span style='color:green'>Lift,<span style='color:green'>Lift,<span style='color:green'>Lift,<span style='color:green'>Lift,<span style='color:green'>Lift,<span style='color:red'>Fail,<span style='color:green'>Lift,<span style='color:green'>Lift,<span style='color:red'>Fail,<span style='color:green'>Lift","<span style='color:red'>Fail,<span style='color:green'>Lift,<span style='color:green'>Lift,<span style='color:red'>Fail,<span style='color:green'>Lift,<span style='color:green'>Lift","0,0,1,1,0,0,0,0,0,1,0,1","0,0,1,1,1,1,1,0,1,1,0,1","0,1,1,0,1,1",10,20,20,"","","","","{""box1"":""7"",""box2"":""7"",""box3"":""40"",""box4"":""40""}","",NA,6,"round2_outcome",3,6,2,7,7,40,40,1,1,20,NA,NA,NA,NA,NA,NA,NA,NA,NA,NA,NA,7,7,40,40,1,1,20,NA,NA,NA,NA,NA,NA,NA,NA,NA,NA,NA,NA,"",NA,NA,NA,NA,NA,NA,NA,NA,2025-11-21 01:03:17
"4939.699999999255","https://psyc-201.github.io/xiang2023/exp/index1.html?PROLIFIC_PID=REDACTED&STUDY_ID=691f8ca61c6b4dcbb0aeb5f4&SESSION_ID=691fb5b1503a22c9c1904fa8","survey-html-form",46,1114363,"0.0-356.0","adjh18wI5oAu2EHZFFW1ewV0NTdHhaRMAy5hneuZq0OILJyXjpR/0AOhJ5VqzJtOAmkbjHUEM+G7wJmP/DQSaitW3Jd/DdPDv8GrmTtF3gsC+vKP2R+xzW+Ql2oa7Ws4IVxGLQrH/Fpb0hhLtBsSlai4U0aqbhkBABxi/Pm1Tp/QuEoFJW65vvc2UvWecPqPSMGPiEHHHZZ2q/OFjwDl/zASWyXz6h5fd7eF3V4LoNTIVfEmfxwF9gIIJA69A8bwXvYy/Y3g8j9sz6PKzLBO0Fz778WGhQYaG29AIsH4wf8xHWRP6/vKsfWv/p3Vs5t6zrm5Xo8Q2eJ4Kd3gBl2chg==","691f8ca61c6b4dcbb0aeb5f4","691fb5b1503a22c9c1904fa8","index1","<span style='color:red'>Fail,<span style='color:red'>Fail,<span style='color:green'>Lift,<span style='color:green'>Lift,<span style='color:red'>Fail,<span style='color:red'>Fail,<span style='color:red'>Fail,<span style='color:red'>Fail,<span style='color:red'>Fail,<span style='color:green'>Lift,<span style='color:red'>Fail,<span style='color:green'>Lift","<span style='color:red'>Fail,<span style='color:red'>Fail,<span style='color:green'>Lift,<span style='color:green'>Lift,<span style='color:green'>Lift,<span style='color:green'>Lift,<span style='color:green'>Lift,<span style='color:red'>Fail,<span style='color:green'>Lift,<span style='color:green'>Lift,<span style='color:red'>Fail,<span style='color:green'>Lift","<span style='color:red'>Fail,<span style='color:green'>Lift,<span style='color:green'>Lift,<span style='color:red'>Fail,<span style='color:green'>Lift,<span style='color:green'>Lift","0,0,1,1,0,0,0,0,0,1,0,1","0,0,1,1,1,1,1,0,1,1,0,1","0,1,1,0,1,1",10,20,20,"","","","","{""box1"":""100""}","",NA,6,"round3_ready",4,6,3,NA,NA,NA,NA,NA,NA,NA,NA,NA,NA,NA,NA,NA,NA,100,100,NA,NA,NA,NA,NA,NA,NA,NA,NA,100,100,NA,NA,NA,NA,NA,NA,NA,NA,NA,NA,"",NA,NA,NA,NA,NA,NA,NA,NA,2025-11-21 01:03:17
"12962.60000000149","https://psyc-201.github.io/xiang2023/exp/index1.html?PROLIFIC_PID=REDACTED&STUDY_ID=691f8ca61c6b4dcbb0aeb5f4&SESSION_ID=691fb5b1503a22c9c1904fa8","survey-html-form",47,1127327,"0.0-357.0-0.0","adjh18wI5oAu2EHZFFW1ewV0NTdHhaRMAy5hneuZq0OILJyXjpR/0AOhJ5VqzJtOAmkbjHUEM+G7wJmP/DQSaitW3Jd/DdPDv8GrmTtF3gsC+vKP2R+xzW+Ql2oa7Ws4IVxGLQrH/Fpb0hhLtBsSlai4U0aqbhkBABxi/Pm1Tp/QuEoFJW65vvc2UvWecPqPSMGPiEHHHZZ2q/OFjwDl/zASWyXz6h5fd7eF3V4LoNTIVfEmfxwF9gIIJA69A8bwXvYy/Y3g8j9sz6PKzLBO0Fz778WGhQYaG29AIsH4wf8xHWRP6/vKsfWv/p3Vs5t6zrm5Xo8Q2eJ4Kd3gBl2chg==","691f8ca61c6b4dcbb0aeb5f4","691fb5b1503a22c9c1904fa8","index1","<span style='color:red'>Fail,<span style='color:red'>Fail,<span style='color:green'>Lift,<span style='color:green'>Lift,<span style='color:red'>Fail,<span style='color:red'>Fail,<span style='color:red'>Fail,<span style='color:red'>Fail,<span style='color:red'>Fail,<span style='color:green'>Lift,<span style='color:red'>Fail,<span style='color:green'>Lift","<span style='color:red'>Fail,<span style='color:red'>Fail,<span style='color:green'>Lift,<span style='color:green'>Lift,<span style='color:green'>Lift,<span style='color:green'>Lift,<span style='color:green'>Lift,<span style='color:red'>Fail,<span style='color:green'>Lift,<span style='color:green'>Lift,<span style='color:red'>Fail,<span style='color:green'>Lift","<span style='color:red'>Fail,<span style='color:green'>Lift,<span style='color:green'>Lift,<span style='color:red'>Fail,<span style='color:green'>Lift,<span style='color:green'>Lift","0,0,1,1,0,0,0,0,0,1,0,1","0,0,1,1,1,1,1,0,1,1,0,1","0,1,1,0,1,1",10,20,20,"","","","","{""box1"":""7"",""box2"":""7"",""box3"":""25"",""box4"":""25""}","",NA,6,"round3_lift",5,6,3,7,7,25,25,1,1,20,NA,NA,NA,NA,NA,NA,NA,NA,NA,NA,NA,NA,NA,NA,NA,NA,NA,NA,NA,NA,NA,NA,7,7,1,1,20,25,25,NA,"",NA,NA,NA,NA,NA,NA,NA,NA,2025-11-21 01:03:17
"31708.599999997765","https://psyc-201.github.io/xiang2023/exp/index1.html?PROLIFIC_PID=REDACTED&STUDY_ID=691f8ca61c6b4dcbb0aeb5f4&SESSION_ID=691fb5b1503a22c9c1904fa8","survey-text",48,1159036,"0.0-361.0","adjh18wI5oAu2EHZFFW1ewV0NTdHhaRMAy5hneuZq0OILJyXjpR/0AOhJ5VqzJtOAmkbjHUEM+G7wJmP/DQSaitW3Jd/DdPDv8GrmTtF3gsC+vKP2R+xzW+Ql2oa7Ws4IVxGLQrH/Fpb0hhLtBsSlai4U0aqbhkBABxi/Pm1Tp/QuEoFJW65vvc2UvWecPqPSMGPiEHHHZZ2q/OFjwDl/zASWyXz6h5fd7eF3V4LoNTIVfEmfxwF9gIIJA69A8bwXvYy/Y3g8j9sz6PKzLBO0Fz778WGhQYaG29AIsH4wf8xHWRP6/vKsfWv/p3Vs5t6zrm5Xo8Q2eJ4Kd3gBl2chg==","691f8ca61c6b4dcbb0aeb5f4","691fb5b1503a22c9c1904fa8","index1","<span style='color:red'>Fail,<span style='color:red'>Fail,<span style='color:green'>Lift,<span style='color:green'>Lift,<span style='color:red'>Fail,<span style='color:red'>Fail,<span style='color:red'>Fail,<span style='color:red'>Fail,<span style='color:red'>Fail,<span style='color:green'>Lift,<span style='color:red'>Fail,<span style='color:green'>Lift","<span style='color:red'>Fail,<span style='color:red'>Fail,<span style='color:green'>Lift,<span style='color:green'>Lift,<span style='color:green'>Lift,<span style='color:green'>Lift,<span style='color:green'>Lift,<span style='color:red'>Fail,<span style='color:green'>Lift,<span style='color:green'>Lift,<span style='color:red'>Fail,<span style='color:green'>Lift","<span style='color:red'>Fail,<span style='color:green'>Lift,<span style='color:green'>Lift,<span style='color:red'>Fail,<span style='color:green'>Lift,<span style='color:green'>Lift","0,0,1,1,0,0,0,0,0,1,0,1","0,0,1,1,1,1,1,0,1,1,0,1","0,1,1,0,1,1",10,20,20,"","","","","{""Q0"":""I had to pick how strong i thought each contest one A and B from 1-10 and then rate the % i thought they would lift or fail to lift the box each round""}","",NA,NA,"",NA,NA,NA,NA,NA,NA,NA,NA,NA,NA,NA,NA,NA,NA,NA,NA,NA,NA,NA,NA,NA,NA,NA,NA,NA,NA,NA,NA,NA,NA,NA,NA,NA,NA,NA,NA,NA,NA,NA,NA,"",NA,NA,NA,NA,NA,NA,NA,NA,2025-11-21 01:03:17
"5679","https://psyc-201.github.io/xiang2023/exp/index1.html?PROLIFIC_PID=REDACTED&STUDY_ID=691f8ca61c6b4dcbb0aeb5f4&SESSION_ID=691fb5b1503a22c9c1904fa8","survey-text",49,1164716,"0.0-362.0","adjh18wI5oAu2EHZFFW1ewV0NTdHhaRMAy5hneuZq0OILJyXjpR/0AOhJ5VqzJtOAmkbjHUEM+G7wJmP/DQSaitW3Jd/DdPDv8GrmTtF3gsC+vKP2R+xzW+Ql2oa7Ws4IVxGLQrH/Fpb0hhLtBsSlai4U0aqbhkBABxi/Pm1Tp/QuEoFJW65vvc2UvWecPqPSMGPiEHHHZZ2q/OFjwDl/zASWyXz6h5fd7eF3V4LoNTIVfEmfxwF9gIIJA69A8bwXvYy/Y3g8j9sz6PKzLBO0Fz778WGhQYaG29AIsH4wf8xHWRP6/vKsfWv/p3Vs5t6zrm5Xo8Q2eJ4Kd3gBl2chg==","691f8ca61c6b4dcbb0aeb5f4","691fb5b1503a22c9c1904fa8","index1","<span style='color:red'>Fail,<span style='color:red'>Fail,<span style='color:green'>Lift,<span style='color:green'>Lift,<span style='color:red'>Fail,<span style='color:red'>Fail,<span style='color:red'>Fail,<span style='color:red'>Fail,<span style='color:red'>Fail,<span style='color:green'>Lift,<span style='color:red'>Fail,<span style='color:green'>Lift","<span style='color:red'>Fail,<span style='color:red'>Fail,<span style='color:green'>Lift,<span style='color:green'>Lift,<span style='color:green'>Lift,<span style='color:green'>Lift,<span style='color:green'>Lift,<span style='color:red'>Fail,<span style='color:green'>Lift,<span style='color:green'>Lift,<span style='color:red'>Fail,<span style='color:green'>Lift","<span style='color:red'>Fail,<span style='color:green'>Lift,<span style='color:green'>Lift,<span style='color:red'>Fail,<span style='color:green'>Lift,<span style='color:green'>Lift","0,0,1,1,0,0,0,0,0,1,0,1","0,0,1,1,1,1,1,0,1,1,0,1","0,1,1,0,1,1",10,20,20,"","","","","{""Q0"":""Jesus Loves You""}","",NA,NA,"",NA,NA,NA,NA,NA,NA,NA,NA,NA,NA,NA,NA,NA,NA,NA,NA,NA,NA,NA,NA,NA,NA,NA,NA,NA,NA,NA,NA,NA,NA,NA,NA,NA,NA,NA,NA,NA,NA,NA,NA,"[{""event"":""focus"",""trial"":0,""time"":2031},{""event"":""blur"",""trial"":0,""time"":2037},{""event"":""focus"",""trial"":0,""time"":3396},{""event"":""blur"",""trial"":0,""time"":3902},{""event"":""focus"",""trial"":0,""time"":4390},{""event"":""fullscreenenter"",""trial"":1,""time"":7982},{""event"":""blur"",""trial"":2,""time"":63606},{""event"":""focus"",""trial"":2,""time"":67668},{""event"":""blur"",""trial"":2,""time"":73188},{""event"":""focus"",""trial"":2,""time"":75394},{""event"":""blur"",""trial"":4,""time"":209960},{""event"":""focus"",""trial"":4,""time"":238966},{""event"":""blur"",""trial"":6,""time"":256290},{""event"":""focus"",""trial"":6,""time"":270943},{""event"":""blur"",""trial"":6,""time"":274221},{""event"":""focus"",""trial"":6,""time"":278953},{""event"":""blur"",""trial"":6,""time"":281366},{""event"":""focus"",""trial"":6,""time"":286600},{""event"":""blur"",""trial"":6,""time"":289883},{""event"":""focus"",""trial"":6,""time"":295430},{""event"":""blur"",""trial"":6,""time"":299306},{""event"":""focus"",""trial"":6,""time"":348637},{""event"":""blur"",""trial"":6,""time"":351631},{""event"":""focus"",""trial"":6,""time"":357380},{""event"":""blur"",""trial"":8,""time"":367836},{""event"":""focus"",""trial"":8,""time"":430708},{""event"":""blur"",""trial"":8,""time"":439779},{""event"":""focus"",""trial"":8,""time"":453387},{""event"":""blur"",""trial"":8,""time"":465818},{""event"":""focus"",""trial"":8,""time"":532336},{""event"":""blur"",""trial"":8,""time"":534913},{""event"":""focus"",""trial"":8,""time"":556005},{""event"":""blur"",""trial"":12,""time"":586988},{""event"":""focus"",""trial"":12,""time"":591764},{""event"":""blur"",""trial"":23,""time"":760310},{""event"":""focus"",""trial"":24,""time"":762508},{""event"":""blur"",""trial"":30,""time"":856923},{""event"":""focus"",""trial"":30,""time"":922983},{""event"":""blur"",""trial"":35,""time"":976088},{""event"":""focus"",""trial"":36,""time"":1009961},{""event"":""blur"",""trial"":43,""time"":1074571},{""event"":""focus"",""trial"":43,""time"":1074697},{""event"":""blur"",""trial"":43,""time"":1075720},{""event"":""focus"",""trial"":43,""time"":1078002}]",1,3,NA,90,0,0.1,NA,NA,2025-11-21 01:03:17
"7317.300000000745","https://psyc-201.github.io/xiang2023/exp/index1.html?PROLIFIC_PID=REDACTED&STUDY_ID=691f8ca61c6b4dcbb0aeb5f4&SESSION_ID=691fb5b1503a22c9c1904fa8","html-button-response",50,1172035,"0.0-363.0","adjh18wI5oAu2EHZFFW1ewV0NTdHhaRMAy5hneuZq0OILJyXjpR/0AOhJ5VqzJtOAmkbjHUEM+G7wJmP/DQSaitW3Jd/DdPDv8GrmTtF3gsC+vKP2R+xzW+Ql2oa7Ws4IVxGLQrH/Fpb0hhLtBsSlai4U0aqbhkBABxi/Pm1Tp/QuEoFJW65vvc2UvWecPqPSMGPiEHHHZZ2q/OFjwDl/zASWyXz6h5fd7eF3V4LoNTIVfEmfxwF9gIIJA69A8bwXvYy/Y3g8j9sz6PKzLBO0Fz778WGhQYaG29AIsH4wf8xHWRP6/vKsfWv/p3Vs5t6zrm5Xo8Q2eJ4Kd3gBl2chg==","691f8ca61c6b4dcbb0aeb5f4","691fb5b1503a22c9c1904fa8","index1","<span style='color:red'>Fail,<span style='color:red'>Fail,<span style='color:green'>Lift,<span style='color:green'>Lift,<span style='color:red'>Fail,<span style='color:red'>Fail,<span style='color:red'>Fail,<span style='color:red'>Fail,<span style='color:red'>Fail,<span style='color:green'>Lift,<span style='color:red'>Fail,<span style='color:green'>Lift","<span style='color:red'>Fail,<span style='color:red'>Fail,<span style='color:green'>Lift,<span style='color:green'>Lift,<span style='color:green'>Lift,<span style='color:green'>Lift,<span style='color:green'>Lift,<span style='color:red'>Fail,<span style='color:green'>Lift,<span style='color:green'>Lift,<span style='color:red'>Fail,<span style='color:green'>Lift","<span style='color:red'>Fail,<span style='color:green'>Lift,<span style='color:green'>Lift,<span style='color:red'>Fail,<span style='color:green'>Lift,<span style='color:green'>Lift","0,0,1,1,0,0,0,0,0,1,0,1","0,0,1,1,1,1,1,0,1,1,0,1","0,1,1,0,1,1",10,20,20,"","","<p> We randomly picked <b>Contest 1, Round 3</b> to calculate your bonus. </p><p> The outcome of Contestant A and B on that round is <span style='color:red'>Fail</span>. </p><p> The probability you entered was 90. </p><p><b> You won a bonus of $0.10!</b></p><p> IMPORTANT: Please click 'Next' to complete the game. </p>","","","",0,NA,"",NA,NA,NA,NA,NA,NA,NA,NA,NA,NA,NA,NA,NA,NA,NA,NA,NA,NA,NA,NA,NA,NA,NA,NA,NA,NA,NA,NA,NA,NA,NA,NA,NA,NA,NA,NA,NA,NA,NA,NA,"",NA,NA,NA,NA,NA,NA,1,0,2025-11-21 01:03:17
