"rt","url","trial_type","trial_index","time_elapsed","internal_node_id","encryptedProlificId","studyId","sessionId","expIndex","round1_outcomes","round2_outcomes","round3_outcomes","round1_o","round2_o","round3_o","round1_reward","round2_reward","round3_reward","success","view_history","stimulus","key_press","responses","question_order","j","Stage","stage","contest","round","strength_a","strength_b","effort_a","effort_b","outcome_a","outcome_b","reward","r1_strength_a","r1_strength_b","r1_effort_a","r1_effort_b","r1_outcome_a","r1_outcome_b","r1_reward","probability_a","probability_b","r2_prob_a","r2_prob_b","r2_strength_a","r2_strength_b","r2_effort_a","r2_effort_b","r2_outcome_a","r2_outcome_b","r2_reward","r3_prob_a","r3_prob_b","r3_strength_a","r3_strength_b","r3_effort_a","r3_effort_b","r3_outcome_a","r3_outcome_b","r3_reward","attention_check","count","screen","pick_contest","pick_round","pick_side","trial_probability","trial_outcome","bonus","button_pressed","attention_sum","attention","datapipe_meta.attributes.date_modified"
"49773.90000000596","https://psyc-201.github.io/xiang2023/exp/index1.html?PROLIFIC_PID=REDACTED&STUDY_ID=691f8ca61c6b4dcbb0aeb5f4&SESSION_ID=691fc962d40d4e5259e83ec8","external-html",0,49880,"0.0-0.0","gPCjkGXJ30Gh+KfAcffOt+vH2h6HHvSLsCikf9kKfw+tMAvwmkoU33WuFKttT3005pTmNgV4UGCEzGoeUaMUMoc29zqXp0T9P8QgU9JmDFpLjTpd0EbGww6suZUbMVCEW03/YtLQ/ZrSeOrMfJVFrH3+55lHh4jF5Dcq2rHEv3YZ0NGWludwC/yWdPgje0zSouTNxJBXGIgFmDfH5oUaaFxqAzcNK84TIty1godqJSgKj53JxNv1RIBVJn660053SQrGJ8WffhOHLPYH6gy0rfb0JPo6hq+xV8IcwNm0x6X0P7UoSzR/M+A7Hl5wX1cxGDcGCX5ePi8T3gjvPLhZ8A==","691f8ca61c6b4dcbb0aeb5f4","691fc962d40d4e5259e83ec8","index1","<span style='color:red'>Fail,<span style='color:red'>Fail,<span style='color:green'>Lift,<span style='color:green'>Lift,<span style='color:red'>Fail,<span style='color:red'>Fail,<span style='color:red'>Fail,<span style='color:red'>Fail,<span style='color:green'>Lift,<span style='color:red'>Fail,<span style='color:red'>Fail,<span style='color:green'>Lift","<span style='color:red'>Fail,<span style='color:red'>Fail,<span style='color:green'>Lift,<span style='color:green'>Lift,<span style='color:green'>Lift,<span style='color:green'>Lift,<span style='color:red'>Fail,<span style='color:green'>Lift,<span style='color:green'>Lift,<span style='color:green'>Lift,<span style='color:red'>Fail,<span style='color:green'>Lift","<span style='color:red'>Fail,<span style='color:green'>Lift,<span style='color:green'>Lift,<span style='color:red'>Fail,<span style='color:green'>Lift,<span style='color:green'>Lift","0,0,1,1,0,0,0,0,1,0,0,1","0,0,1,1,1,1,0,1,1,1,0,1","0,1,1,0,1,1",10,20,20,"","","","","","",NA,"",NA,NA,NA,NA,NA,NA,NA,NA,NA,NA,NA,NA,NA,NA,NA,NA,NA,NA,NA,NA,NA,NA,NA,NA,NA,NA,NA,NA,NA,NA,NA,NA,NA,NA,NA,NA,NA,NA,NA,"",NA,NA,NA,NA,NA,NA,NA,NA,NA,2025-11-21 02:40:42
"","https://psyc-201.github.io/xiang2023/exp/index1.html?PROLIFIC_PID=REDACTED&STUDY_ID=691f8ca61c6b4dcbb0aeb5f4&SESSION_ID=691fc962d40d4e5259e83ec8","fullscreen",1,851347,"0.0-1.0","gPCjkGXJ30Gh+KfAcffOt+vH2h6HHvSLsCikf9kKfw+tMAvwmkoU33WuFKttT3005pTmNgV4UGCEzGoeUaMUMoc29zqXp0T9P8QgU9JmDFpLjTpd0EbGww6suZUbMVCEW03/YtLQ/ZrSeOrMfJVFrH3+55lHh4jF5Dcq2rHEv3YZ0NGWludwC/yWdPgje0zSouTNxJBXGIgFmDfH5oUaaFxqAzcNK84TIty1godqJSgKj53JxNv1RIBVJn660053SQrGJ8WffhOHLPYH6gy0rfb0JPo6hq+xV8IcwNm0x6X0P7UoSzR/M+A7Hl5wX1cxGDcGCX5ePi8T3gjvPLhZ8A==","691f8ca61c6b4dcbb0aeb5f4","691fc962d40d4e5259e83ec8","index1","<span style='color:red'>Fail,<span style='color:red'>Fail,<span style='color:green'>Lift,<span style='color:green'>Lift,<span style='color:red'>Fail,<span style='color:red'>Fail,<span style='color:red'>Fail,<span style='color:red'>Fail,<span style='color:green'>Lift,<span style='color:red'>Fail,<span style='color:red'>Fail,<span style='color:green'>Lift","<span style='color:red'>Fail,<span style='color:red'>Fail,<span style='color:green'>Lift,<span style='color:green'>Lift,<span style='color:green'>Lift,<span style='color:green'>Lift,<span style='color:red'>Fail,<span style='color:green'>Lift,<span style='color:green'>Lift,<span style='color:green'>Lift,<span style='color:red'>Fail,<span style='color:green'>Lift","<span style='color:red'>Fail,<span style='color:green'>Lift,<span style='color:green'>Lift,<span style='color:red'>Fail,<span style='color:green'>Lift,<span style='color:green'>Lift","0,0,1,1,0,0,0,0,1,0,0,1","0,0,1,1,1,1,0,1,1,1,0,1","0,1,1,0,1,1",10,20,20,"true","","","","","",NA,"",NA,NA,NA,NA,NA,NA,NA,NA,NA,NA,NA,NA,NA,NA,NA,NA,NA,NA,NA,NA,NA,NA,NA,NA,NA,NA,NA,NA,NA,NA,NA,NA,NA,NA,NA,NA,NA,NA,NA,"",NA,NA,NA,NA,NA,NA,NA,NA,NA,2025-11-21 02:40:42
"292253.90000000596","https://psyc-201.github.io/xiang2023/exp/index1.html?PROLIFIC_PID=REDACTED&STUDY_ID=691f8ca61c6b4dcbb0aeb5f4&SESSION_ID=691fc962d40d4e5259e83ec8","instructions",2,1143603,"0.0-2.0","gPCjkGXJ30Gh+KfAcffOt+vH2h6HHvSLsCikf9kKfw+tMAvwmkoU33WuFKttT3005pTmNgV4UGCEzGoeUaMUMoc29zqXp0T9P8QgU9JmDFpLjTpd0EbGww6suZUbMVCEW03/YtLQ/ZrSeOrMfJVFrH3+55lHh4jF5Dcq2rHEv3YZ0NGWludwC/yWdPgje0zSouTNxJBXGIgFmDfH5oUaaFxqAzcNK84TIty1godqJSgKj53JxNv1RIBVJn660053SQrGJ8WffhOHLPYH6gy0rfb0JPo6hq+xV8IcwNm0x6X0P7UoSzR/M+A7Hl5wX1cxGDcGCX5ePi8T3gjvPLhZ8A==","691f8ca61c6b4dcbb0aeb5f4","691fc962d40d4e5259e83ec8","index1","<span style='color:red'>Fail,<span style='color:red'>Fail,<span style='color:green'>Lift,<span style='color:green'>Lift,<span style='color:red'>Fail,<span style='color:red'>Fail,<span style='color:red'>Fail,<span style='color:red'>Fail,<span style='color:green'>Lift,<span style='color:red'>Fail,<span style='color:red'>Fail,<span style='color:green'>Lift","<span style='color:red'>Fail,<span style='color:red'>Fail,<span style='color:green'>Lift,<span style='color:green'>Lift,<span style='color:green'>Lift,<span style='color:green'>Lift,<span style='color:red'>Fail,<span style='color:green'>Lift,<span style='color:green'>Lift,<span style='color:green'>Lift,<span style='color:red'>Fail,<span style='color:green'>Lift","<span style='color:red'>Fail,<span style='color:green'>Lift,<span style='color:green'>Lift,<span style='color:red'>Fail,<span style='color:green'>Lift,<span style='color:green'>Lift","0,0,1,1,0,0,0,0,1,0,0,1","0,0,1,1,1,1,0,1,1,1,0,1","0,1,1,0,1,1",10,20,20,"","[{""page_index"":0,""viewing_time"":55063.70000001788},{""page_index"":1,""viewing_time"":43199.19999998808},{""page_index"":2,""viewing_time"":38257.30000001192},{""page_index"":3,""viewing_time"":61744.89999997616},{""page_index"":4,""viewing_time"":15533.90000000596},{""page_index"":5,""viewing_time"":63232.59999999404},{""page_index"":6,""viewing_time"":15221.700000017881}]","","","","",NA,"",NA,NA,NA,NA,NA,NA,NA,NA,NA,NA,NA,NA,NA,NA,NA,NA,NA,NA,NA,NA,NA,NA,NA,NA,NA,NA,NA,NA,NA,NA,NA,NA,NA,NA,NA,NA,NA,NA,NA,"",NA,NA,NA,NA,NA,NA,NA,NA,NA,2025-11-21 02:40:42
"null","https://psyc-201.github.io/xiang2023/exp/index1.html?PROLIFIC_PID=REDACTED&STUDY_ID=691f8ca61c6b4dcbb0aeb5f4&SESSION_ID=691fc962d40d4e5259e83ec8","html-keyboard-response",3,1144614,"0.0-3.0","gPCjkGXJ30Gh+KfAcffOt+vH2h6HHvSLsCikf9kKfw+tMAvwmkoU33WuFKttT3005pTmNgV4UGCEzGoeUaMUMoc29zqXp0T9P8QgU9JmDFpLjTpd0EbGww6suZUbMVCEW03/YtLQ/ZrSeOrMfJVFrH3+55lHh4jF5Dcq2rHEv3YZ0NGWludwC/yWdPgje0zSouTNxJBXGIgFmDfH5oUaaFxqAzcNK84TIty1godqJSgKj53JxNv1RIBVJn660053SQrGJ8WffhOHLPYH6gy0rfb0JPo6hq+xV8IcwNm0x6X0P7UoSzR/M+A7Hl5wX1cxGDcGCX5ePi8T3gjvPLhZ8A==","691f8ca61c6b4dcbb0aeb5f4","691fc962d40d4e5259e83ec8","index1","<span style='color:red'>Fail,<span style='color:red'>Fail,<span style='color:green'>Lift,<span style='color:green'>Lift,<span style='color:red'>Fail,<span style='color:red'>Fail,<span style='color:red'>Fail,<span style='color:red'>Fail,<span style='color:green'>Lift,<span style='color:red'>Fail,<span style='color:red'>Fail,<span style='color:green'>Lift","<span style='color:red'>Fail,<span style='color:red'>Fail,<span style='color:green'>Lift,<span style='color:green'>Lift,<span style='color:green'>Lift,<span style='color:green'>Lift,<span style='color:red'>Fail,<span style='color:green'>Lift,<span style='color:green'>Lift,<span style='color:green'>Lift,<span style='color:red'>Fail,<span style='color:green'>Lift","<span style='color:red'>Fail,<span style='color:green'>Lift,<span style='color:green'>Lift,<span style='color:red'>Fail,<span style='color:green'>Lift,<span style='color:green'>Lift","0,0,1,1,0,0,0,0,1,0,0,1","0,0,1,1,1,1,0,1,1,1,0,1","0,1,1,0,1,1",10,20,20,"",""," ","null","","",NA,"",NA,NA,NA,NA,NA,NA,NA,NA,NA,NA,NA,NA,NA,NA,NA,NA,NA,NA,NA,NA,NA,NA,NA,NA,NA,NA,NA,NA,NA,NA,NA,NA,NA,NA,NA,NA,NA,NA,NA,"",NA,NA,NA,NA,NA,NA,NA,NA,NA,2025-11-21 02:40:42
"78879.40000000596","https://psyc-201.github.io/xiang2023/exp/index1.html?PROLIFIC_PID=REDACTED&STUDY_ID=691f8ca61c6b4dcbb0aeb5f4&SESSION_ID=691fc962d40d4e5259e83ec8","survey-multi-choice",4,1223498,"0.0-4.0","gPCjkGXJ30Gh+KfAcffOt+vH2h6HHvSLsCikf9kKfw+tMAvwmkoU33WuFKttT3005pTmNgV4UGCEzGoeUaMUMoc29zqXp0T9P8QgU9JmDFpLjTpd0EbGww6suZUbMVCEW03/YtLQ/ZrSeOrMfJVFrH3+55lHh4jF5Dcq2rHEv3YZ0NGWludwC/yWdPgje0zSouTNxJBXGIgFmDfH5oUaaFxqAzcNK84TIty1godqJSgKj53JxNv1RIBVJn660053SQrGJ8WffhOHLPYH6gy0rfb0JPo6hq+xV8IcwNm0x6X0P7UoSzR/M+A7Hl5wX1cxGDcGCX5ePi8T3gjvPLhZ8A==","691f8ca61c6b4dcbb0aeb5f4","691fc962d40d4e5259e83ec8","index1","<span style='color:red'>Fail,<span style='color:red'>Fail,<span style='color:green'>Lift,<span style='color:green'>Lift,<span style='color:red'>Fail,<span style='color:red'>Fail,<span style='color:red'>Fail,<span style='color:red'>Fail,<span style='color:green'>Lift,<span style='color:red'>Fail,<span style='color:red'>Fail,<span style='color:green'>Lift","<span style='color:red'>Fail,<span style='color:red'>Fail,<span style='color:green'>Lift,<span style='color:green'>Lift,<span style='color:green'>Lift,<span style='color:green'>Lift,<span style='color:red'>Fail,<span style='color:green'>Lift,<span style='color:green'>Lift,<span style='color:green'>Lift,<span style='color:red'>Fail,<span style='color:green'>Lift","<span style='color:red'>Fail,<span style='color:green'>Lift,<span style='color:green'>Lift,<span style='color:red'>Fail,<span style='color:green'>Lift,<span style='color:green'>Lift","0,0,1,1,0,0,0,0,1,0,0,1","0,0,1,1,1,1,0,1,1,1,0,1","0,1,1,0,1,1",10,20,20,"","","","","{""Q0"":""It consists of multiple contests, each contest with three rounds."",""Q1"":""When a new contest begins."",""Q2"":""The box weight always stays the same (equivalent to strength of 5)."",""Q3"":""Each will get $20."",""Q4"":""How close my guesses are to the actual outcome.""}","[0,1,2,3,4]",NA,"",NA,NA,NA,NA,NA,NA,NA,NA,NA,NA,NA,NA,NA,NA,NA,NA,NA,NA,NA,NA,NA,NA,NA,NA,NA,NA,NA,NA,NA,NA,NA,NA,NA,NA,NA,NA,NA,NA,NA,"",NA,NA,NA,NA,NA,NA,NA,NA,NA,2025-11-21 02:40:42
"15558.100000023842","https://psyc-201.github.io/xiang2023/exp/index1.html?PROLIFIC_PID=REDACTED&STUDY_ID=691f8ca61c6b4dcbb0aeb5f4&SESSION_ID=691fc962d40d4e5259e83ec8","instructions",5,1239066,"0.0-305.0","gPCjkGXJ30Gh+KfAcffOt+vH2h6HHvSLsCikf9kKfw+tMAvwmkoU33WuFKttT3005pTmNgV4UGCEzGoeUaMUMoc29zqXp0T9P8QgU9JmDFpLjTpd0EbGww6suZUbMVCEW03/YtLQ/ZrSeOrMfJVFrH3+55lHh4jF5Dcq2rHEv3YZ0NGWludwC/yWdPgje0zSouTNxJBXGIgFmDfH5oUaaFxqAzcNK84TIty1godqJSgKj53JxNv1RIBVJn660053SQrGJ8WffhOHLPYH6gy0rfb0JPo6hq+xV8IcwNm0x6X0P7UoSzR/M+A7Hl5wX1cxGDcGCX5ePi8T3gjvPLhZ8A==","691f8ca61c6b4dcbb0aeb5f4","691fc962d40d4e5259e83ec8","index1","<span style='color:red'>Fail,<span style='color:red'>Fail,<span style='color:green'>Lift,<span style='color:green'>Lift,<span style='color:red'>Fail,<span style='color:red'>Fail,<span style='color:red'>Fail,<span style='color:red'>Fail,<span style='color:green'>Lift,<span style='color:red'>Fail,<span style='color:red'>Fail,<span style='color:green'>Lift","<span style='color:red'>Fail,<span style='color:red'>Fail,<span style='color:green'>Lift,<span style='color:green'>Lift,<span style='color:green'>Lift,<span style='color:green'>Lift,<span style='color:red'>Fail,<span style='color:green'>Lift,<span style='color:green'>Lift,<span style='color:green'>Lift,<span style='color:red'>Fail,<span style='color:green'>Lift","<span style='color:red'>Fail,<span style='color:green'>Lift,<span style='color:green'>Lift,<span style='color:red'>Fail,<span style='color:green'>Lift,<span style='color:green'>Lift","0,0,1,1,0,0,0,0,1,0,0,1","0,0,1,1,1,1,0,1,1,1,0,1","0,1,1,0,1,1",10,20,20,"","[{""page_index"":0,""viewing_time"":11079.200000017881},{""page_index"":1,""viewing_time"":4478.4000000059605}]","","","","",NA,"",NA,NA,NA,NA,NA,NA,NA,NA,NA,NA,NA,NA,NA,NA,NA,NA,NA,NA,NA,NA,NA,NA,NA,NA,NA,NA,NA,NA,NA,NA,NA,NA,NA,NA,NA,NA,NA,NA,NA,"",NA,NA,NA,NA,NA,NA,NA,NA,NA,2025-11-21 02:40:42
"null","https://psyc-201.github.io/xiang2023/exp/index1.html?PROLIFIC_PID=REDACTED&STUDY_ID=691f8ca61c6b4dcbb0aeb5f4&SESSION_ID=691fc962d40d4e5259e83ec8","html-keyboard-response",6,1240072,"0.0-306.0","gPCjkGXJ30Gh+KfAcffOt+vH2h6HHvSLsCikf9kKfw+tMAvwmkoU33WuFKttT3005pTmNgV4UGCEzGoeUaMUMoc29zqXp0T9P8QgU9JmDFpLjTpd0EbGww6suZUbMVCEW03/YtLQ/ZrSeOrMfJVFrH3+55lHh4jF5Dcq2rHEv3YZ0NGWludwC/yWdPgje0zSouTNxJBXGIgFmDfH5oUaaFxqAzcNK84TIty1godqJSgKj53JxNv1RIBVJn660053SQrGJ8WffhOHLPYH6gy0rfb0JPo6hq+xV8IcwNm0x6X0P7UoSzR/M+A7Hl5wX1cxGDcGCX5ePi8T3gjvPLhZ8A==","691f8ca61c6b4dcbb0aeb5f4","691fc962d40d4e5259e83ec8","index1","<span style='color:red'>Fail,<span style='color:red'>Fail,<span style='color:green'>Lift,<span style='color:green'>Lift,<span style='color:red'>Fail,<span style='color:red'>Fail,<span style='color:red'>Fail,<span style='color:red'>Fail,<span style='color:green'>Lift,<span style='color:red'>Fail,<span style='color:red'>Fail,<span style='color:green'>Lift","<span style='color:red'>Fail,<span style='color:red'>Fail,<span style='color:green'>Lift,<span style='color:green'>Lift,<span style='color:green'>Lift,<span style='color:green'>Lift,<span style='color:red'>Fail,<span style='color:green'>Lift,<span style='color:green'>Lift,<span style='color:green'>Lift,<span style='color:red'>Fail,<span style='color:green'>Lift","<span style='color:red'>Fail,<span style='color:green'>Lift,<span style='color:green'>Lift,<span style='color:red'>Fail,<span style='color:green'>Lift,<span style='color:green'>Lift","0,0,1,1,0,0,0,0,1,0,0,1","0,0,1,1,1,1,0,1,1,1,0,1","0,1,1,0,1,1",10,20,20,"",""," ","null","","",1,"",NA,NA,NA,NA,NA,NA,NA,NA,NA,NA,NA,NA,NA,NA,NA,NA,NA,NA,NA,NA,NA,NA,NA,NA,NA,NA,NA,NA,NA,NA,NA,NA,NA,NA,NA,NA,NA,NA,NA,"",NA,NA,NA,NA,NA,NA,NA,NA,NA,2025-11-21 02:40:42
"null","https://psyc-201.github.io/xiang2023/exp/index1.html?PROLIFIC_PID=REDACTED&STUDY_ID=691f8ca61c6b4dcbb0aeb5f4&SESSION_ID=691fc962d40d4e5259e83ec8","html-keyboard-response",7,1243083,"0.0-307.0","gPCjkGXJ30Gh+KfAcffOt+vH2h6HHvSLsCikf9kKfw+tMAvwmkoU33WuFKttT3005pTmNgV4UGCEzGoeUaMUMoc29zqXp0T9P8QgU9JmDFpLjTpd0EbGww6suZUbMVCEW03/YtLQ/ZrSeOrMfJVFrH3+55lHh4jF5Dcq2rHEv3YZ0NGWludwC/yWdPgje0zSouTNxJBXGIgFmDfH5oUaaFxqAzcNK84TIty1godqJSgKj53JxNv1RIBVJn660053SQrGJ8WffhOHLPYH6gy0rfb0JPo6hq+xV8IcwNm0x6X0P7UoSzR/M+A7Hl5wX1cxGDcGCX5ePi8T3gjvPLhZ8A==","691f8ca61c6b4dcbb0aeb5f4","691fc962d40d4e5259e83ec8","index1","<span style='color:red'>Fail,<span style='color:red'>Fail,<span style='color:green'>Lift,<span style='color:green'>Lift,<span style='color:red'>Fail,<span style='color:red'>Fail,<span style='color:red'>Fail,<span style='color:red'>Fail,<span style='color:green'>Lift,<span style='color:red'>Fail,<span style='color:red'>Fail,<span style='color:green'>Lift","<span style='color:red'>Fail,<span style='color:red'>Fail,<span style='color:green'>Lift,<span style='color:green'>Lift,<span style='color:green'>Lift,<span style='color:green'>Lift,<span style='color:red'>Fail,<span style='color:green'>Lift,<span style='color:green'>Lift,<span style='color:green'>Lift,<span style='color:red'>Fail,<span style='color:green'>Lift","<span style='color:red'>Fail,<span style='color:green'>Lift,<span style='color:green'>Lift,<span style='color:red'>Fail,<span style='color:green'>Lift,<span style='color:green'>Lift","0,0,1,1,0,0,0,0,1,0,0,1","0,0,1,1,1,1,0,1,1,1,0,1","0,1,1,0,1,1",10,20,20,"","","<p style='font-size:30px'><b> New Contest! </b></p>","null","","",1,"",NA,NA,NA,NA,NA,NA,NA,NA,NA,NA,NA,NA,NA,NA,NA,NA,NA,NA,NA,NA,NA,NA,NA,NA,NA,NA,NA,NA,NA,NA,NA,NA,NA,NA,NA,NA,NA,NA,NA,"",NA,NA,NA,NA,NA,NA,NA,NA,NA,2025-11-21 02:40:42
"85724.5","https://psyc-201.github.io/xiang2023/exp/index1.html?PROLIFIC_PID=REDACTED&STUDY_ID=691f8ca61c6b4dcbb0aeb5f4&SESSION_ID=691fc962d40d4e5259e83ec8","survey-html-form",8,1328812,"0.0-308.0","gPCjkGXJ30Gh+KfAcffOt+vH2h6HHvSLsCikf9kKfw+tMAvwmkoU33WuFKttT3005pTmNgV4UGCEzGoeUaMUMoc29zqXp0T9P8QgU9JmDFpLjTpd0EbGww6suZUbMVCEW03/YtLQ/ZrSeOrMfJVFrH3+55lHh4jF5Dcq2rHEv3YZ0NGWludwC/yWdPgje0zSouTNxJBXGIgFmDfH5oUaaFxqAzcNK84TIty1godqJSgKj53JxNv1RIBVJn660053SQrGJ8WffhOHLPYH6gy0rfb0JPo6hq+xV8IcwNm0x6X0P7UoSzR/M+A7Hl5wX1cxGDcGCX5ePi8T3gjvPLhZ8A==","691f8ca61c6b4dcbb0aeb5f4","691fc962d40d4e5259e83ec8","index1","<span style='color:red'>Fail,<span style='color:red'>Fail,<span style='color:green'>Lift,<span style='color:green'>Lift,<span style='color:red'>Fail,<span style='color:red'>Fail,<span style='color:red'>Fail,<span style='color:red'>Fail,<span style='color:green'>Lift,<span style='color:red'>Fail,<span style='color:red'>Fail,<span style='color:green'>Lift","<span style='color:red'>Fail,<span style='color:red'>Fail,<span style='color:green'>Lift,<span style='color:green'>Lift,<span style='color:green'>Lift,<span style='color:green'>Lift,<span style='color:red'>Fail,<span style='color:green'>Lift,<span style='color:green'>Lift,<span style='color:green'>Lift,<span style='color:red'>Fail,<span style='color:green'>Lift","<span style='color:red'>Fail,<span style='color:green'>Lift,<span style='color:green'>Lift,<span style='color:red'>Fail,<span style='color:green'>Lift,<span style='color:green'>Lift","0,0,1,1,0,0,0,0,1,0,0,1","0,0,1,1,1,1,0,1,1,1,0,1","0,1,1,0,1,1",10,20,20,"","","","","{""box1"":""6"",""box2"":""8"",""box4"":""90""}","",1,"round1_outcome",1,1,1,6,8,NA,90,0,1,10,6,8,NA,90,0,1,10,NA,NA,NA,NA,NA,NA,NA,NA,NA,NA,NA,NA,NA,NA,NA,NA,NA,NA,NA,NA,NA,NA,"",NA,NA,NA,NA,NA,NA,NA,NA,NA,2025-11-21 02:40:42
"32691.40000000596","https://psyc-201.github.io/xiang2023/exp/index1.html?PROLIFIC_PID=REDACTED&STUDY_ID=691f8ca61c6b4dcbb0aeb5f4&SESSION_ID=691fc962d40d4e5259e83ec8","survey-html-form",9,1361507,"0.0-309.0","gPCjkGXJ30Gh+KfAcffOt+vH2h6HHvSLsCikf9kKfw+tMAvwmkoU33WuFKttT3005pTmNgV4UGCEzGoeUaMUMoc29zqXp0T9P8QgU9JmDFpLjTpd0EbGww6suZUbMVCEW03/YtLQ/ZrSeOrMfJVFrH3+55lHh4jF5Dcq2rHEv3YZ0NGWludwC/yWdPgje0zSouTNxJBXGIgFmDfH5oUaaFxqAzcNK84TIty1godqJSgKj53JxNv1RIBVJn660053SQrGJ8WffhOHLPYH6gy0rfb0JPo6hq+xV8IcwNm0x6X0P7UoSzR/M+A7Hl5wX1cxGDcGCX5ePi8T3gjvPLhZ8A==","691f8ca61c6b4dcbb0aeb5f4","691fc962d40d4e5259e83ec8","index1","<span style='color:red'>Fail,<span style='color:red'>Fail,<span style='color:green'>Lift,<span style='color:green'>Lift,<span style='color:red'>Fail,<span style='color:red'>Fail,<span style='color:red'>Fail,<span style='color:red'>Fail,<span style='color:green'>Lift,<span style='color:red'>Fail,<span style='color:red'>Fail,<span style='color:green'>Lift","<span style='color:red'>Fail,<span style='color:red'>Fail,<span style='color:green'>Lift,<span style='color:green'>Lift,<span style='color:green'>Lift,<span style='color:green'>Lift,<span style='color:red'>Fail,<span style='color:green'>Lift,<span style='color:green'>Lift,<span style='color:green'>Lift,<span style='color:red'>Fail,<span style='color:green'>Lift","<span style='color:red'>Fail,<span style='color:green'>Lift,<span style='color:green'>Lift,<span style='color:red'>Fail,<span style='color:green'>Lift,<span style='color:green'>Lift","0,0,1,1,0,0,0,0,1,0,0,1","0,0,1,1,1,1,0,1,1,1,0,1","0,1,1,0,1,1",10,20,20,"","","","","{""box1"":""88"",""box2"":""90""}","",1,"round2_ready",2,1,2,NA,NA,NA,NA,NA,NA,NA,NA,NA,NA,NA,NA,NA,NA,88,90,88,90,NA,NA,NA,NA,NA,NA,NA,NA,NA,NA,NA,NA,NA,NA,NA,NA,NA,NA,"",NA,NA,NA,NA,NA,NA,NA,NA,NA,2025-11-21 02:40:42
"16028.200000017881","https://psyc-201.github.io/xiang2023/exp/index1.html?PROLIFIC_PID=REDACTED&STUDY_ID=691f8ca61c6b4dcbb0aeb5f4&SESSION_ID=691fc962d40d4e5259e83ec8","survey-html-form",10,1377538,"0.0-310.0","gPCjkGXJ30Gh+KfAcffOt+vH2h6HHvSLsCikf9kKfw+tMAvwmkoU33WuFKttT3005pTmNgV4UGCEzGoeUaMUMoc29zqXp0T9P8QgU9JmDFpLjTpd0EbGww6suZUbMVCEW03/YtLQ/ZrSeOrMfJVFrH3+55lHh4jF5Dcq2rHEv3YZ0NGWludwC/yWdPgje0zSouTNxJBXGIgFmDfH5oUaaFxqAzcNK84TIty1godqJSgKj53JxNv1RIBVJn660053SQrGJ8WffhOHLPYH6gy0rfb0JPo6hq+xV8IcwNm0x6X0P7UoSzR/M+A7Hl5wX1cxGDcGCX5ePi8T3gjvPLhZ8A==","691f8ca61c6b4dcbb0aeb5f4","691fc962d40d4e5259e83ec8","index1","<span style='color:red'>Fail,<span style='color:red'>Fail,<span style='color:green'>Lift,<span style='color:green'>Lift,<span style='color:red'>Fail,<span style='color:red'>Fail,<span style='color:red'>Fail,<span style='color:red'>Fail,<span style='color:green'>Lift,<span style='color:red'>Fail,<span style='color:red'>Fail,<span style='color:green'>Lift","<span style='color:red'>Fail,<span style='color:red'>Fail,<span style='color:green'>Lift,<span style='color:green'>Lift,<span style='color:green'>Lift,<span style='color:green'>Lift,<span style='color:red'>Fail,<span style='color:green'>Lift,<span style='color:green'>Lift,<span style='color:green'>Lift,<span style='color:red'>Fail,<span style='color:green'>Lift","<span style='color:red'>Fail,<span style='color:green'>Lift,<span style='color:green'>Lift,<span style='color:red'>Fail,<span style='color:green'>Lift,<span style='color:green'>Lift","0,0,1,1,0,0,0,0,1,0,0,1","0,0,1,1,1,1,0,1,1,1,0,1","0,1,1,0,1,1",10,20,20,"","","","","{""box1"":""3"",""box2"":""9"",""box4"":""90""}","",1,"round2_outcome",3,1,2,3,9,NA,90,0,1,20,NA,NA,NA,NA,NA,NA,NA,NA,NA,NA,NA,3,9,NA,90,0,1,20,NA,NA,NA,NA,NA,NA,NA,NA,NA,NA,NA,"",NA,NA,NA,NA,NA,NA,NA,NA,NA,2025-11-21 02:40:42
"7654","https://psyc-201.github.io/xiang2023/exp/index1.html?PROLIFIC_PID=REDACTED&STUDY_ID=691f8ca61c6b4dcbb0aeb5f4&SESSION_ID=691fc962d40d4e5259e83ec8","survey-html-form",11,1385196,"0.0-311.0","gPCjkGXJ30Gh+KfAcffOt+vH2h6HHvSLsCikf9kKfw+tMAvwmkoU33WuFKttT3005pTmNgV4UGCEzGoeUaMUMoc29zqXp0T9P8QgU9JmDFpLjTpd0EbGww6suZUbMVCEW03/YtLQ/ZrSeOrMfJVFrH3+55lHh4jF5Dcq2rHEv3YZ0NGWludwC/yWdPgje0zSouTNxJBXGIgFmDfH5oUaaFxqAzcNK84TIty1godqJSgKj53JxNv1RIBVJn660053SQrGJ8WffhOHLPYH6gy0rfb0JPo6hq+xV8IcwNm0x6X0P7UoSzR/M+A7Hl5wX1cxGDcGCX5ePi8T3gjvPLhZ8A==","691f8ca61c6b4dcbb0aeb5f4","691fc962d40d4e5259e83ec8","index1","<span style='color:red'>Fail,<span style='color:red'>Fail,<span style='color:green'>Lift,<span style='color:green'>Lift,<span style='color:red'>Fail,<span style='color:red'>Fail,<span style='color:red'>Fail,<span style='color:red'>Fail,<span style='color:green'>Lift,<span style='color:red'>Fail,<span style='color:red'>Fail,<span style='color:green'>Lift","<span style='color:red'>Fail,<span style='color:red'>Fail,<span style='color:green'>Lift,<span style='color:green'>Lift,<span style='color:green'>Lift,<span style='color:green'>Lift,<span style='color:red'>Fail,<span style='color:green'>Lift,<span style='color:green'>Lift,<span style='color:green'>Lift,<span style='color:red'>Fail,<span style='color:green'>Lift","<span style='color:red'>Fail,<span style='color:green'>Lift,<span style='color:green'>Lift,<span style='color:red'>Fail,<span style='color:green'>Lift,<span style='color:green'>Lift","0,0,1,1,0,0,0,0,1,0,0,1","0,0,1,1,1,1,0,1,1,1,0,1","0,1,1,0,1,1",10,20,20,"","","","","{""box1"":""80""}","",1,"round3_ready",4,1,3,NA,NA,NA,NA,NA,NA,NA,NA,NA,NA,NA,NA,NA,NA,80,80,NA,NA,NA,NA,NA,NA,NA,NA,NA,80,80,NA,NA,NA,NA,NA,NA,NA,NA,NA,"",NA,NA,NA,NA,NA,NA,NA,NA,NA,2025-11-21 02:40:42
"28299.30000001192","https://psyc-201.github.io/xiang2023/exp/index1.html?PROLIFIC_PID=REDACTED&STUDY_ID=691f8ca61c6b4dcbb0aeb5f4&SESSION_ID=691fc962d40d4e5259e83ec8","survey-html-form",12,1413499,"0.0-312.0-0.0","gPCjkGXJ30Gh+KfAcffOt+vH2h6HHvSLsCikf9kKfw+tMAvwmkoU33WuFKttT3005pTmNgV4UGCEzGoeUaMUMoc29zqXp0T9P8QgU9JmDFpLjTpd0EbGww6suZUbMVCEW03/YtLQ/ZrSeOrMfJVFrH3+55lHh4jF5Dcq2rHEv3YZ0NGWludwC/yWdPgje0zSouTNxJBXGIgFmDfH5oUaaFxqAzcNK84TIty1godqJSgKj53JxNv1RIBVJn660053SQrGJ8WffhOHLPYH6gy0rfb0JPo6hq+xV8IcwNm0x6X0P7UoSzR/M+A7Hl5wX1cxGDcGCX5ePi8T3gjvPLhZ8A==","691f8ca61c6b4dcbb0aeb5f4","691fc962d40d4e5259e83ec8","index1","<span style='color:red'>Fail,<span style='color:red'>Fail,<span style='color:green'>Lift,<span style='color:green'>Lift,<span style='color:red'>Fail,<span style='color:red'>Fail,<span style='color:red'>Fail,<span style='color:red'>Fail,<span style='color:green'>Lift,<span style='color:red'>Fail,<span style='color:red'>Fail,<span style='color:green'>Lift","<span style='color:red'>Fail,<span style='color:red'>Fail,<span style='color:green'>Lift,<span style='color:green'>Lift,<span style='color:green'>Lift,<span style='color:green'>Lift,<span style='color:red'>Fail,<span style='color:green'>Lift,<span style='color:green'>Lift,<span style='color:green'>Lift,<span style='color:red'>Fail,<span style='color:green'>Lift","<span style='color:red'>Fail,<span style='color:green'>Lift,<span style='color:green'>Lift,<span style='color:red'>Fail,<span style='color:green'>Lift,<span style='color:green'>Lift","0,0,1,1,0,0,0,0,1,0,0,1","0,0,1,1,1,1,0,1,1,1,0,1","0,1,1,0,1,1",10,20,20,"","","","","{""box1"":""5"",""box2"":""8"",""box3"":""30"",""box4"":""70""}","",2,"round3_lift",5,1,3,5,8,30,70,1,1,20,NA,NA,NA,NA,NA,NA,NA,NA,NA,NA,NA,NA,NA,NA,NA,NA,NA,NA,NA,NA,5,8,30,70,1,1,20,NA,NA,"",NA,NA,NA,NA,NA,NA,NA,NA,NA,2025-11-21 02:40:42
"null","https://psyc-201.github.io/xiang2023/exp/index1.html?PROLIFIC_PID=REDACTED&STUDY_ID=691f8ca61c6b4dcbb0aeb5f4&SESSION_ID=691fc962d40d4e5259e83ec8","html-keyboard-response",13,1416504,"0.0-316.0","gPCjkGXJ30Gh+KfAcffOt+vH2h6HHvSLsCikf9kKfw+tMAvwmkoU33WuFKttT3005pTmNgV4UGCEzGoeUaMUMoc29zqXp0T9P8QgU9JmDFpLjTpd0EbGww6suZUbMVCEW03/YtLQ/ZrSeOrMfJVFrH3+55lHh4jF5Dcq2rHEv3YZ0NGWludwC/yWdPgje0zSouTNxJBXGIgFmDfH5oUaaFxqAzcNK84TIty1godqJSgKj53JxNv1RIBVJn660053SQrGJ8WffhOHLPYH6gy0rfb0JPo6hq+xV8IcwNm0x6X0P7UoSzR/M+A7Hl5wX1cxGDcGCX5ePi8T3gjvPLhZ8A==","691f8ca61c6b4dcbb0aeb5f4","691fc962d40d4e5259e83ec8","index1","<span style='color:red'>Fail,<span style='color:red'>Fail,<span style='color:green'>Lift,<span style='color:green'>Lift,<span style='color:red'>Fail,<span style='color:red'>Fail,<span style='color:red'>Fail,<span style='color:red'>Fail,<span style='color:green'>Lift,<span style='color:red'>Fail,<span style='color:red'>Fail,<span style='color:green'>Lift","<span style='color:red'>Fail,<span style='color:red'>Fail,<span style='color:green'>Lift,<span style='color:green'>Lift,<span style='color:green'>Lift,<span style='color:green'>Lift,<span style='color:red'>Fail,<span style='color:green'>Lift,<span style='color:green'>Lift,<span style='color:green'>Lift,<span style='color:red'>Fail,<span style='color:green'>Lift","<span style='color:red'>Fail,<span style='color:green'>Lift,<span style='color:green'>Lift,<span style='color:red'>Fail,<span style='color:green'>Lift,<span style='color:green'>Lift","0,0,1,1,0,0,0,0,1,0,0,1","0,0,1,1,1,1,0,1,1,1,0,1","0,1,1,0,1,1",10,20,20,"","","<p style='font-size:30px'><b> New Contest! </b></p>","null","","",2,"",NA,NA,NA,NA,NA,NA,NA,NA,NA,NA,NA,NA,NA,NA,NA,NA,NA,NA,NA,NA,NA,NA,NA,NA,NA,NA,NA,NA,NA,NA,NA,NA,NA,NA,NA,NA,NA,NA,NA,"",NA,NA,NA,NA,NA,NA,NA,NA,NA,2025-11-21 02:40:42
"22158.5","https://psyc-201.github.io/xiang2023/exp/index1.html?PROLIFIC_PID=REDACTED&STUDY_ID=691f8ca61c6b4dcbb0aeb5f4&SESSION_ID=691fc962d40d4e5259e83ec8","survey-html-form",14,1438665,"0.0-317.0","gPCjkGXJ30Gh+KfAcffOt+vH2h6HHvSLsCikf9kKfw+tMAvwmkoU33WuFKttT3005pTmNgV4UGCEzGoeUaMUMoc29zqXp0T9P8QgU9JmDFpLjTpd0EbGww6suZUbMVCEW03/YtLQ/ZrSeOrMfJVFrH3+55lHh4jF5Dcq2rHEv3YZ0NGWludwC/yWdPgje0zSouTNxJBXGIgFmDfH5oUaaFxqAzcNK84TIty1godqJSgKj53JxNv1RIBVJn660053SQrGJ8WffhOHLPYH6gy0rfb0JPo6hq+xV8IcwNm0x6X0P7UoSzR/M+A7Hl5wX1cxGDcGCX5ePi8T3gjvPLhZ8A==","691f8ca61c6b4dcbb0aeb5f4","691fc962d40d4e5259e83ec8","index1","<span style='color:red'>Fail,<span style='color:red'>Fail,<span style='color:green'>Lift,<span style='color:green'>Lift,<span style='color:red'>Fail,<span style='color:red'>Fail,<span style='color:red'>Fail,<span style='color:red'>Fail,<span style='color:green'>Lift,<span style='color:red'>Fail,<span style='color:red'>Fail,<span style='color:green'>Lift","<span style='color:red'>Fail,<span style='color:red'>Fail,<span style='color:green'>Lift,<span style='color:green'>Lift,<span style='color:green'>Lift,<span style='color:green'>Lift,<span style='color:red'>Fail,<span style='color:green'>Lift,<span style='color:green'>Lift,<span style='color:green'>Lift,<span style='color:red'>Fail,<span style='color:green'>Lift","<span style='color:red'>Fail,<span style='color:green'>Lift,<span style='color:green'>Lift,<span style='color:red'>Fail,<span style='color:green'>Lift,<span style='color:green'>Lift","0,0,1,1,0,0,0,0,1,0,0,1","0,0,1,1,1,1,0,1,1,1,0,1","0,1,1,0,1,1",10,20,20,"","","","","{""box1"":""6"",""box2"":""3"",""box3"":""80""}","",2,"round1_outcome",1,2,1,6,3,80,NA,1,0,10,6,3,80,NA,1,0,10,NA,NA,NA,NA,NA,NA,NA,NA,NA,NA,NA,NA,NA,NA,NA,NA,NA,NA,NA,NA,NA,NA,"",NA,NA,NA,NA,NA,NA,NA,NA,NA,2025-11-21 02:40:42
"17788.79999998212","https://psyc-201.github.io/xiang2023/exp/index1.html?PROLIFIC_PID=REDACTED&STUDY_ID=691f8ca61c6b4dcbb0aeb5f4&SESSION_ID=691fc962d40d4e5259e83ec8","survey-html-form",15,1456458,"0.0-318.0","gPCjkGXJ30Gh+KfAcffOt+vH2h6HHvSLsCikf9kKfw+tMAvwmkoU33WuFKttT3005pTmNgV4UGCEzGoeUaMUMoc29zqXp0T9P8QgU9JmDFpLjTpd0EbGww6suZUbMVCEW03/YtLQ/ZrSeOrMfJVFrH3+55lHh4jF5Dcq2rHEv3YZ0NGWludwC/yWdPgje0zSouTNxJBXGIgFmDfH5oUaaFxqAzcNK84TIty1godqJSgKj53JxNv1RIBVJn660053SQrGJ8WffhOHLPYH6gy0rfb0JPo6hq+xV8IcwNm0x6X0P7UoSzR/M+A7Hl5wX1cxGDcGCX5ePi8T3gjvPLhZ8A==","691f8ca61c6b4dcbb0aeb5f4","691fc962d40d4e5259e83ec8","index1","<span style='color:red'>Fail,<span style='color:red'>Fail,<span style='color:green'>Lift,<span style='color:green'>Lift,<span style='color:red'>Fail,<span style='color:red'>Fail,<span style='color:red'>Fail,<span style='color:red'>Fail,<span style='color:green'>Lift,<span style='color:red'>Fail,<span style='color:red'>Fail,<span style='color:green'>Lift","<span style='color:red'>Fail,<span style='color:red'>Fail,<span style='color:green'>Lift,<span style='color:green'>Lift,<span style='color:green'>Lift,<span style='color:green'>Lift,<span style='color:red'>Fail,<span style='color:green'>Lift,<span style='color:green'>Lift,<span style='color:green'>Lift,<span style='color:red'>Fail,<span style='color:green'>Lift","<span style='color:red'>Fail,<span style='color:green'>Lift,<span style='color:green'>Lift,<span style='color:red'>Fail,<span style='color:green'>Lift,<span style='color:green'>Lift","0,0,1,1,0,0,0,0,1,0,0,1","0,0,1,1,1,1,0,1,1,1,0,1","0,1,1,0,1,1",10,20,20,"","","","","{""box1"":""80"",""box2"":""65""}","",2,"round2_ready",2,2,2,NA,NA,NA,NA,NA,NA,NA,NA,NA,NA,NA,NA,NA,NA,80,65,80,65,NA,NA,NA,NA,NA,NA,NA,NA,NA,NA,NA,NA,NA,NA,NA,NA,NA,NA,"",NA,NA,NA,NA,NA,NA,NA,NA,NA,2025-11-21 02:40:42
"22314.70000001788","https://psyc-201.github.io/xiang2023/exp/index1.html?PROLIFIC_PID=REDACTED&STUDY_ID=691f8ca61c6b4dcbb0aeb5f4&SESSION_ID=691fc962d40d4e5259e83ec8","survey-html-form",16,1478778,"0.0-319.0","gPCjkGXJ30Gh+KfAcffOt+vH2h6HHvSLsCikf9kKfw+tMAvwmkoU33WuFKttT3005pTmNgV4UGCEzGoeUaMUMoc29zqXp0T9P8QgU9JmDFpLjTpd0EbGww6suZUbMVCEW03/YtLQ/ZrSeOrMfJVFrH3+55lHh4jF5Dcq2rHEv3YZ0NGWludwC/yWdPgje0zSouTNxJBXGIgFmDfH5oUaaFxqAzcNK84TIty1godqJSgKj53JxNv1RIBVJn660053SQrGJ8WffhOHLPYH6gy0rfb0JPo6hq+xV8IcwNm0x6X0P7UoSzR/M+A7Hl5wX1cxGDcGCX5ePi8T3gjvPLhZ8A==","691f8ca61c6b4dcbb0aeb5f4","691fc962d40d4e5259e83ec8","index1","<span style='color:red'>Fail,<span style='color:red'>Fail,<span style='color:green'>Lift,<span style='color:green'>Lift,<span style='color:red'>Fail,<span style='color:red'>Fail,<span style='color:red'>Fail,<span style='color:red'>Fail,<span style='color:green'>Lift,<span style='color:red'>Fail,<span style='color:red'>Fail,<span style='color:green'>Lift","<span style='color:red'>Fail,<span style='color:red'>Fail,<span style='color:green'>Lift,<span style='color:green'>Lift,<span style='color:green'>Lift,<span style='color:green'>Lift,<span style='color:red'>Fail,<span style='color:green'>Lift,<span style='color:green'>Lift,<span style='color:green'>Lift,<span style='color:red'>Fail,<span style='color:green'>Lift","<span style='color:red'>Fail,<span style='color:green'>Lift,<span style='color:green'>Lift,<span style='color:red'>Fail,<span style='color:green'>Lift,<span style='color:green'>Lift","0,0,1,1,0,0,0,0,1,0,0,1","0,0,1,1,1,1,0,1,1,1,0,1","0,1,1,0,1,1",10,20,20,"","","","","{""box1"":""5"",""box2"":""7"",""box3"":""70"",""box4"":""90""}","",2,"round2_outcome",3,2,2,5,7,70,90,1,1,20,NA,NA,NA,NA,NA,NA,NA,NA,NA,NA,NA,5,7,70,90,1,1,20,NA,NA,NA,NA,NA,NA,NA,NA,NA,NA,NA,"",NA,NA,NA,NA,NA,NA,NA,NA,NA,2025-11-21 02:40:42
"5317.199999988079","https://psyc-201.github.io/xiang2023/exp/index1.html?PROLIFIC_PID=REDACTED&STUDY_ID=691f8ca61c6b4dcbb0aeb5f4&SESSION_ID=691fc962d40d4e5259e83ec8","survey-html-form",17,1484098,"0.0-320.0","gPCjkGXJ30Gh+KfAcffOt+vH2h6HHvSLsCikf9kKfw+tMAvwmkoU33WuFKttT3005pTmNgV4UGCEzGoeUaMUMoc29zqXp0T9P8QgU9JmDFpLjTpd0EbGww6suZUbMVCEW03/YtLQ/ZrSeOrMfJVFrH3+55lHh4jF5Dcq2rHEv3YZ0NGWludwC/yWdPgje0zSouTNxJBXGIgFmDfH5oUaaFxqAzcNK84TIty1godqJSgKj53JxNv1RIBVJn660053SQrGJ8WffhOHLPYH6gy0rfb0JPo6hq+xV8IcwNm0x6X0P7UoSzR/M+A7Hl5wX1cxGDcGCX5ePi8T3gjvPLhZ8A==","691f8ca61c6b4dcbb0aeb5f4","691fc962d40d4e5259e83ec8","index1","<span style='color:red'>Fail,<span style='color:red'>Fail,<span style='color:green'>Lift,<span style='color:green'>Lift,<span style='color:red'>Fail,<span style='color:red'>Fail,<span style='color:red'>Fail,<span style='color:red'>Fail,<span style='color:green'>Lift,<span style='color:red'>Fail,<span style='color:red'>Fail,<span style='color:green'>Lift","<span style='color:red'>Fail,<span style='color:red'>Fail,<span style='color:green'>Lift,<span style='color:green'>Lift,<span style='color:green'>Lift,<span style='color:green'>Lift,<span style='color:red'>Fail,<span style='color:green'>Lift,<span style='color:green'>Lift,<span style='color:green'>Lift,<span style='color:red'>Fail,<span style='color:green'>Lift","<span style='color:red'>Fail,<span style='color:green'>Lift,<span style='color:green'>Lift,<span style='color:red'>Fail,<span style='color:green'>Lift,<span style='color:green'>Lift","0,0,1,1,0,0,0,0,1,0,0,1","0,0,1,1,1,1,0,1,1,1,0,1","0,1,1,0,1,1",10,20,20,"","","","","{""box1"":""90""}","",2,"round3_ready",4,2,3,NA,NA,NA,NA,NA,NA,NA,NA,NA,NA,NA,NA,NA,NA,90,90,NA,NA,NA,NA,NA,NA,NA,NA,NA,90,90,NA,NA,NA,NA,NA,NA,NA,NA,NA,"",NA,NA,NA,NA,NA,NA,NA,NA,NA,2025-11-21 02:40:42
"14437.5","https://psyc-201.github.io/xiang2023/exp/index1.html?PROLIFIC_PID=REDACTED&STUDY_ID=691f8ca61c6b4dcbb0aeb5f4&SESSION_ID=691fc962d40d4e5259e83ec8","survey-html-form",18,1498539,"0.0-321.0-0.0","gPCjkGXJ30Gh+KfAcffOt+vH2h6HHvSLsCikf9kKfw+tMAvwmkoU33WuFKttT3005pTmNgV4UGCEzGoeUaMUMoc29zqXp0T9P8QgU9JmDFpLjTpd0EbGww6suZUbMVCEW03/YtLQ/ZrSeOrMfJVFrH3+55lHh4jF5Dcq2rHEv3YZ0NGWludwC/yWdPgje0zSouTNxJBXGIgFmDfH5oUaaFxqAzcNK84TIty1godqJSgKj53JxNv1RIBVJn660053SQrGJ8WffhOHLPYH6gy0rfb0JPo6hq+xV8IcwNm0x6X0P7UoSzR/M+A7Hl5wX1cxGDcGCX5ePi8T3gjvPLhZ8A==","691f8ca61c6b4dcbb0aeb5f4","691fc962d40d4e5259e83ec8","index1","<span style='color:red'>Fail,<span style='color:red'>Fail,<span style='color:green'>Lift,<span style='color:green'>Lift,<span style='color:red'>Fail,<span style='color:red'>Fail,<span style='color:red'>Fail,<span style='color:red'>Fail,<span style='color:green'>Lift,<span style='color:red'>Fail,<span style='color:red'>Fail,<span style='color:green'>Lift","<span style='color:red'>Fail,<span style='color:red'>Fail,<span style='color:green'>Lift,<span style='color:green'>Lift,<span style='color:green'>Lift,<span style='color:green'>Lift,<span style='color:red'>Fail,<span style='color:green'>Lift,<span style='color:green'>Lift,<span style='color:green'>Lift,<span style='color:red'>Fail,<span style='color:green'>Lift","<span style='color:red'>Fail,<span style='color:green'>Lift,<span style='color:green'>Lift,<span style='color:red'>Fail,<span style='color:green'>Lift,<span style='color:green'>Lift","0,0,1,1,0,0,0,0,1,0,0,1","0,0,1,1,1,1,0,1,1,1,0,1","0,1,1,0,1,1",10,20,20,"","","","","{""box1"":""5"",""box2"":""7"",""box3"":""70"",""box4"":""90""}","",3,"round3_lift",5,2,3,5,7,70,90,1,1,20,NA,NA,NA,NA,NA,NA,NA,NA,NA,NA,NA,NA,NA,NA,NA,NA,NA,NA,NA,NA,5,7,70,90,1,1,20,NA,NA,"",NA,NA,NA,NA,NA,NA,NA,NA,NA,2025-11-21 02:40:42
"null","https://psyc-201.github.io/xiang2023/exp/index1.html?PROLIFIC_PID=REDACTED&STUDY_ID=691f8ca61c6b4dcbb0aeb5f4&SESSION_ID=691fc962d40d4e5259e83ec8","html-keyboard-response",19,1501550,"0.0-325.0","gPCjkGXJ30Gh+KfAcffOt+vH2h6HHvSLsCikf9kKfw+tMAvwmkoU33WuFKttT3005pTmNgV4UGCEzGoeUaMUMoc29zqXp0T9P8QgU9JmDFpLjTpd0EbGww6suZUbMVCEW03/YtLQ/ZrSeOrMfJVFrH3+55lHh4jF5Dcq2rHEv3YZ0NGWludwC/yWdPgje0zSouTNxJBXGIgFmDfH5oUaaFxqAzcNK84TIty1godqJSgKj53JxNv1RIBVJn660053SQrGJ8WffhOHLPYH6gy0rfb0JPo6hq+xV8IcwNm0x6X0P7UoSzR/M+A7Hl5wX1cxGDcGCX5ePi8T3gjvPLhZ8A==","691f8ca61c6b4dcbb0aeb5f4","691fc962d40d4e5259e83ec8","index1","<span style='color:red'>Fail,<span style='color:red'>Fail,<span style='color:green'>Lift,<span style='color:green'>Lift,<span style='color:red'>Fail,<span style='color:red'>Fail,<span style='color:red'>Fail,<span style='color:red'>Fail,<span style='color:green'>Lift,<span style='color:red'>Fail,<span style='color:red'>Fail,<span style='color:green'>Lift","<span style='color:red'>Fail,<span style='color:red'>Fail,<span style='color:green'>Lift,<span style='color:green'>Lift,<span style='color:green'>Lift,<span style='color:green'>Lift,<span style='color:red'>Fail,<span style='color:green'>Lift,<span style='color:green'>Lift,<span style='color:green'>Lift,<span style='color:red'>Fail,<span style='color:green'>Lift","<span style='color:red'>Fail,<span style='color:green'>Lift,<span style='color:green'>Lift,<span style='color:red'>Fail,<span style='color:green'>Lift,<span style='color:green'>Lift","0,0,1,1,0,0,0,0,1,0,0,1","0,0,1,1,1,1,0,1,1,1,0,1","0,1,1,0,1,1",10,20,20,"","","<p style='font-size:30px'><b> New Contest! </b></p>","null","","",3,"",NA,NA,NA,NA,NA,NA,NA,NA,NA,NA,NA,NA,NA,NA,NA,NA,NA,NA,NA,NA,NA,NA,NA,NA,NA,NA,NA,NA,NA,NA,NA,NA,NA,NA,NA,NA,NA,NA,NA,"",NA,NA,NA,NA,NA,NA,NA,NA,NA,2025-11-21 02:40:42
"8128.5999999940395","https://psyc-201.github.io/xiang2023/exp/index1.html?PROLIFIC_PID=REDACTED&STUDY_ID=691f8ca61c6b4dcbb0aeb5f4&SESSION_ID=691fc962d40d4e5259e83ec8","survey-html-form",20,1509682,"0.0-326.0","gPCjkGXJ30Gh+KfAcffOt+vH2h6HHvSLsCikf9kKfw+tMAvwmkoU33WuFKttT3005pTmNgV4UGCEzGoeUaMUMoc29zqXp0T9P8QgU9JmDFpLjTpd0EbGww6suZUbMVCEW03/YtLQ/ZrSeOrMfJVFrH3+55lHh4jF5Dcq2rHEv3YZ0NGWludwC/yWdPgje0zSouTNxJBXGIgFmDfH5oUaaFxqAzcNK84TIty1godqJSgKj53JxNv1RIBVJn660053SQrGJ8WffhOHLPYH6gy0rfb0JPo6hq+xV8IcwNm0x6X0P7UoSzR/M+A7Hl5wX1cxGDcGCX5ePi8T3gjvPLhZ8A==","691f8ca61c6b4dcbb0aeb5f4","691fc962d40d4e5259e83ec8","index1","<span style='color:red'>Fail,<span style='color:red'>Fail,<span style='color:green'>Lift,<span style='color:green'>Lift,<span style='color:red'>Fail,<span style='color:red'>Fail,<span style='color:red'>Fail,<span style='color:red'>Fail,<span style='color:green'>Lift,<span style='color:red'>Fail,<span style='color:red'>Fail,<span style='color:green'>Lift","<span style='color:red'>Fail,<span style='color:red'>Fail,<span style='color:green'>Lift,<span style='color:green'>Lift,<span style='color:green'>Lift,<span style='color:green'>Lift,<span style='color:red'>Fail,<span style='color:green'>Lift,<span style='color:green'>Lift,<span style='color:green'>Lift,<span style='color:red'>Fail,<span style='color:green'>Lift","<span style='color:red'>Fail,<span style='color:green'>Lift,<span style='color:green'>Lift,<span style='color:red'>Fail,<span style='color:green'>Lift,<span style='color:green'>Lift","0,0,1,1,0,0,0,0,1,0,0,1","0,0,1,1,1,1,0,1,1,1,0,1","0,1,1,0,1,1",10,20,20,"","","","","{""box1"":""3"",""box2"":""3""}","",3,"round1_outcome",1,3,1,3,3,NA,NA,0,0,10,3,3,NA,NA,0,0,10,NA,NA,NA,NA,NA,NA,NA,NA,NA,NA,NA,NA,NA,NA,NA,NA,NA,NA,NA,NA,NA,NA,"",NA,NA,NA,NA,NA,NA,NA,NA,NA,2025-11-21 02:40:42
"10900.09999999404","https://psyc-201.github.io/xiang2023/exp/index1.html?PROLIFIC_PID=REDACTED&STUDY_ID=691f8ca61c6b4dcbb0aeb5f4&SESSION_ID=691fc962d40d4e5259e83ec8","survey-html-form",21,1520585,"0.0-327.0","gPCjkGXJ30Gh+KfAcffOt+vH2h6HHvSLsCikf9kKfw+tMAvwmkoU33WuFKttT3005pTmNgV4UGCEzGoeUaMUMoc29zqXp0T9P8QgU9JmDFpLjTpd0EbGww6suZUbMVCEW03/YtLQ/ZrSeOrMfJVFrH3+55lHh4jF5Dcq2rHEv3YZ0NGWludwC/yWdPgje0zSouTNxJBXGIgFmDfH5oUaaFxqAzcNK84TIty1godqJSgKj53JxNv1RIBVJn660053SQrGJ8WffhOHLPYH6gy0rfb0JPo6hq+xV8IcwNm0x6X0P7UoSzR/M+A7Hl5wX1cxGDcGCX5ePi8T3gjvPLhZ8A==","691f8ca61c6b4dcbb0aeb5f4","691fc962d40d4e5259e83ec8","index1","<span style='color:red'>Fail,<span style='color:red'>Fail,<span style='color:green'>Lift,<span style='color:green'>Lift,<span style='color:red'>Fail,<span style='color:red'>Fail,<span style='color:red'>Fail,<span style='color:red'>Fail,<span style='color:green'>Lift,<span style='color:red'>Fail,<span style='color:red'>Fail,<span style='color:green'>Lift","<span style='color:red'>Fail,<span style='color:red'>Fail,<span style='color:green'>Lift,<span style='color:green'>Lift,<span style='color:green'>Lift,<span style='color:green'>Lift,<span style='color:red'>Fail,<span style='color:green'>Lift,<span style='color:green'>Lift,<span style='color:green'>Lift,<span style='color:red'>Fail,<span style='color:green'>Lift","<span style='color:red'>Fail,<span style='color:green'>Lift,<span style='color:green'>Lift,<span style='color:red'>Fail,<span style='color:green'>Lift,<span style='color:green'>Lift","0,0,1,1,0,0,0,0,1,0,0,1","0,0,1,1,1,1,0,1,1,1,0,1","0,1,1,0,1,1",10,20,20,"","","","","{""box1"":""40"",""box2"":""40""}","",3,"round2_ready",2,3,2,NA,NA,NA,NA,NA,NA,NA,NA,NA,NA,NA,NA,NA,NA,40,40,40,40,NA,NA,NA,NA,NA,NA,NA,NA,NA,NA,NA,NA,NA,NA,NA,NA,NA,NA,"",NA,NA,NA,NA,NA,NA,NA,NA,NA,2025-11-21 02:40:42
"6709.200000017881","https://psyc-201.github.io/xiang2023/exp/index1.html?PROLIFIC_PID=REDACTED&STUDY_ID=691f8ca61c6b4dcbb0aeb5f4&SESSION_ID=691fc962d40d4e5259e83ec8","survey-html-form",22,1527301,"0.0-328.0","gPCjkGXJ30Gh+KfAcffOt+vH2h6HHvSLsCikf9kKfw+tMAvwmkoU33WuFKttT3005pTmNgV4UGCEzGoeUaMUMoc29zqXp0T9P8QgU9JmDFpLjTpd0EbGww6suZUbMVCEW03/YtLQ/ZrSeOrMfJVFrH3+55lHh4jF5Dcq2rHEv3YZ0NGWludwC/yWdPgje0zSouTNxJBXGIgFmDfH5oUaaFxqAzcNK84TIty1godqJSgKj53JxNv1RIBVJn660053SQrGJ8WffhOHLPYH6gy0rfb0JPo6hq+xV8IcwNm0x6X0P7UoSzR/M+A7Hl5wX1cxGDcGCX5ePi8T3gjvPLhZ8A==","691f8ca61c6b4dcbb0aeb5f4","691fc962d40d4e5259e83ec8","index1","<span style='color:red'>Fail,<span style='color:red'>Fail,<span style='color:green'>Lift,<span style='color:green'>Lift,<span style='color:red'>Fail,<span style='color:red'>Fail,<span style='color:red'>Fail,<span style='color:red'>Fail,<span style='color:green'>Lift,<span style='color:red'>Fail,<span style='color:red'>Fail,<span style='color:green'>Lift","<span style='color:red'>Fail,<span style='color:red'>Fail,<span style='color:green'>Lift,<span style='color:green'>Lift,<span style='color:green'>Lift,<span style='color:green'>Lift,<span style='color:red'>Fail,<span style='color:green'>Lift,<span style='color:green'>Lift,<span style='color:green'>Lift,<span style='color:red'>Fail,<span style='color:green'>Lift","<span style='color:red'>Fail,<span style='color:green'>Lift,<span style='color:green'>Lift,<span style='color:red'>Fail,<span style='color:green'>Lift,<span style='color:green'>Lift","0,0,1,1,0,0,0,0,1,0,0,1","0,0,1,1,1,1,0,1,1,1,0,1","0,1,1,0,1,1",10,20,20,"","","","","{""box1"":""2"",""box2"":""2""}","",3,"round2_outcome",3,3,2,2,2,NA,NA,0,0,20,NA,NA,NA,NA,NA,NA,NA,NA,NA,NA,NA,2,2,NA,NA,0,0,20,NA,NA,NA,NA,NA,NA,NA,NA,NA,NA,NA,"",NA,NA,NA,NA,NA,NA,NA,NA,NA,2025-11-21 02:40:42
"6170.5","https://psyc-201.github.io/xiang2023/exp/index1.html?PROLIFIC_PID=REDACTED&STUDY_ID=691f8ca61c6b4dcbb0aeb5f4&SESSION_ID=691fc962d40d4e5259e83ec8","survey-html-form",23,1533475,"0.0-329.0","gPCjkGXJ30Gh+KfAcffOt+vH2h6HHvSLsCikf9kKfw+tMAvwmkoU33WuFKttT3005pTmNgV4UGCEzGoeUaMUMoc29zqXp0T9P8QgU9JmDFpLjTpd0EbGww6suZUbMVCEW03/YtLQ/ZrSeOrMfJVFrH3+55lHh4jF5Dcq2rHEv3YZ0NGWludwC/yWdPgje0zSouTNxJBXGIgFmDfH5oUaaFxqAzcNK84TIty1godqJSgKj53JxNv1RIBVJn660053SQrGJ8WffhOHLPYH6gy0rfb0JPo6hq+xV8IcwNm0x6X0P7UoSzR/M+A7Hl5wX1cxGDcGCX5ePi8T3gjvPLhZ8A==","691f8ca61c6b4dcbb0aeb5f4","691fc962d40d4e5259e83ec8","index1","<span style='color:red'>Fail,<span style='color:red'>Fail,<span style='color:green'>Lift,<span style='color:green'>Lift,<span style='color:red'>Fail,<span style='color:red'>Fail,<span style='color:red'>Fail,<span style='color:red'>Fail,<span style='color:green'>Lift,<span style='color:red'>Fail,<span style='color:red'>Fail,<span style='color:green'>Lift","<span style='color:red'>Fail,<span style='color:red'>Fail,<span style='color:green'>Lift,<span style='color:green'>Lift,<span style='color:green'>Lift,<span style='color:green'>Lift,<span style='color:red'>Fail,<span style='color:green'>Lift,<span style='color:green'>Lift,<span style='color:green'>Lift,<span style='color:red'>Fail,<span style='color:green'>Lift","<span style='color:red'>Fail,<span style='color:green'>Lift,<span style='color:green'>Lift,<span style='color:red'>Fail,<span style='color:green'>Lift,<span style='color:green'>Lift","0,0,1,1,0,0,0,0,1,0,0,1","0,0,1,1,1,1,0,1,1,1,0,1","0,1,1,0,1,1",10,20,20,"","","","","{""box1"":""40""}","",3,"round3_ready",4,3,3,NA,NA,NA,NA,NA,NA,NA,NA,NA,NA,NA,NA,NA,NA,40,40,NA,NA,NA,NA,NA,NA,NA,NA,NA,40,40,NA,NA,NA,NA,NA,NA,NA,NA,NA,"",NA,NA,NA,NA,NA,NA,NA,NA,NA,2025-11-21 02:40:42
"20011.09999999404","https://psyc-201.github.io/xiang2023/exp/index1.html?PROLIFIC_PID=REDACTED&STUDY_ID=691f8ca61c6b4dcbb0aeb5f4&SESSION_ID=691fc962d40d4e5259e83ec8","survey-html-form",24,1553491,"0.0-331.0-0.0","gPCjkGXJ30Gh+KfAcffOt+vH2h6HHvSLsCikf9kKfw+tMAvwmkoU33WuFKttT3005pTmNgV4UGCEzGoeUaMUMoc29zqXp0T9P8QgU9JmDFpLjTpd0EbGww6suZUbMVCEW03/YtLQ/ZrSeOrMfJVFrH3+55lHh4jF5Dcq2rHEv3YZ0NGWludwC/yWdPgje0zSouTNxJBXGIgFmDfH5oUaaFxqAzcNK84TIty1godqJSgKj53JxNv1RIBVJn660053SQrGJ8WffhOHLPYH6gy0rfb0JPo6hq+xV8IcwNm0x6X0P7UoSzR/M+A7Hl5wX1cxGDcGCX5ePi8T3gjvPLhZ8A==","691f8ca61c6b4dcbb0aeb5f4","691fc962d40d4e5259e83ec8","index1","<span style='color:red'>Fail,<span style='color:red'>Fail,<span style='color:green'>Lift,<span style='color:green'>Lift,<span style='color:red'>Fail,<span style='color:red'>Fail,<span style='color:red'>Fail,<span style='color:red'>Fail,<span style='color:green'>Lift,<span style='color:red'>Fail,<span style='color:red'>Fail,<span style='color:green'>Lift","<span style='color:red'>Fail,<span style='color:red'>Fail,<span style='color:green'>Lift,<span style='color:green'>Lift,<span style='color:green'>Lift,<span style='color:green'>Lift,<span style='color:red'>Fail,<span style='color:green'>Lift,<span style='color:green'>Lift,<span style='color:green'>Lift,<span style='color:red'>Fail,<span style='color:green'>Lift","<span style='color:red'>Fail,<span style='color:green'>Lift,<span style='color:green'>Lift,<span style='color:red'>Fail,<span style='color:green'>Lift,<span style='color:green'>Lift","0,0,1,1,0,0,0,0,1,0,0,1","0,0,1,1,1,1,0,1,1,1,0,1","0,1,1,0,1,1",10,20,20,"","","","","{""box1"":""2"",""box2"":""2"",""box3"":""999"",""box4"":""999""}","",4,"round3_fail",5,3,3,2,2,NA,NA,0,0,20,NA,NA,NA,NA,NA,NA,NA,NA,NA,NA,NA,NA,NA,NA,NA,NA,NA,NA,NA,NA,2,2,NA,NA,0,0,20,1,1,"",NA,NA,NA,NA,NA,NA,NA,NA,NA,2025-11-21 02:40:42
"null","https://psyc-201.github.io/xiang2023/exp/index1.html?PROLIFIC_PID=REDACTED&STUDY_ID=691f8ca61c6b4dcbb0aeb5f4&SESSION_ID=691fc962d40d4e5259e83ec8","html-keyboard-response",25,1556504,"0.0-334.0","gPCjkGXJ30Gh+KfAcffOt+vH2h6HHvSLsCikf9kKfw+tMAvwmkoU33WuFKttT3005pTmNgV4UGCEzGoeUaMUMoc29zqXp0T9P8QgU9JmDFpLjTpd0EbGww6suZUbMVCEW03/YtLQ/ZrSeOrMfJVFrH3+55lHh4jF5Dcq2rHEv3YZ0NGWludwC/yWdPgje0zSouTNxJBXGIgFmDfH5oUaaFxqAzcNK84TIty1godqJSgKj53JxNv1RIBVJn660053SQrGJ8WffhOHLPYH6gy0rfb0JPo6hq+xV8IcwNm0x6X0P7UoSzR/M+A7Hl5wX1cxGDcGCX5ePi8T3gjvPLhZ8A==","691f8ca61c6b4dcbb0aeb5f4","691fc962d40d4e5259e83ec8","index1","<span style='color:red'>Fail,<span style='color:red'>Fail,<span style='color:green'>Lift,<span style='color:green'>Lift,<span style='color:red'>Fail,<span style='color:red'>Fail,<span style='color:red'>Fail,<span style='color:red'>Fail,<span style='color:green'>Lift,<span style='color:red'>Fail,<span style='color:red'>Fail,<span style='color:green'>Lift","<span style='color:red'>Fail,<span style='color:red'>Fail,<span style='color:green'>Lift,<span style='color:green'>Lift,<span style='color:green'>Lift,<span style='color:green'>Lift,<span style='color:red'>Fail,<span style='color:green'>Lift,<span style='color:green'>Lift,<span style='color:green'>Lift,<span style='color:red'>Fail,<span style='color:green'>Lift","<span style='color:red'>Fail,<span style='color:green'>Lift,<span style='color:green'>Lift,<span style='color:red'>Fail,<span style='color:green'>Lift,<span style='color:green'>Lift","0,0,1,1,0,0,0,0,1,0,0,1","0,0,1,1,1,1,0,1,1,1,0,1","0,1,1,0,1,1",10,20,20,"","","<p style='font-size:30px'><b> New Contest! </b></p>","null","","",4,"",NA,NA,NA,NA,NA,NA,NA,NA,NA,NA,NA,NA,NA,NA,NA,NA,NA,NA,NA,NA,NA,NA,NA,NA,NA,NA,NA,NA,NA,NA,NA,NA,NA,NA,NA,NA,NA,NA,NA,"",NA,NA,NA,NA,NA,NA,NA,NA,NA,2025-11-21 02:40:42
"17472.70000001788","https://psyc-201.github.io/xiang2023/exp/index1.html?PROLIFIC_PID=REDACTED&STUDY_ID=691f8ca61c6b4dcbb0aeb5f4&SESSION_ID=691fc962d40d4e5259e83ec8","survey-html-form",26,1573981,"0.0-335.0","gPCjkGXJ30Gh+KfAcffOt+vH2h6HHvSLsCikf9kKfw+tMAvwmkoU33WuFKttT3005pTmNgV4UGCEzGoeUaMUMoc29zqXp0T9P8QgU9JmDFpLjTpd0EbGww6suZUbMVCEW03/YtLQ/ZrSeOrMfJVFrH3+55lHh4jF5Dcq2rHEv3YZ0NGWludwC/yWdPgje0zSouTNxJBXGIgFmDfH5oUaaFxqAzcNK84TIty1godqJSgKj53JxNv1RIBVJn660053SQrGJ8WffhOHLPYH6gy0rfb0JPo6hq+xV8IcwNm0x6X0P7UoSzR/M+A7Hl5wX1cxGDcGCX5ePi8T3gjvPLhZ8A==","691f8ca61c6b4dcbb0aeb5f4","691fc962d40d4e5259e83ec8","index1","<span style='color:red'>Fail,<span style='color:red'>Fail,<span style='color:green'>Lift,<span style='color:green'>Lift,<span style='color:red'>Fail,<span style='color:red'>Fail,<span style='color:red'>Fail,<span style='color:red'>Fail,<span style='color:green'>Lift,<span style='color:red'>Fail,<span style='color:red'>Fail,<span style='color:green'>Lift","<span style='color:red'>Fail,<span style='color:red'>Fail,<span style='color:green'>Lift,<span style='color:green'>Lift,<span style='color:green'>Lift,<span style='color:green'>Lift,<span style='color:red'>Fail,<span style='color:green'>Lift,<span style='color:green'>Lift,<span style='color:green'>Lift,<span style='color:red'>Fail,<span style='color:green'>Lift","<span style='color:red'>Fail,<span style='color:green'>Lift,<span style='color:green'>Lift,<span style='color:red'>Fail,<span style='color:green'>Lift,<span style='color:green'>Lift","0,0,1,1,0,0,0,0,1,0,0,1","0,0,1,1,1,1,0,1,1,1,0,1","0,1,1,0,1,1",10,20,20,"","","","","{""box1"":""7"",""box2"":""7"",""box3"":""85"",""box4"":""85""}","",4,"round1_outcome",1,4,1,7,7,85,85,1,1,10,7,7,85,85,1,1,10,NA,NA,NA,NA,NA,NA,NA,NA,NA,NA,NA,NA,NA,NA,NA,NA,NA,NA,NA,NA,NA,NA,"",NA,NA,NA,NA,NA,NA,NA,NA,NA,2025-11-21 02:40:42
"11289.299999982119","https://psyc-201.github.io/xiang2023/exp/index1.html?PROLIFIC_PID=REDACTED&STUDY_ID=691f8ca61c6b4dcbb0aeb5f4&SESSION_ID=691fc962d40d4e5259e83ec8","survey-html-form",27,1585273,"0.0-336.0","gPCjkGXJ30Gh+KfAcffOt+vH2h6HHvSLsCikf9kKfw+tMAvwmkoU33WuFKttT3005pTmNgV4UGCEzGoeUaMUMoc29zqXp0T9P8QgU9JmDFpLjTpd0EbGww6suZUbMVCEW03/YtLQ/ZrSeOrMfJVFrH3+55lHh4jF5Dcq2rHEv3YZ0NGWludwC/yWdPgje0zSouTNxJBXGIgFmDfH5oUaaFxqAzcNK84TIty1godqJSgKj53JxNv1RIBVJn660053SQrGJ8WffhOHLPYH6gy0rfb0JPo6hq+xV8IcwNm0x6X0P7UoSzR/M+A7Hl5wX1cxGDcGCX5ePi8T3gjvPLhZ8A==","691f8ca61c6b4dcbb0aeb5f4","691fc962d40d4e5259e83ec8","index1","<span style='color:red'>Fail,<span style='color:red'>Fail,<span style='color:green'>Lift,<span style='color:green'>Lift,<span style='color:red'>Fail,<span style='color:red'>Fail,<span style='color:red'>Fail,<span style='color:red'>Fail,<span style='color:green'>Lift,<span style='color:red'>Fail,<span style='color:red'>Fail,<span style='color:green'>Lift","<span style='color:red'>Fail,<span style='color:red'>Fail,<span style='color:green'>Lift,<span style='color:green'>Lift,<span style='color:green'>Lift,<span style='color:green'>Lift,<span style='color:red'>Fail,<span style='color:green'>Lift,<span style='color:green'>Lift,<span style='color:green'>Lift,<span style='color:red'>Fail,<span style='color:green'>Lift","<span style='color:red'>Fail,<span style='color:green'>Lift,<span style='color:green'>Lift,<span style='color:red'>Fail,<span style='color:green'>Lift,<span style='color:green'>Lift","0,0,1,1,0,0,0,0,1,0,0,1","0,0,1,1,1,1,0,1,1,1,0,1","0,1,1,0,1,1",10,20,20,"","","","","{""box1"":""90"",""box2"":""90""}","",4,"round2_ready",2,4,2,NA,NA,NA,NA,NA,NA,NA,NA,NA,NA,NA,NA,NA,NA,90,90,90,90,NA,NA,NA,NA,NA,NA,NA,NA,NA,NA,NA,NA,NA,NA,NA,NA,NA,NA,"",NA,NA,NA,NA,NA,NA,NA,NA,NA,2025-11-21 02:40:42
"8902","https://psyc-201.github.io/xiang2023/exp/index1.html?PROLIFIC_PID=REDACTED&STUDY_ID=691f8ca61c6b4dcbb0aeb5f4&SESSION_ID=691fc962d40d4e5259e83ec8","survey-html-form",28,1594181,"0.0-337.0","gPCjkGXJ30Gh+KfAcffOt+vH2h6HHvSLsCikf9kKfw+tMAvwmkoU33WuFKttT3005pTmNgV4UGCEzGoeUaMUMoc29zqXp0T9P8QgU9JmDFpLjTpd0EbGww6suZUbMVCEW03/YtLQ/ZrSeOrMfJVFrH3+55lHh4jF5Dcq2rHEv3YZ0NGWludwC/yWdPgje0zSouTNxJBXGIgFmDfH5oUaaFxqAzcNK84TIty1godqJSgKj53JxNv1RIBVJn660053SQrGJ8WffhOHLPYH6gy0rfb0JPo6hq+xV8IcwNm0x6X0P7UoSzR/M+A7Hl5wX1cxGDcGCX5ePi8T3gjvPLhZ8A==","691f8ca61c6b4dcbb0aeb5f4","691fc962d40d4e5259e83ec8","index1","<span style='color:red'>Fail,<span style='color:red'>Fail,<span style='color:green'>Lift,<span style='color:green'>Lift,<span style='color:red'>Fail,<span style='color:red'>Fail,<span style='color:red'>Fail,<span style='color:red'>Fail,<span style='color:green'>Lift,<span style='color:red'>Fail,<span style='color:red'>Fail,<span style='color:green'>Lift","<span style='color:red'>Fail,<span style='color:red'>Fail,<span style='color:green'>Lift,<span style='color:green'>Lift,<span style='color:green'>Lift,<span style='color:green'>Lift,<span style='color:red'>Fail,<span style='color:green'>Lift,<span style='color:green'>Lift,<span style='color:green'>Lift,<span style='color:red'>Fail,<span style='color:green'>Lift","<span style='color:red'>Fail,<span style='color:green'>Lift,<span style='color:green'>Lift,<span style='color:red'>Fail,<span style='color:green'>Lift,<span style='color:green'>Lift","0,0,1,1,0,0,0,0,1,0,0,1","0,0,1,1,1,1,0,1,1,1,0,1","0,1,1,0,1,1",10,20,20,"","","","","{""box1"":""7"",""box2"":""7"",""box3"":""80"",""box4"":""80""}","",4,"round2_outcome",3,4,2,7,7,80,80,1,1,20,NA,NA,NA,NA,NA,NA,NA,NA,NA,NA,NA,7,7,80,80,1,1,20,NA,NA,NA,NA,NA,NA,NA,NA,NA,NA,NA,"",NA,NA,NA,NA,NA,NA,NA,NA,NA,2025-11-21 02:40:42
"4377","https://psyc-201.github.io/xiang2023/exp/index1.html?PROLIFIC_PID=REDACTED&STUDY_ID=691f8ca61c6b4dcbb0aeb5f4&SESSION_ID=691fc962d40d4e5259e83ec8","survey-html-form",29,1598561,"0.0-338.0","gPCjkGXJ30Gh+KfAcffOt+vH2h6HHvSLsCikf9kKfw+tMAvwmkoU33WuFKttT3005pTmNgV4UGCEzGoeUaMUMoc29zqXp0T9P8QgU9JmDFpLjTpd0EbGww6suZUbMVCEW03/YtLQ/ZrSeOrMfJVFrH3+55lHh4jF5Dcq2rHEv3YZ0NGWludwC/yWdPgje0zSouTNxJBXGIgFmDfH5oUaaFxqAzcNK84TIty1godqJSgKj53JxNv1RIBVJn660053SQrGJ8WffhOHLPYH6gy0rfb0JPo6hq+xV8IcwNm0x6X0P7UoSzR/M+A7Hl5wX1cxGDcGCX5ePi8T3gjvPLhZ8A==","691f8ca61c6b4dcbb0aeb5f4","691fc962d40d4e5259e83ec8","index1","<span style='color:red'>Fail,<span style='color:red'>Fail,<span style='color:green'>Lift,<span style='color:green'>Lift,<span style='color:red'>Fail,<span style='color:red'>Fail,<span style='color:red'>Fail,<span style='color:red'>Fail,<span style='color:green'>Lift,<span style='color:red'>Fail,<span style='color:red'>Fail,<span style='color:green'>Lift","<span style='color:red'>Fail,<span style='color:red'>Fail,<span style='color:green'>Lift,<span style='color:green'>Lift,<span style='color:green'>Lift,<span style='color:green'>Lift,<span style='color:red'>Fail,<span style='color:green'>Lift,<span style='color:green'>Lift,<span style='color:green'>Lift,<span style='color:red'>Fail,<span style='color:green'>Lift","<span style='color:red'>Fail,<span style='color:green'>Lift,<span style='color:green'>Lift,<span style='color:red'>Fail,<span style='color:green'>Lift,<span style='color:green'>Lift","0,0,1,1,0,0,0,0,1,0,0,1","0,0,1,1,1,1,0,1,1,1,0,1","0,1,1,0,1,1",10,20,20,"","","","","{""box1"":""95""}","",4,"round3_ready",4,4,3,NA,NA,NA,NA,NA,NA,NA,NA,NA,NA,NA,NA,NA,NA,95,95,NA,NA,NA,NA,NA,NA,NA,NA,NA,95,95,NA,NA,NA,NA,NA,NA,NA,NA,NA,"",NA,NA,NA,NA,NA,NA,NA,NA,NA,2025-11-21 02:40:42
"11796","https://psyc-201.github.io/xiang2023/exp/index1.html?PROLIFIC_PID=REDACTED&STUDY_ID=691f8ca61c6b4dcbb0aeb5f4&SESSION_ID=691fc962d40d4e5259e83ec8","survey-html-form",30,1610361,"0.0-339.0-0.0","gPCjkGXJ30Gh+KfAcffOt+vH2h6HHvSLsCikf9kKfw+tMAvwmkoU33WuFKttT3005pTmNgV4UGCEzGoeUaMUMoc29zqXp0T9P8QgU9JmDFpLjTpd0EbGww6suZUbMVCEW03/YtLQ/ZrSeOrMfJVFrH3+55lHh4jF5Dcq2rHEv3YZ0NGWludwC/yWdPgje0zSouTNxJBXGIgFmDfH5oUaaFxqAzcNK84TIty1godqJSgKj53JxNv1RIBVJn660053SQrGJ8WffhOHLPYH6gy0rfb0JPo6hq+xV8IcwNm0x6X0P7UoSzR/M+A7Hl5wX1cxGDcGCX5ePi8T3gjvPLhZ8A==","691f8ca61c6b4dcbb0aeb5f4","691fc962d40d4e5259e83ec8","index1","<span style='color:red'>Fail,<span style='color:red'>Fail,<span style='color:green'>Lift,<span style='color:green'>Lift,<span style='color:red'>Fail,<span style='color:red'>Fail,<span style='color:red'>Fail,<span style='color:red'>Fail,<span style='color:green'>Lift,<span style='color:red'>Fail,<span style='color:red'>Fail,<span style='color:green'>Lift","<span style='color:red'>Fail,<span style='color:red'>Fail,<span style='color:green'>Lift,<span style='color:green'>Lift,<span style='color:green'>Lift,<span style='color:green'>Lift,<span style='color:red'>Fail,<span style='color:green'>Lift,<span style='color:green'>Lift,<span style='color:green'>Lift,<span style='color:red'>Fail,<span style='color:green'>Lift","<span style='color:red'>Fail,<span style='color:green'>Lift,<span style='color:green'>Lift,<span style='color:red'>Fail,<span style='color:green'>Lift,<span style='color:green'>Lift","0,0,1,1,0,0,0,0,1,0,0,1","0,0,1,1,1,1,0,1,1,1,0,1","0,1,1,0,1,1",10,20,20,"","","","","{""box1"":""7"",""box2"":""7"",""box3"":""80"",""box4"":""80""}","",5,"round3_lift",5,4,3,7,7,80,80,1,1,20,NA,NA,NA,NA,NA,NA,NA,NA,NA,NA,NA,NA,NA,NA,NA,NA,NA,NA,NA,NA,7,7,80,80,1,1,20,NA,NA,"",NA,NA,NA,NA,NA,NA,NA,NA,NA,2025-11-21 02:40:42
"null","https://psyc-201.github.io/xiang2023/exp/index1.html?PROLIFIC_PID=REDACTED&STUDY_ID=691f8ca61c6b4dcbb0aeb5f4&SESSION_ID=691fc962d40d4e5259e83ec8","html-keyboard-response",31,1613367,"0.0-343.0","gPCjkGXJ30Gh+KfAcffOt+vH2h6HHvSLsCikf9kKfw+tMAvwmkoU33WuFKttT3005pTmNgV4UGCEzGoeUaMUMoc29zqXp0T9P8QgU9JmDFpLjTpd0EbGww6suZUbMVCEW03/YtLQ/ZrSeOrMfJVFrH3+55lHh4jF5Dcq2rHEv3YZ0NGWludwC/yWdPgje0zSouTNxJBXGIgFmDfH5oUaaFxqAzcNK84TIty1godqJSgKj53JxNv1RIBVJn660053SQrGJ8WffhOHLPYH6gy0rfb0JPo6hq+xV8IcwNm0x6X0P7UoSzR/M+A7Hl5wX1cxGDcGCX5ePi8T3gjvPLhZ8A==","691f8ca61c6b4dcbb0aeb5f4","691fc962d40d4e5259e83ec8","index1","<span style='color:red'>Fail,<span style='color:red'>Fail,<span style='color:green'>Lift,<span style='color:green'>Lift,<span style='color:red'>Fail,<span style='color:red'>Fail,<span style='color:red'>Fail,<span style='color:red'>Fail,<span style='color:green'>Lift,<span style='color:red'>Fail,<span style='color:red'>Fail,<span style='color:green'>Lift","<span style='color:red'>Fail,<span style='color:red'>Fail,<span style='color:green'>Lift,<span style='color:green'>Lift,<span style='color:green'>Lift,<span style='color:green'>Lift,<span style='color:red'>Fail,<span style='color:green'>Lift,<span style='color:green'>Lift,<span style='color:green'>Lift,<span style='color:red'>Fail,<span style='color:green'>Lift","<span style='color:red'>Fail,<span style='color:green'>Lift,<span style='color:green'>Lift,<span style='color:red'>Fail,<span style='color:green'>Lift,<span style='color:green'>Lift","0,0,1,1,0,0,0,0,1,0,0,1","0,0,1,1,1,1,0,1,1,1,0,1","0,1,1,0,1,1",10,20,20,"","","<p style='font-size:30px'><b> New Contest! </b></p>","null","","",5,"",NA,NA,NA,NA,NA,NA,NA,NA,NA,NA,NA,NA,NA,NA,NA,NA,NA,NA,NA,NA,NA,NA,NA,NA,NA,NA,NA,NA,NA,NA,NA,NA,NA,NA,NA,NA,NA,NA,NA,"",NA,NA,NA,NA,NA,NA,NA,NA,NA,2025-11-21 02:40:42
"4787.5999999940395","https://psyc-201.github.io/xiang2023/exp/index1.html?PROLIFIC_PID=REDACTED&STUDY_ID=691f8ca61c6b4dcbb0aeb5f4&SESSION_ID=691fc962d40d4e5259e83ec8","survey-html-form",32,1618157,"0.0-344.0","gPCjkGXJ30Gh+KfAcffOt+vH2h6HHvSLsCikf9kKfw+tMAvwmkoU33WuFKttT3005pTmNgV4UGCEzGoeUaMUMoc29zqXp0T9P8QgU9JmDFpLjTpd0EbGww6suZUbMVCEW03/YtLQ/ZrSeOrMfJVFrH3+55lHh4jF5Dcq2rHEv3YZ0NGWludwC/yWdPgje0zSouTNxJBXGIgFmDfH5oUaaFxqAzcNK84TIty1godqJSgKj53JxNv1RIBVJn660053SQrGJ8WffhOHLPYH6gy0rfb0JPo6hq+xV8IcwNm0x6X0P7UoSzR/M+A7Hl5wX1cxGDcGCX5ePi8T3gjvPLhZ8A==","691f8ca61c6b4dcbb0aeb5f4","691fc962d40d4e5259e83ec8","index1","<span style='color:red'>Fail,<span style='color:red'>Fail,<span style='color:green'>Lift,<span style='color:green'>Lift,<span style='color:red'>Fail,<span style='color:red'>Fail,<span style='color:red'>Fail,<span style='color:red'>Fail,<span style='color:green'>Lift,<span style='color:red'>Fail,<span style='color:red'>Fail,<span style='color:green'>Lift","<span style='color:red'>Fail,<span style='color:red'>Fail,<span style='color:green'>Lift,<span style='color:green'>Lift,<span style='color:green'>Lift,<span style='color:green'>Lift,<span style='color:red'>Fail,<span style='color:green'>Lift,<span style='color:green'>Lift,<span style='color:green'>Lift,<span style='color:red'>Fail,<span style='color:green'>Lift","<span style='color:red'>Fail,<span style='color:green'>Lift,<span style='color:green'>Lift,<span style='color:red'>Fail,<span style='color:green'>Lift,<span style='color:green'>Lift","0,0,1,1,0,0,0,0,1,0,0,1","0,0,1,1,1,1,0,1,1,1,0,1","0,1,1,0,1,1",10,20,20,"","","","","{""box1"":""4"",""box2"":""4""}","",5,"round1_outcome",1,5,1,4,4,NA,NA,0,0,10,4,4,NA,NA,0,0,10,NA,NA,NA,NA,NA,NA,NA,NA,NA,NA,NA,NA,NA,NA,NA,NA,NA,NA,NA,NA,NA,NA,"",NA,NA,NA,NA,NA,NA,NA,NA,NA,2025-11-21 02:40:42
"10133.699999988079","https://psyc-201.github.io/xiang2023/exp/index1.html?PROLIFIC_PID=REDACTED&STUDY_ID=691f8ca61c6b4dcbb0aeb5f4&SESSION_ID=691fc962d40d4e5259e83ec8","survey-html-form",33,1628294,"0.0-345.0","gPCjkGXJ30Gh+KfAcffOt+vH2h6HHvSLsCikf9kKfw+tMAvwmkoU33WuFKttT3005pTmNgV4UGCEzGoeUaMUMoc29zqXp0T9P8QgU9JmDFpLjTpd0EbGww6suZUbMVCEW03/YtLQ/ZrSeOrMfJVFrH3+55lHh4jF5Dcq2rHEv3YZ0NGWludwC/yWdPgje0zSouTNxJBXGIgFmDfH5oUaaFxqAzcNK84TIty1godqJSgKj53JxNv1RIBVJn660053SQrGJ8WffhOHLPYH6gy0rfb0JPo6hq+xV8IcwNm0x6X0P7UoSzR/M+A7Hl5wX1cxGDcGCX5ePi8T3gjvPLhZ8A==","691f8ca61c6b4dcbb0aeb5f4","691fc962d40d4e5259e83ec8","index1","<span style='color:red'>Fail,<span style='color:red'>Fail,<span style='color:green'>Lift,<span style='color:green'>Lift,<span style='color:red'>Fail,<span style='color:red'>Fail,<span style='color:red'>Fail,<span style='color:red'>Fail,<span style='color:green'>Lift,<span style='color:red'>Fail,<span style='color:red'>Fail,<span style='color:green'>Lift","<span style='color:red'>Fail,<span style='color:red'>Fail,<span style='color:green'>Lift,<span style='color:green'>Lift,<span style='color:green'>Lift,<span style='color:green'>Lift,<span style='color:red'>Fail,<span style='color:green'>Lift,<span style='color:green'>Lift,<span style='color:green'>Lift,<span style='color:red'>Fail,<span style='color:green'>Lift","<span style='color:red'>Fail,<span style='color:green'>Lift,<span style='color:green'>Lift,<span style='color:red'>Fail,<span style='color:green'>Lift,<span style='color:green'>Lift","0,0,1,1,0,0,0,0,1,0,0,1","0,0,1,1,1,1,0,1,1,1,0,1","0,1,1,0,1,1",10,20,20,"","","","","{""box1"":""40"",""box2"":""40""}","",5,"round2_ready",2,5,2,NA,NA,NA,NA,NA,NA,NA,NA,NA,NA,NA,NA,NA,NA,40,40,40,40,NA,NA,NA,NA,NA,NA,NA,NA,NA,NA,NA,NA,NA,NA,NA,NA,NA,NA,"",NA,NA,NA,NA,NA,NA,NA,NA,NA,2025-11-21 02:40:42
"13614","https://psyc-201.github.io/xiang2023/exp/index1.html?PROLIFIC_PID=REDACTED&STUDY_ID=691f8ca61c6b4dcbb0aeb5f4&SESSION_ID=691fc962d40d4e5259e83ec8","survey-html-form",34,1641911,"0.0-346.0","gPCjkGXJ30Gh+KfAcffOt+vH2h6HHvSLsCikf9kKfw+tMAvwmkoU33WuFKttT3005pTmNgV4UGCEzGoeUaMUMoc29zqXp0T9P8QgU9JmDFpLjTpd0EbGww6suZUbMVCEW03/YtLQ/ZrSeOrMfJVFrH3+55lHh4jF5Dcq2rHEv3YZ0NGWludwC/yWdPgje0zSouTNxJBXGIgFmDfH5oUaaFxqAzcNK84TIty1godqJSgKj53JxNv1RIBVJn660053SQrGJ8WffhOHLPYH6gy0rfb0JPo6hq+xV8IcwNm0x6X0P7UoSzR/M+A7Hl5wX1cxGDcGCX5ePi8T3gjvPLhZ8A==","691f8ca61c6b4dcbb0aeb5f4","691fc962d40d4e5259e83ec8","index1","<span style='color:red'>Fail,<span style='color:red'>Fail,<span style='color:green'>Lift,<span style='color:green'>Lift,<span style='color:red'>Fail,<span style='color:red'>Fail,<span style='color:red'>Fail,<span style='color:red'>Fail,<span style='color:green'>Lift,<span style='color:red'>Fail,<span style='color:red'>Fail,<span style='color:green'>Lift","<span style='color:red'>Fail,<span style='color:red'>Fail,<span style='color:green'>Lift,<span style='color:green'>Lift,<span style='color:green'>Lift,<span style='color:green'>Lift,<span style='color:red'>Fail,<span style='color:green'>Lift,<span style='color:green'>Lift,<span style='color:green'>Lift,<span style='color:red'>Fail,<span style='color:green'>Lift","<span style='color:red'>Fail,<span style='color:green'>Lift,<span style='color:green'>Lift,<span style='color:red'>Fail,<span style='color:green'>Lift,<span style='color:green'>Lift","0,0,1,1,0,0,0,0,1,0,0,1","0,0,1,1,1,1,0,1,1,1,0,1","0,1,1,0,1,1",10,20,20,"","","","","{""box1"":""3"",""box2"":""5"",""box4"":""75""}","",5,"round2_outcome",3,5,2,3,5,NA,75,0,1,20,NA,NA,NA,NA,NA,NA,NA,NA,NA,NA,NA,3,5,NA,75,0,1,20,NA,NA,NA,NA,NA,NA,NA,NA,NA,NA,NA,"",NA,NA,NA,NA,NA,NA,NA,NA,NA,2025-11-21 02:40:42
"5718.800000011921","https://psyc-201.github.io/xiang2023/exp/index1.html?PROLIFIC_PID=REDACTED&STUDY_ID=691f8ca61c6b4dcbb0aeb5f4&SESSION_ID=691fc962d40d4e5259e83ec8","survey-html-form",35,1647634,"0.0-347.0","gPCjkGXJ30Gh+KfAcffOt+vH2h6HHvSLsCikf9kKfw+tMAvwmkoU33WuFKttT3005pTmNgV4UGCEzGoeUaMUMoc29zqXp0T9P8QgU9JmDFpLjTpd0EbGww6suZUbMVCEW03/YtLQ/ZrSeOrMfJVFrH3+55lHh4jF5Dcq2rHEv3YZ0NGWludwC/yWdPgje0zSouTNxJBXGIgFmDfH5oUaaFxqAzcNK84TIty1godqJSgKj53JxNv1RIBVJn660053SQrGJ8WffhOHLPYH6gy0rfb0JPo6hq+xV8IcwNm0x6X0P7UoSzR/M+A7Hl5wX1cxGDcGCX5ePi8T3gjvPLhZ8A==","691f8ca61c6b4dcbb0aeb5f4","691fc962d40d4e5259e83ec8","index1","<span style='color:red'>Fail,<span style='color:red'>Fail,<span style='color:green'>Lift,<span style='color:green'>Lift,<span style='color:red'>Fail,<span style='color:red'>Fail,<span style='color:red'>Fail,<span style='color:red'>Fail,<span style='color:green'>Lift,<span style='color:red'>Fail,<span style='color:red'>Fail,<span style='color:green'>Lift","<span style='color:red'>Fail,<span style='color:red'>Fail,<span style='color:green'>Lift,<span style='color:green'>Lift,<span style='color:green'>Lift,<span style='color:green'>Lift,<span style='color:red'>Fail,<span style='color:green'>Lift,<span style='color:green'>Lift,<span style='color:green'>Lift,<span style='color:red'>Fail,<span style='color:green'>Lift","<span style='color:red'>Fail,<span style='color:green'>Lift,<span style='color:green'>Lift,<span style='color:red'>Fail,<span style='color:green'>Lift,<span style='color:green'>Lift","0,0,1,1,0,0,0,0,1,0,0,1","0,0,1,1,1,1,0,1,1,1,0,1","0,1,1,0,1,1",10,20,20,"","","","","{""box1"":""65""}","",5,"round3_ready",4,5,3,NA,NA,NA,NA,NA,NA,NA,NA,NA,NA,NA,NA,NA,NA,65,65,NA,NA,NA,NA,NA,NA,NA,NA,NA,65,65,NA,NA,NA,NA,NA,NA,NA,NA,NA,"",NA,NA,NA,NA,NA,NA,NA,NA,NA,2025-11-21 02:40:42
"15516.799999982119","https://psyc-201.github.io/xiang2023/exp/index1.html?PROLIFIC_PID=REDACTED&STUDY_ID=691f8ca61c6b4dcbb0aeb5f4&SESSION_ID=691fc962d40d4e5259e83ec8","survey-html-form",36,1663155,"0.0-349.0-0.0","gPCjkGXJ30Gh+KfAcffOt+vH2h6HHvSLsCikf9kKfw+tMAvwmkoU33WuFKttT3005pTmNgV4UGCEzGoeUaMUMoc29zqXp0T9P8QgU9JmDFpLjTpd0EbGww6suZUbMVCEW03/YtLQ/ZrSeOrMfJVFrH3+55lHh4jF5Dcq2rHEv3YZ0NGWludwC/yWdPgje0zSouTNxJBXGIgFmDfH5oUaaFxqAzcNK84TIty1godqJSgKj53JxNv1RIBVJn660053SQrGJ8WffhOHLPYH6gy0rfb0JPo6hq+xV8IcwNm0x6X0P7UoSzR/M+A7Hl5wX1cxGDcGCX5ePi8T3gjvPLhZ8A==","691f8ca61c6b4dcbb0aeb5f4","691fc962d40d4e5259e83ec8","index1","<span style='color:red'>Fail,<span style='color:red'>Fail,<span style='color:green'>Lift,<span style='color:green'>Lift,<span style='color:red'>Fail,<span style='color:red'>Fail,<span style='color:red'>Fail,<span style='color:red'>Fail,<span style='color:green'>Lift,<span style='color:red'>Fail,<span style='color:red'>Fail,<span style='color:green'>Lift","<span style='color:red'>Fail,<span style='color:red'>Fail,<span style='color:green'>Lift,<span style='color:green'>Lift,<span style='color:green'>Lift,<span style='color:green'>Lift,<span style='color:red'>Fail,<span style='color:green'>Lift,<span style='color:green'>Lift,<span style='color:green'>Lift,<span style='color:red'>Fail,<span style='color:green'>Lift","<span style='color:red'>Fail,<span style='color:green'>Lift,<span style='color:green'>Lift,<span style='color:red'>Fail,<span style='color:green'>Lift,<span style='color:green'>Lift","0,0,1,1,0,0,0,0,1,0,0,1","0,0,1,1,1,1,0,1,1,1,0,1","0,1,1,0,1,1",10,20,20,"","","","","{""box1"":""2"",""box2"":""6"",""box3"":""999"",""box4"":""999""}","",6,"round3_fail",5,5,3,2,6,NA,NA,0,0,20,NA,NA,NA,NA,NA,NA,NA,NA,NA,NA,NA,NA,NA,NA,NA,NA,NA,NA,NA,NA,2,6,NA,NA,0,0,20,1,1,"",NA,NA,NA,NA,NA,NA,NA,NA,NA,2025-11-21 02:40:42
"null","https://psyc-201.github.io/xiang2023/exp/index1.html?PROLIFIC_PID=REDACTED&STUDY_ID=691f8ca61c6b4dcbb0aeb5f4&SESSION_ID=691fc962d40d4e5259e83ec8","html-keyboard-response",37,1666160,"0.0-352.0","gPCjkGXJ30Gh+KfAcffOt+vH2h6HHvSLsCikf9kKfw+tMAvwmkoU33WuFKttT3005pTmNgV4UGCEzGoeUaMUMoc29zqXp0T9P8QgU9JmDFpLjTpd0EbGww6suZUbMVCEW03/YtLQ/ZrSeOrMfJVFrH3+55lHh4jF5Dcq2rHEv3YZ0NGWludwC/yWdPgje0zSouTNxJBXGIgFmDfH5oUaaFxqAzcNK84TIty1godqJSgKj53JxNv1RIBVJn660053SQrGJ8WffhOHLPYH6gy0rfb0JPo6hq+xV8IcwNm0x6X0P7UoSzR/M+A7Hl5wX1cxGDcGCX5ePi8T3gjvPLhZ8A==","691f8ca61c6b4dcbb0aeb5f4","691fc962d40d4e5259e83ec8","index1","<span style='color:red'>Fail,<span style='color:red'>Fail,<span style='color:green'>Lift,<span style='color:green'>Lift,<span style='color:red'>Fail,<span style='color:red'>Fail,<span style='color:red'>Fail,<span style='color:red'>Fail,<span style='color:green'>Lift,<span style='color:red'>Fail,<span style='color:red'>Fail,<span style='color:green'>Lift","<span style='color:red'>Fail,<span style='color:red'>Fail,<span style='color:green'>Lift,<span style='color:green'>Lift,<span style='color:green'>Lift,<span style='color:green'>Lift,<span style='color:red'>Fail,<span style='color:green'>Lift,<span style='color:green'>Lift,<span style='color:green'>Lift,<span style='color:red'>Fail,<span style='color:green'>Lift","<span style='color:red'>Fail,<span style='color:green'>Lift,<span style='color:green'>Lift,<span style='color:red'>Fail,<span style='color:green'>Lift,<span style='color:green'>Lift","0,0,1,1,0,0,0,0,1,0,0,1","0,0,1,1,1,1,0,1,1,1,0,1","0,1,1,0,1,1",10,20,20,"","","<p style='font-size:30px'><b> New Contest! </b></p>","null","","",6,"",NA,NA,NA,NA,NA,NA,NA,NA,NA,NA,NA,NA,NA,NA,NA,NA,NA,NA,NA,NA,NA,NA,NA,NA,NA,NA,NA,NA,NA,NA,NA,NA,NA,NA,NA,NA,NA,NA,NA,"",NA,NA,NA,NA,NA,NA,NA,NA,NA,2025-11-21 02:40:42
"5898.5","https://psyc-201.github.io/xiang2023/exp/index1.html?PROLIFIC_PID=REDACTED&STUDY_ID=691f8ca61c6b4dcbb0aeb5f4&SESSION_ID=691fc962d40d4e5259e83ec8","survey-html-form",38,1672061,"0.0-353.0","gPCjkGXJ30Gh+KfAcffOt+vH2h6HHvSLsCikf9kKfw+tMAvwmkoU33WuFKttT3005pTmNgV4UGCEzGoeUaMUMoc29zqXp0T9P8QgU9JmDFpLjTpd0EbGww6suZUbMVCEW03/YtLQ/ZrSeOrMfJVFrH3+55lHh4jF5Dcq2rHEv3YZ0NGWludwC/yWdPgje0zSouTNxJBXGIgFmDfH5oUaaFxqAzcNK84TIty1godqJSgKj53JxNv1RIBVJn660053SQrGJ8WffhOHLPYH6gy0rfb0JPo6hq+xV8IcwNm0x6X0P7UoSzR/M+A7Hl5wX1cxGDcGCX5ePi8T3gjvPLhZ8A==","691f8ca61c6b4dcbb0aeb5f4","691fc962d40d4e5259e83ec8","index1","<span style='color:red'>Fail,<span style='color:red'>Fail,<span style='color:green'>Lift,<span style='color:green'>Lift,<span style='color:red'>Fail,<span style='color:red'>Fail,<span style='color:red'>Fail,<span style='color:red'>Fail,<span style='color:green'>Lift,<span style='color:red'>Fail,<span style='color:red'>Fail,<span style='color:green'>Lift","<span style='color:red'>Fail,<span style='color:red'>Fail,<span style='color:green'>Lift,<span style='color:green'>Lift,<span style='color:green'>Lift,<span style='color:green'>Lift,<span style='color:red'>Fail,<span style='color:green'>Lift,<span style='color:green'>Lift,<span style='color:green'>Lift,<span style='color:red'>Fail,<span style='color:green'>Lift","<span style='color:red'>Fail,<span style='color:green'>Lift,<span style='color:green'>Lift,<span style='color:red'>Fail,<span style='color:green'>Lift,<span style='color:green'>Lift","0,0,1,1,0,0,0,0,1,0,0,1","0,0,1,1,1,1,0,1,1,1,0,1","0,1,1,0,1,1",10,20,20,"","","","","{""box1"":""4"",""box2"":""4""}","",6,"round1_outcome",1,6,1,4,4,NA,NA,0,0,10,4,4,NA,NA,0,0,10,NA,NA,NA,NA,NA,NA,NA,NA,NA,NA,NA,NA,NA,NA,NA,NA,NA,NA,NA,NA,NA,NA,"",NA,NA,NA,NA,NA,NA,NA,NA,NA,2025-11-21 02:40:42
"9612.90000000596","https://psyc-201.github.io/xiang2023/exp/index1.html?PROLIFIC_PID=REDACTED&STUDY_ID=691f8ca61c6b4dcbb0aeb5f4&SESSION_ID=691fc962d40d4e5259e83ec8","survey-html-form",39,1681677,"0.0-354.0","gPCjkGXJ30Gh+KfAcffOt+vH2h6HHvSLsCikf9kKfw+tMAvwmkoU33WuFKttT3005pTmNgV4UGCEzGoeUaMUMoc29zqXp0T9P8QgU9JmDFpLjTpd0EbGww6suZUbMVCEW03/YtLQ/ZrSeOrMfJVFrH3+55lHh4jF5Dcq2rHEv3YZ0NGWludwC/yWdPgje0zSouTNxJBXGIgFmDfH5oUaaFxqAzcNK84TIty1godqJSgKj53JxNv1RIBVJn660053SQrGJ8WffhOHLPYH6gy0rfb0JPo6hq+xV8IcwNm0x6X0P7UoSzR/M+A7Hl5wX1cxGDcGCX5ePi8T3gjvPLhZ8A==","691f8ca61c6b4dcbb0aeb5f4","691fc962d40d4e5259e83ec8","index1","<span style='color:red'>Fail,<span style='color:red'>Fail,<span style='color:green'>Lift,<span style='color:green'>Lift,<span style='color:red'>Fail,<span style='color:red'>Fail,<span style='color:red'>Fail,<span style='color:red'>Fail,<span style='color:green'>Lift,<span style='color:red'>Fail,<span style='color:red'>Fail,<span style='color:green'>Lift","<span style='color:red'>Fail,<span style='color:red'>Fail,<span style='color:green'>Lift,<span style='color:green'>Lift,<span style='color:green'>Lift,<span style='color:green'>Lift,<span style='color:red'>Fail,<span style='color:green'>Lift,<span style='color:green'>Lift,<span style='color:green'>Lift,<span style='color:red'>Fail,<span style='color:green'>Lift","<span style='color:red'>Fail,<span style='color:green'>Lift,<span style='color:green'>Lift,<span style='color:red'>Fail,<span style='color:green'>Lift,<span style='color:green'>Lift","0,0,1,1,0,0,0,0,1,0,0,1","0,0,1,1,1,1,0,1,1,1,0,1","0,1,1,0,1,1",10,20,20,"","","","","{""box1"":""50"",""box2"":""50""}","",6,"round2_ready",2,6,2,NA,NA,NA,NA,NA,NA,NA,NA,NA,NA,NA,NA,NA,NA,50,50,50,50,NA,NA,NA,NA,NA,NA,NA,NA,NA,NA,NA,NA,NA,NA,NA,NA,NA,NA,"",NA,NA,NA,NA,NA,NA,NA,NA,NA,2025-11-21 02:40:42
"14469.40000000596","https://psyc-201.github.io/xiang2023/exp/index1.html?PROLIFIC_PID=REDACTED&STUDY_ID=691f8ca61c6b4dcbb0aeb5f4&SESSION_ID=691fc962d40d4e5259e83ec8","survey-html-form",40,1696151,"0.0-355.0","gPCjkGXJ30Gh+KfAcffOt+vH2h6HHvSLsCikf9kKfw+tMAvwmkoU33WuFKttT3005pTmNgV4UGCEzGoeUaMUMoc29zqXp0T9P8QgU9JmDFpLjTpd0EbGww6suZUbMVCEW03/YtLQ/ZrSeOrMfJVFrH3+55lHh4jF5Dcq2rHEv3YZ0NGWludwC/yWdPgje0zSouTNxJBXGIgFmDfH5oUaaFxqAzcNK84TIty1godqJSgKj53JxNv1RIBVJn660053SQrGJ8WffhOHLPYH6gy0rfb0JPo6hq+xV8IcwNm0x6X0P7UoSzR/M+A7Hl5wX1cxGDcGCX5ePi8T3gjvPLhZ8A==","691f8ca61c6b4dcbb0aeb5f4","691fc962d40d4e5259e83ec8","index1","<span style='color:red'>Fail,<span style='color:red'>Fail,<span style='color:green'>Lift,<span style='color:green'>Lift,<span style='color:red'>Fail,<span style='color:red'>Fail,<span style='color:red'>Fail,<span style='color:red'>Fail,<span style='color:green'>Lift,<span style='color:red'>Fail,<span style='color:red'>Fail,<span style='color:green'>Lift","<span style='color:red'>Fail,<span style='color:red'>Fail,<span style='color:green'>Lift,<span style='color:green'>Lift,<span style='color:green'>Lift,<span style='color:green'>Lift,<span style='color:red'>Fail,<span style='color:green'>Lift,<span style='color:green'>Lift,<span style='color:green'>Lift,<span style='color:red'>Fail,<span style='color:green'>Lift","<span style='color:red'>Fail,<span style='color:green'>Lift,<span style='color:green'>Lift,<span style='color:red'>Fail,<span style='color:green'>Lift,<span style='color:green'>Lift","0,0,1,1,0,0,0,0,1,0,0,1","0,0,1,1,1,1,0,1,1,1,0,1","0,1,1,0,1,1",10,20,20,"","","","","{""box1"":""5"",""box2"":""5"",""box3"":""70"",""box4"":""70""}","",6,"round2_outcome",3,6,2,5,5,70,70,1,1,20,NA,NA,NA,NA,NA,NA,NA,NA,NA,NA,NA,5,5,70,70,1,1,20,NA,NA,NA,NA,NA,NA,NA,NA,NA,NA,NA,"",NA,NA,NA,NA,NA,NA,NA,NA,NA,2025-11-21 02:40:42
"7036.199999988079","https://psyc-201.github.io/xiang2023/exp/index1.html?PROLIFIC_PID=REDACTED&STUDY_ID=691f8ca61c6b4dcbb0aeb5f4&SESSION_ID=691fc962d40d4e5259e83ec8","survey-html-form",41,1703191,"0.0-356.0","gPCjkGXJ30Gh+KfAcffOt+vH2h6HHvSLsCikf9kKfw+tMAvwmkoU33WuFKttT3005pTmNgV4UGCEzGoeUaMUMoc29zqXp0T9P8QgU9JmDFpLjTpd0EbGww6suZUbMVCEW03/YtLQ/ZrSeOrMfJVFrH3+55lHh4jF5Dcq2rHEv3YZ0NGWludwC/yWdPgje0zSouTNxJBXGIgFmDfH5oUaaFxqAzcNK84TIty1godqJSgKj53JxNv1RIBVJn660053SQrGJ8WffhOHLPYH6gy0rfb0JPo6hq+xV8IcwNm0x6X0P7UoSzR/M+A7Hl5wX1cxGDcGCX5ePi8T3gjvPLhZ8A==","691f8ca61c6b4dcbb0aeb5f4","691fc962d40d4e5259e83ec8","index1","<span style='color:red'>Fail,<span style='color:red'>Fail,<span style='color:green'>Lift,<span style='color:green'>Lift,<span style='color:red'>Fail,<span style='color:red'>Fail,<span style='color:red'>Fail,<span style='color:red'>Fail,<span style='color:green'>Lift,<span style='color:red'>Fail,<span style='color:red'>Fail,<span style='color:green'>Lift","<span style='color:red'>Fail,<span style='color:red'>Fail,<span style='color:green'>Lift,<span style='color:green'>Lift,<span style='color:green'>Lift,<span style='color:green'>Lift,<span style='color:red'>Fail,<span style='color:green'>Lift,<span style='color:green'>Lift,<span style='color:green'>Lift,<span style='color:red'>Fail,<span style='color:green'>Lift","<span style='color:red'>Fail,<span style='color:green'>Lift,<span style='color:green'>Lift,<span style='color:red'>Fail,<span style='color:green'>Lift,<span style='color:green'>Lift","0,0,1,1,0,0,0,0,1,0,0,1","0,0,1,1,1,1,0,1,1,1,0,1","0,1,1,0,1,1",10,20,20,"","","","","{""box1"":""50""}","",6,"round3_ready",4,6,3,NA,NA,NA,NA,NA,NA,NA,NA,NA,NA,NA,NA,NA,NA,50,50,NA,NA,NA,NA,NA,NA,NA,NA,NA,50,50,NA,NA,NA,NA,NA,NA,NA,NA,NA,"",NA,NA,NA,NA,NA,NA,NA,NA,NA,2025-11-21 02:40:42
"10563.299999982119","https://psyc-201.github.io/xiang2023/exp/index1.html?PROLIFIC_PID=REDACTED&STUDY_ID=691f8ca61c6b4dcbb0aeb5f4&SESSION_ID=691fc962d40d4e5259e83ec8","survey-html-form",42,1713758,"0.0-357.0-0.0","gPCjkGXJ30Gh+KfAcffOt+vH2h6HHvSLsCikf9kKfw+tMAvwmkoU33WuFKttT3005pTmNgV4UGCEzGoeUaMUMoc29zqXp0T9P8QgU9JmDFpLjTpd0EbGww6suZUbMVCEW03/YtLQ/ZrSeOrMfJVFrH3+55lHh4jF5Dcq2rHEv3YZ0NGWludwC/yWdPgje0zSouTNxJBXGIgFmDfH5oUaaFxqAzcNK84TIty1godqJSgKj53JxNv1RIBVJn660053SQrGJ8WffhOHLPYH6gy0rfb0JPo6hq+xV8IcwNm0x6X0P7UoSzR/M+A7Hl5wX1cxGDcGCX5ePi8T3gjvPLhZ8A==","691f8ca61c6b4dcbb0aeb5f4","691fc962d40d4e5259e83ec8","index1","<span style='color:red'>Fail,<span style='color:red'>Fail,<span style='color:green'>Lift,<span style='color:green'>Lift,<span style='color:red'>Fail,<span style='color:red'>Fail,<span style='color:red'>Fail,<span style='color:red'>Fail,<span style='color:green'>Lift,<span style='color:red'>Fail,<span style='color:red'>Fail,<span style='color:green'>Lift","<span style='color:red'>Fail,<span style='color:red'>Fail,<span style='color:green'>Lift,<span style='color:green'>Lift,<span style='color:green'>Lift,<span style='color:green'>Lift,<span style='color:red'>Fail,<span style='color:green'>Lift,<span style='color:green'>Lift,<span style='color:green'>Lift,<span style='color:red'>Fail,<span style='color:green'>Lift","<span style='color:red'>Fail,<span style='color:green'>Lift,<span style='color:green'>Lift,<span style='color:red'>Fail,<span style='color:green'>Lift,<span style='color:green'>Lift","0,0,1,1,0,0,0,0,1,0,0,1","0,0,1,1,1,1,0,1,1,1,0,1","0,1,1,0,1,1",10,20,20,"","","","","{""box1"":""6"",""box2"":""6"",""box3"":""85"",""box4"":""85""}","",6,"round3_lift",5,6,3,6,6,85,85,1,1,20,NA,NA,NA,NA,NA,NA,NA,NA,NA,NA,NA,NA,NA,NA,NA,NA,NA,NA,NA,NA,6,6,85,85,1,1,20,NA,NA,"",NA,NA,NA,NA,NA,NA,NA,NA,NA,2025-11-21 02:40:42
"235254.79999998212","https://psyc-201.github.io/xiang2023/exp/index1.html?PROLIFIC_PID=REDACTED&STUDY_ID=691f8ca61c6b4dcbb0aeb5f4&SESSION_ID=691fc962d40d4e5259e83ec8","survey-text",43,1949019,"0.0-361.0","gPCjkGXJ30Gh+KfAcffOt+vH2h6HHvSLsCikf9kKfw+tMAvwmkoU33WuFKttT3005pTmNgV4UGCEzGoeUaMUMoc29zqXp0T9P8QgU9JmDFpLjTpd0EbGww6suZUbMVCEW03/YtLQ/ZrSeOrMfJVFrH3+55lHh4jF5Dcq2rHEv3YZ0NGWludwC/yWdPgje0zSouTNxJBXGIgFmDfH5oUaaFxqAzcNK84TIty1godqJSgKj53JxNv1RIBVJn660053SQrGJ8WffhOHLPYH6gy0rfb0JPo6hq+xV8IcwNm0x6X0P7UoSzR/M+A7Hl5wX1cxGDcGCX5ePi8T3gjvPLhZ8A==","691f8ca61c6b4dcbb0aeb5f4","691fc962d40d4e5259e83ec8","index1","<span style='color:red'>Fail,<span style='color:red'>Fail,<span style='color:green'>Lift,<span style='color:green'>Lift,<span style='color:red'>Fail,<span style='color:red'>Fail,<span style='color:red'>Fail,<span style='color:red'>Fail,<span style='color:green'>Lift,<span style='color:red'>Fail,<span style='color:red'>Fail,<span style='color:green'>Lift","<span style='color:red'>Fail,<span style='color:red'>Fail,<span style='color:green'>Lift,<span style='color:green'>Lift,<span style='color:green'>Lift,<span style='color:green'>Lift,<span style='color:red'>Fail,<span style='color:green'>Lift,<span style='color:green'>Lift,<span style='color:green'>Lift,<span style='color:red'>Fail,<span style='color:green'>Lift","<span style='color:red'>Fail,<span style='color:green'>Lift,<span style='color:green'>Lift,<span style='color:red'>Fail,<span style='color:green'>Lift,<span style='color:green'>Lift","0,0,1,1,0,0,0,0,1,0,0,1","0,0,1,1,1,1,0,1,1,1,0,1","0,1,1,0,1,1",10,20,20,"","","","","{""Q0"":""I played a game where I watched a series of contents composed of rounds. Each round featured 2 people who were attempting to lift a box for cash. I was shown their previous attempts at the box lift and whether it was a fail/success for each person, and then had to estimate their strength on a scale and predict the likelihood of the success/failure of their next lift(s).""}","",NA,"",NA,NA,NA,NA,NA,NA,NA,NA,NA,NA,NA,NA,NA,NA,NA,NA,NA,NA,NA,NA,NA,NA,NA,NA,NA,NA,NA,NA,NA,NA,NA,NA,NA,NA,NA,NA,NA,NA,NA,"",NA,NA,NA,NA,NA,NA,NA,NA,NA,2025-11-21 02:40:42
"11209","https://psyc-201.github.io/xiang2023/exp/index1.html?PROLIFIC_PID=REDACTED&STUDY_ID=691f8ca61c6b4dcbb0aeb5f4&SESSION_ID=691fc962d40d4e5259e83ec8","survey-text",44,1960232,"0.0-362.0","gPCjkGXJ30Gh+KfAcffOt+vH2h6HHvSLsCikf9kKfw+tMAvwmkoU33WuFKttT3005pTmNgV4UGCEzGoeUaMUMoc29zqXp0T9P8QgU9JmDFpLjTpd0EbGww6suZUbMVCEW03/YtLQ/ZrSeOrMfJVFrH3+55lHh4jF5Dcq2rHEv3YZ0NGWludwC/yWdPgje0zSouTNxJBXGIgFmDfH5oUaaFxqAzcNK84TIty1godqJSgKj53JxNv1RIBVJn660053SQrGJ8WffhOHLPYH6gy0rfb0JPo6hq+xV8IcwNm0x6X0P7UoSzR/M+A7Hl5wX1cxGDcGCX5ePi8T3gjvPLhZ8A==","691f8ca61c6b4dcbb0aeb5f4","691fc962d40d4e5259e83ec8","index1","<span style='color:red'>Fail,<span style='color:red'>Fail,<span style='color:green'>Lift,<span style='color:green'>Lift,<span style='color:red'>Fail,<span style='color:red'>Fail,<span style='color:red'>Fail,<span style='color:red'>Fail,<span style='color:green'>Lift,<span style='color:red'>Fail,<span style='color:red'>Fail,<span style='color:green'>Lift","<span style='color:red'>Fail,<span style='color:red'>Fail,<span style='color:green'>Lift,<span style='color:green'>Lift,<span style='color:green'>Lift,<span style='color:green'>Lift,<span style='color:red'>Fail,<span style='color:green'>Lift,<span style='color:green'>Lift,<span style='color:green'>Lift,<span style='color:red'>Fail,<span style='color:green'>Lift","<span style='color:red'>Fail,<span style='color:green'>Lift,<span style='color:green'>Lift,<span style='color:red'>Fail,<span style='color:green'>Lift,<span style='color:green'>Lift","0,0,1,1,0,0,0,0,1,0,0,1","0,0,1,1,1,1,0,1,1,1,0,1","0,1,1,0,1,1",10,20,20,"","","","","{""Q0"":""""}","",NA,"",NA,NA,NA,NA,NA,NA,NA,NA,NA,NA,NA,NA,NA,NA,NA,NA,NA,NA,NA,NA,NA,NA,NA,NA,NA,NA,NA,NA,NA,NA,NA,NA,NA,NA,NA,NA,NA,NA,NA,"[{""event"":""fullscreenenter"",""trial"":1,""time"":850347}]",3,3,NA,40,0,0.6,NA,NA,NA,2025-11-21 02:40:42
"15040.09999999404","https://psyc-201.github.io/xiang2023/exp/index1.html?PROLIFIC_PID=REDACTED&STUDY_ID=691f8ca61c6b4dcbb0aeb5f4&SESSION_ID=691fc962d40d4e5259e83ec8","html-button-response",45,1975276,"0.0-363.0","gPCjkGXJ30Gh+KfAcffOt+vH2h6HHvSLsCikf9kKfw+tMAvwmkoU33WuFKttT3005pTmNgV4UGCEzGoeUaMUMoc29zqXp0T9P8QgU9JmDFpLjTpd0EbGww6suZUbMVCEW03/YtLQ/ZrSeOrMfJVFrH3+55lHh4jF5Dcq2rHEv3YZ0NGWludwC/yWdPgje0zSouTNxJBXGIgFmDfH5oUaaFxqAzcNK84TIty1godqJSgKj53JxNv1RIBVJn660053SQrGJ8WffhOHLPYH6gy0rfb0JPo6hq+xV8IcwNm0x6X0P7UoSzR/M+A7Hl5wX1cxGDcGCX5ePi8T3gjvPLhZ8A==","691f8ca61c6b4dcbb0aeb5f4","691fc962d40d4e5259e83ec8","index1","<span style='color:red'>Fail,<span style='color:red'>Fail,<span style='color:green'>Lift,<span style='color:green'>Lift,<span style='color:red'>Fail,<span style='color:red'>Fail,<span style='color:red'>Fail,<span style='color:red'>Fail,<span style='color:green'>Lift,<span style='color:red'>Fail,<span style='color:red'>Fail,<span style='color:green'>Lift","<span style='color:red'>Fail,<span style='color:red'>Fail,<span style='color:green'>Lift,<span style='color:green'>Lift,<span style='color:green'>Lift,<span style='color:green'>Lift,<span style='color:red'>Fail,<span style='color:green'>Lift,<span style='color:green'>Lift,<span style='color:green'>Lift,<span style='color:red'>Fail,<span style='color:green'>Lift","<span style='color:red'>Fail,<span style='color:green'>Lift,<span style='color:green'>Lift,<span style='color:red'>Fail,<span style='color:green'>Lift,<span style='color:green'>Lift","0,0,1,1,0,0,0,0,1,0,0,1","0,0,1,1,1,1,0,1,1,1,0,1","0,1,1,0,1,1",10,20,20,"","","<p> We randomly picked <b>Contest 3, Round 3</b> to calculate your bonus. </p><p> The outcome of Contestant E and F on that round is <span style='color:red'>Fail</span>. </p><p> The probability you entered was 40. </p><p><b> You won a bonus of $0.60!</b></p><p> IMPORTANT: Please click 'Next' to complete the game. </p>","","","",NA,"",NA,NA,NA,NA,NA,NA,NA,NA,NA,NA,NA,NA,NA,NA,NA,NA,NA,NA,NA,NA,NA,NA,NA,NA,NA,NA,NA,NA,NA,NA,NA,NA,NA,NA,NA,NA,NA,NA,NA,"",NA,NA,NA,NA,NA,NA,0,2,1,2025-11-21 02:40:42
