"rt","url","trial_type","trial_index","time_elapsed","internal_node_id","encryptedProlificId","studyId","sessionId","expIndex","round1_outcomes","round2_outcomes","round3_outcomes","round1_o","round2_o","round3_o","round1_reward","round2_reward","round3_reward","success","view_history","stimulus","key_press","responses","question_order","button_pressed","j","Stage","stage","contest","round","strength_a","strength_b","effort_a","effort_b","outcome_a","outcome_b","reward","r1_strength_a","r1_strength_b","r1_effort_a","r1_effort_b","r1_outcome_a","r1_outcome_b","r1_reward","probability_a","probability_b","r2_prob_a","r2_prob_b","r2_strength_a","r2_strength_b","r2_effort_a","r2_effort_b","r2_outcome_a","r2_outcome_b","r2_reward","r3_prob_a","r3_prob_b","attention_check","count","r3_strength_a","r3_strength_b","r3_outcome_a","r3_outcome_b","r3_reward","r3_effort_a","r3_effort_b","screen","pick_contest","pick_round","pick_side","trial_probability","trial_outcome","bonus","attention_sum","attention","datapipe_meta.attributes.date_modified"
"6395.5999999940395","https://psyc-201.github.io/xiang2023/exp/index1.html?PROLIFIC_PID=REDACTED&STUDY_ID=691f8ca61c6b4dcbb0aeb5f4&SESSION_ID=691fafadd44fe6899af287c0","external-html",0,6564,"0.0-0.0","d2bi+/wQvkbvEZ7/YQO6AHC3JHT6Z3ZI7/2uW4MoFsYtnSUSOxR/VfOyh54RDLEoGnQZhqGSdN7N+/Gpgj5UORbdNII+2MhZOoyFO7Wg2410zavJkhvFXEqkOOsq8v6HlY79ipa++OWPTqMZDfVfS4NyQabHL3xgbkdUXJsJvCXdsFt7/wIFLQHYSiIuQWvEdaa4yHPIolr/nvQeASdni0ajZDFyO1/QYiDFm/mYC1n90ilhCLRzIV/j54ZZJTAXHGkbxf6mbNVsddUAUIJZgr1nnoqBa6cSAZy5cjVGIXJhFyhIckBXTWngMMpqMj1f39l5mwwIcLo4cAvG30lohA==","691f8ca61c6b4dcbb0aeb5f4","691fafadd44fe6899af287c0","index1","<span style='color:red'>Fail,<span style='color:red'>Fail,<span style='color:green'>Lift,<span style='color:green'>Lift,<span style='color:red'>Fail,<span style='color:red'>Fail,<span style='color:red'>Fail,<span style='color:red'>Fail,<span style='color:red'>Fail,<span style='color:green'>Lift,<span style='color:red'>Fail,<span style='color:green'>Lift","<span style='color:red'>Fail,<span style='color:red'>Fail,<span style='color:green'>Lift,<span style='color:green'>Lift,<span style='color:green'>Lift,<span style='color:green'>Lift,<span style='color:green'>Lift,<span style='color:red'>Fail,<span style='color:green'>Lift,<span style='color:green'>Lift,<span style='color:red'>Fail,<span style='color:green'>Lift","<span style='color:red'>Fail,<span style='color:green'>Lift,<span style='color:green'>Lift,<span style='color:red'>Fail,<span style='color:green'>Lift,<span style='color:green'>Lift","0,0,1,1,0,0,0,0,0,1,0,1","0,0,1,1,1,1,1,0,1,1,0,1","0,1,1,0,1,1",10,20,20,"","","","","","",NA,NA,"",NA,NA,NA,NA,NA,NA,NA,NA,NA,NA,NA,NA,NA,NA,NA,NA,NA,NA,NA,NA,NA,NA,NA,NA,NA,NA,NA,NA,NA,NA,NA,NA,NA,NA,NA,NA,NA,NA,NA,"",NA,NA,NA,NA,NA,NA,NA,NA,2025-11-21 00:34:05
"","https://psyc-201.github.io/xiang2023/exp/index1.html?PROLIFIC_PID=REDACTED&STUDY_ID=691f8ca61c6b4dcbb0aeb5f4&SESSION_ID=691fafadd44fe6899af287c0","fullscreen",1,14281,"0.0-1.0","d2bi+/wQvkbvEZ7/YQO6AHC3JHT6Z3ZI7/2uW4MoFsYtnSUSOxR/VfOyh54RDLEoGnQZhqGSdN7N+/Gpgj5UORbdNII+2MhZOoyFO7Wg2410zavJkhvFXEqkOOsq8v6HlY79ipa++OWPTqMZDfVfS4NyQabHL3xgbkdUXJsJvCXdsFt7/wIFLQHYSiIuQWvEdaa4yHPIolr/nvQeASdni0ajZDFyO1/QYiDFm/mYC1n90ilhCLRzIV/j54ZZJTAXHGkbxf6mbNVsddUAUIJZgr1nnoqBa6cSAZy5cjVGIXJhFyhIckBXTWngMMpqMj1f39l5mwwIcLo4cAvG30lohA==","691f8ca61c6b4dcbb0aeb5f4","691fafadd44fe6899af287c0","index1","<span style='color:red'>Fail,<span style='color:red'>Fail,<span style='color:green'>Lift,<span style='color:green'>Lift,<span style='color:red'>Fail,<span style='color:red'>Fail,<span style='color:red'>Fail,<span style='color:red'>Fail,<span style='color:red'>Fail,<span style='color:green'>Lift,<span style='color:red'>Fail,<span style='color:green'>Lift","<span style='color:red'>Fail,<span style='color:red'>Fail,<span style='color:green'>Lift,<span style='color:green'>Lift,<span style='color:green'>Lift,<span style='color:green'>Lift,<span style='color:green'>Lift,<span style='color:red'>Fail,<span style='color:green'>Lift,<span style='color:green'>Lift,<span style='color:red'>Fail,<span style='color:green'>Lift","<span style='color:red'>Fail,<span style='color:green'>Lift,<span style='color:green'>Lift,<span style='color:red'>Fail,<span style='color:green'>Lift,<span style='color:green'>Lift","0,0,1,1,0,0,0,0,0,1,0,1","0,0,1,1,1,1,1,0,1,1,0,1","0,1,1,0,1,1",10,20,20,"true","","","","","",NA,NA,"",NA,NA,NA,NA,NA,NA,NA,NA,NA,NA,NA,NA,NA,NA,NA,NA,NA,NA,NA,NA,NA,NA,NA,NA,NA,NA,NA,NA,NA,NA,NA,NA,NA,NA,NA,NA,NA,NA,NA,"",NA,NA,NA,NA,NA,NA,NA,NA,2025-11-21 00:34:05
"176394.30000001192","https://psyc-201.github.io/xiang2023/exp/index1.html?PROLIFIC_PID=REDACTED&STUDY_ID=691f8ca61c6b4dcbb0aeb5f4&SESSION_ID=691fafadd44fe6899af287c0","instructions",2,190677,"0.0-2.0","d2bi+/wQvkbvEZ7/YQO6AHC3JHT6Z3ZI7/2uW4MoFsYtnSUSOxR/VfOyh54RDLEoGnQZhqGSdN7N+/Gpgj5UORbdNII+2MhZOoyFO7Wg2410zavJkhvFXEqkOOsq8v6HlY79ipa++OWPTqMZDfVfS4NyQabHL3xgbkdUXJsJvCXdsFt7/wIFLQHYSiIuQWvEdaa4yHPIolr/nvQeASdni0ajZDFyO1/QYiDFm/mYC1n90ilhCLRzIV/j54ZZJTAXHGkbxf6mbNVsddUAUIJZgr1nnoqBa6cSAZy5cjVGIXJhFyhIckBXTWngMMpqMj1f39l5mwwIcLo4cAvG30lohA==","691f8ca61c6b4dcbb0aeb5f4","691fafadd44fe6899af287c0","index1","<span style='color:red'>Fail,<span style='color:red'>Fail,<span style='color:green'>Lift,<span style='color:green'>Lift,<span style='color:red'>Fail,<span style='color:red'>Fail,<span style='color:red'>Fail,<span style='color:red'>Fail,<span style='color:red'>Fail,<span style='color:green'>Lift,<span style='color:red'>Fail,<span style='color:green'>Lift","<span style='color:red'>Fail,<span style='color:red'>Fail,<span style='color:green'>Lift,<span style='color:green'>Lift,<span style='color:green'>Lift,<span style='color:green'>Lift,<span style='color:green'>Lift,<span style='color:red'>Fail,<span style='color:green'>Lift,<span style='color:green'>Lift,<span style='color:red'>Fail,<span style='color:green'>Lift","<span style='color:red'>Fail,<span style='color:green'>Lift,<span style='color:green'>Lift,<span style='color:red'>Fail,<span style='color:green'>Lift,<span style='color:green'>Lift","0,0,1,1,0,0,0,0,0,1,0,1","0,0,1,1,1,1,1,0,1,1,0,1","0,1,1,0,1,1",10,20,20,"","[{""page_index"":0,""viewing_time"":25422.09999999404},{""page_index"":1,""viewing_time"":45061.60000002384},{""page_index"":2,""viewing_time"":13240},{""page_index"":3,""viewing_time"":44376.19999998808},{""page_index"":4,""viewing_time"":12640.300000011921},{""page_index"":5,""viewing_time"":25073.899999976158},{""page_index"":6,""viewing_time"":10579.600000023842}]","","","","",NA,NA,"",NA,NA,NA,NA,NA,NA,NA,NA,NA,NA,NA,NA,NA,NA,NA,NA,NA,NA,NA,NA,NA,NA,NA,NA,NA,NA,NA,NA,NA,NA,NA,NA,NA,NA,NA,NA,NA,NA,NA,"",NA,NA,NA,NA,NA,NA,NA,NA,2025-11-21 00:34:05
"null","https://psyc-201.github.io/xiang2023/exp/index1.html?PROLIFIC_PID=REDACTED&STUDY_ID=691f8ca61c6b4dcbb0aeb5f4&SESSION_ID=691fafadd44fe6899af287c0","html-keyboard-response",3,191687,"0.0-3.0","d2bi+/wQvkbvEZ7/YQO6AHC3JHT6Z3ZI7/2uW4MoFsYtnSUSOxR/VfOyh54RDLEoGnQZhqGSdN7N+/Gpgj5UORbdNII+2MhZOoyFO7Wg2410zavJkhvFXEqkOOsq8v6HlY79ipa++OWPTqMZDfVfS4NyQabHL3xgbkdUXJsJvCXdsFt7/wIFLQHYSiIuQWvEdaa4yHPIolr/nvQeASdni0ajZDFyO1/QYiDFm/mYC1n90ilhCLRzIV/j54ZZJTAXHGkbxf6mbNVsddUAUIJZgr1nnoqBa6cSAZy5cjVGIXJhFyhIckBXTWngMMpqMj1f39l5mwwIcLo4cAvG30lohA==","691f8ca61c6b4dcbb0aeb5f4","691fafadd44fe6899af287c0","index1","<span style='color:red'>Fail,<span style='color:red'>Fail,<span style='color:green'>Lift,<span style='color:green'>Lift,<span style='color:red'>Fail,<span style='color:red'>Fail,<span style='color:red'>Fail,<span style='color:red'>Fail,<span style='color:red'>Fail,<span style='color:green'>Lift,<span style='color:red'>Fail,<span style='color:green'>Lift","<span style='color:red'>Fail,<span style='color:red'>Fail,<span style='color:green'>Lift,<span style='color:green'>Lift,<span style='color:green'>Lift,<span style='color:green'>Lift,<span style='color:green'>Lift,<span style='color:red'>Fail,<span style='color:green'>Lift,<span style='color:green'>Lift,<span style='color:red'>Fail,<span style='color:green'>Lift","<span style='color:red'>Fail,<span style='color:green'>Lift,<span style='color:green'>Lift,<span style='color:red'>Fail,<span style='color:green'>Lift,<span style='color:green'>Lift","0,0,1,1,0,0,0,0,0,1,0,1","0,0,1,1,1,1,1,0,1,1,0,1","0,1,1,0,1,1",10,20,20,"",""," ","null","","",NA,NA,"",NA,NA,NA,NA,NA,NA,NA,NA,NA,NA,NA,NA,NA,NA,NA,NA,NA,NA,NA,NA,NA,NA,NA,NA,NA,NA,NA,NA,NA,NA,NA,NA,NA,NA,NA,NA,NA,NA,NA,"",NA,NA,NA,NA,NA,NA,NA,NA,2025-11-21 00:34:05
"53359.60000002384","https://psyc-201.github.io/xiang2023/exp/index1.html?PROLIFIC_PID=REDACTED&STUDY_ID=691f8ca61c6b4dcbb0aeb5f4&SESSION_ID=691fafadd44fe6899af287c0","survey-multi-choice",4,245053,"0.0-4.0","d2bi+/wQvkbvEZ7/YQO6AHC3JHT6Z3ZI7/2uW4MoFsYtnSUSOxR/VfOyh54RDLEoGnQZhqGSdN7N+/Gpgj5UORbdNII+2MhZOoyFO7Wg2410zavJkhvFXEqkOOsq8v6HlY79ipa++OWPTqMZDfVfS4NyQabHL3xgbkdUXJsJvCXdsFt7/wIFLQHYSiIuQWvEdaa4yHPIolr/nvQeASdni0ajZDFyO1/QYiDFm/mYC1n90ilhCLRzIV/j54ZZJTAXHGkbxf6mbNVsddUAUIJZgr1nnoqBa6cSAZy5cjVGIXJhFyhIckBXTWngMMpqMj1f39l5mwwIcLo4cAvG30lohA==","691f8ca61c6b4dcbb0aeb5f4","691fafadd44fe6899af287c0","index1","<span style='color:red'>Fail,<span style='color:red'>Fail,<span style='color:green'>Lift,<span style='color:green'>Lift,<span style='color:red'>Fail,<span style='color:red'>Fail,<span style='color:red'>Fail,<span style='color:red'>Fail,<span style='color:red'>Fail,<span style='color:green'>Lift,<span style='color:red'>Fail,<span style='color:green'>Lift","<span style='color:red'>Fail,<span style='color:red'>Fail,<span style='color:green'>Lift,<span style='color:green'>Lift,<span style='color:green'>Lift,<span style='color:green'>Lift,<span style='color:green'>Lift,<span style='color:red'>Fail,<span style='color:green'>Lift,<span style='color:green'>Lift,<span style='color:red'>Fail,<span style='color:green'>Lift","<span style='color:red'>Fail,<span style='color:green'>Lift,<span style='color:green'>Lift,<span style='color:red'>Fail,<span style='color:green'>Lift,<span style='color:green'>Lift","0,0,1,1,0,0,0,0,0,1,0,1","0,0,1,1,1,1,1,0,1,1,0,1","0,1,1,0,1,1",10,20,20,"","","","","{""Q0"":""It consists of multiple contests, each contest with three rounds."",""Q1"":""When a new contest begins."",""Q2"":""The box weight always stays the same (equivalent to strength of 5)."",""Q3"":""They will split the $20, that is $10 for each."",""Q4"":""How close my guesses are to the actual outcome.""}","[0,1,2,3,4]",NA,NA,"",NA,NA,NA,NA,NA,NA,NA,NA,NA,NA,NA,NA,NA,NA,NA,NA,NA,NA,NA,NA,NA,NA,NA,NA,NA,NA,NA,NA,NA,NA,NA,NA,NA,NA,NA,NA,NA,NA,NA,"",NA,NA,NA,NA,NA,NA,NA,NA,2025-11-21 00:34:05
"4343.299999982119","https://psyc-201.github.io/xiang2023/exp/index1.html?PROLIFIC_PID=REDACTED&STUDY_ID=691f8ca61c6b4dcbb0aeb5f4&SESSION_ID=691fafadd44fe6899af287c0","html-button-response",5,249400,"0.0-5.0-1.0","d2bi+/wQvkbvEZ7/YQO6AHC3JHT6Z3ZI7/2uW4MoFsYtnSUSOxR/VfOyh54RDLEoGnQZhqGSdN7N+/Gpgj5UORbdNII+2MhZOoyFO7Wg2410zavJkhvFXEqkOOsq8v6HlY79ipa++OWPTqMZDfVfS4NyQabHL3xgbkdUXJsJvCXdsFt7/wIFLQHYSiIuQWvEdaa4yHPIolr/nvQeASdni0ajZDFyO1/QYiDFm/mYC1n90ilhCLRzIV/j54ZZJTAXHGkbxf6mbNVsddUAUIJZgr1nnoqBa6cSAZy5cjVGIXJhFyhIckBXTWngMMpqMj1f39l5mwwIcLo4cAvG30lohA==","691f8ca61c6b4dcbb0aeb5f4","691fafadd44fe6899af287c0","index1","<span style='color:red'>Fail,<span style='color:red'>Fail,<span style='color:green'>Lift,<span style='color:green'>Lift,<span style='color:red'>Fail,<span style='color:red'>Fail,<span style='color:red'>Fail,<span style='color:red'>Fail,<span style='color:red'>Fail,<span style='color:green'>Lift,<span style='color:red'>Fail,<span style='color:green'>Lift","<span style='color:red'>Fail,<span style='color:red'>Fail,<span style='color:green'>Lift,<span style='color:green'>Lift,<span style='color:green'>Lift,<span style='color:green'>Lift,<span style='color:green'>Lift,<span style='color:red'>Fail,<span style='color:green'>Lift,<span style='color:green'>Lift,<span style='color:red'>Fail,<span style='color:green'>Lift","<span style='color:red'>Fail,<span style='color:green'>Lift,<span style='color:green'>Lift,<span style='color:red'>Fail,<span style='color:green'>Lift,<span style='color:green'>Lift","0,0,1,1,0,0,0,0,0,1,0,1","0,0,1,1,1,1,1,0,1,1,0,1","0,1,1,0,1,1",10,20,20,"","","<p> Oops! You did not pass the comprehension check. <b>Please note that you have only 1 attempt(s) left.</b> </p>","","","",1,NA,"",NA,NA,NA,NA,NA,NA,NA,NA,NA,NA,NA,NA,NA,NA,NA,NA,NA,NA,NA,NA,NA,NA,NA,NA,NA,NA,NA,NA,NA,NA,NA,NA,NA,NA,NA,NA,NA,NA,NA,"",NA,NA,NA,NA,NA,NA,NA,NA,2025-11-21 00:34:05
"141917","https://psyc-201.github.io/xiang2023/exp/index1.html?PROLIFIC_PID=REDACTED&STUDY_ID=691f8ca61c6b4dcbb0aeb5f4&SESSION_ID=691fafadd44fe6899af287c0","instructions",6,391319,"0.0-6.0-0.0","d2bi+/wQvkbvEZ7/YQO6AHC3JHT6Z3ZI7/2uW4MoFsYtnSUSOxR/VfOyh54RDLEoGnQZhqGSdN7N+/Gpgj5UORbdNII+2MhZOoyFO7Wg2410zavJkhvFXEqkOOsq8v6HlY79ipa++OWPTqMZDfVfS4NyQabHL3xgbkdUXJsJvCXdsFt7/wIFLQHYSiIuQWvEdaa4yHPIolr/nvQeASdni0ajZDFyO1/QYiDFm/mYC1n90ilhCLRzIV/j54ZZJTAXHGkbxf6mbNVsddUAUIJZgr1nnoqBa6cSAZy5cjVGIXJhFyhIckBXTWngMMpqMj1f39l5mwwIcLo4cAvG30lohA==","691f8ca61c6b4dcbb0aeb5f4","691fafadd44fe6899af287c0","index1","<span style='color:red'>Fail,<span style='color:red'>Fail,<span style='color:green'>Lift,<span style='color:green'>Lift,<span style='color:red'>Fail,<span style='color:red'>Fail,<span style='color:red'>Fail,<span style='color:red'>Fail,<span style='color:red'>Fail,<span style='color:green'>Lift,<span style='color:red'>Fail,<span style='color:green'>Lift","<span style='color:red'>Fail,<span style='color:red'>Fail,<span style='color:green'>Lift,<span style='color:green'>Lift,<span style='color:green'>Lift,<span style='color:green'>Lift,<span style='color:green'>Lift,<span style='color:red'>Fail,<span style='color:green'>Lift,<span style='color:green'>Lift,<span style='color:red'>Fail,<span style='color:green'>Lift","<span style='color:red'>Fail,<span style='color:green'>Lift,<span style='color:green'>Lift,<span style='color:red'>Fail,<span style='color:green'>Lift,<span style='color:green'>Lift","0,0,1,1,0,0,0,0,0,1,0,1","0,0,1,1,1,1,1,0,1,1,0,1","0,1,1,0,1,1",10,20,20,"","[{""page_index"":0,""viewing_time"":45612.90000000596},{""page_index"":1,""viewing_time"":3807.800000011921},{""page_index"":2,""viewing_time"":35156},{""page_index"":3,""viewing_time"":26782},{""page_index"":4,""viewing_time"":4345.9000000059605},{""page_index"":5,""viewing_time"":24238},{""page_index"":6,""viewing_time"":1974.0999999940395}]","","","","",NA,NA,"",NA,NA,NA,NA,NA,NA,NA,NA,NA,NA,NA,NA,NA,NA,NA,NA,NA,NA,NA,NA,NA,NA,NA,NA,NA,NA,NA,NA,NA,NA,NA,NA,NA,NA,NA,NA,NA,NA,NA,"",NA,NA,NA,NA,NA,NA,NA,NA,2025-11-21 00:34:05
"null","https://psyc-201.github.io/xiang2023/exp/index1.html?PROLIFIC_PID=REDACTED&STUDY_ID=691f8ca61c6b4dcbb0aeb5f4&SESSION_ID=691fafadd44fe6899af287c0","html-keyboard-response",7,392336,"0.0-6.0-1.0","d2bi+/wQvkbvEZ7/YQO6AHC3JHT6Z3ZI7/2uW4MoFsYtnSUSOxR/VfOyh54RDLEoGnQZhqGSdN7N+/Gpgj5UORbdNII+2MhZOoyFO7Wg2410zavJkhvFXEqkOOsq8v6HlY79ipa++OWPTqMZDfVfS4NyQabHL3xgbkdUXJsJvCXdsFt7/wIFLQHYSiIuQWvEdaa4yHPIolr/nvQeASdni0ajZDFyO1/QYiDFm/mYC1n90ilhCLRzIV/j54ZZJTAXHGkbxf6mbNVsddUAUIJZgr1nnoqBa6cSAZy5cjVGIXJhFyhIckBXTWngMMpqMj1f39l5mwwIcLo4cAvG30lohA==","691f8ca61c6b4dcbb0aeb5f4","691fafadd44fe6899af287c0","index1","<span style='color:red'>Fail,<span style='color:red'>Fail,<span style='color:green'>Lift,<span style='color:green'>Lift,<span style='color:red'>Fail,<span style='color:red'>Fail,<span style='color:red'>Fail,<span style='color:red'>Fail,<span style='color:red'>Fail,<span style='color:green'>Lift,<span style='color:red'>Fail,<span style='color:green'>Lift","<span style='color:red'>Fail,<span style='color:red'>Fail,<span style='color:green'>Lift,<span style='color:green'>Lift,<span style='color:green'>Lift,<span style='color:green'>Lift,<span style='color:green'>Lift,<span style='color:red'>Fail,<span style='color:green'>Lift,<span style='color:green'>Lift,<span style='color:red'>Fail,<span style='color:green'>Lift","<span style='color:red'>Fail,<span style='color:green'>Lift,<span style='color:green'>Lift,<span style='color:red'>Fail,<span style='color:green'>Lift,<span style='color:green'>Lift","0,0,1,1,0,0,0,0,0,1,0,1","0,0,1,1,1,1,1,0,1,1,0,1","0,1,1,0,1,1",10,20,20,"",""," ","null","","",NA,NA,"",NA,NA,NA,NA,NA,NA,NA,NA,NA,NA,NA,NA,NA,NA,NA,NA,NA,NA,NA,NA,NA,NA,NA,NA,NA,NA,NA,NA,NA,NA,NA,NA,NA,NA,NA,NA,NA,NA,NA,"",NA,NA,NA,NA,NA,NA,NA,NA,2025-11-21 00:34:05
"26771.19999998808","https://psyc-201.github.io/xiang2023/exp/index1.html?PROLIFIC_PID=REDACTED&STUDY_ID=691f8ca61c6b4dcbb0aeb5f4&SESSION_ID=691fafadd44fe6899af287c0","survey-multi-choice",8,419112,"0.0-7.0-0.0","d2bi+/wQvkbvEZ7/YQO6AHC3JHT6Z3ZI7/2uW4MoFsYtnSUSOxR/VfOyh54RDLEoGnQZhqGSdN7N+/Gpgj5UORbdNII+2MhZOoyFO7Wg2410zavJkhvFXEqkOOsq8v6HlY79ipa++OWPTqMZDfVfS4NyQabHL3xgbkdUXJsJvCXdsFt7/wIFLQHYSiIuQWvEdaa4yHPIolr/nvQeASdni0ajZDFyO1/QYiDFm/mYC1n90ilhCLRzIV/j54ZZJTAXHGkbxf6mbNVsddUAUIJZgr1nnoqBa6cSAZy5cjVGIXJhFyhIckBXTWngMMpqMj1f39l5mwwIcLo4cAvG30lohA==","691f8ca61c6b4dcbb0aeb5f4","691fafadd44fe6899af287c0","index1","<span style='color:red'>Fail,<span style='color:red'>Fail,<span style='color:green'>Lift,<span style='color:green'>Lift,<span style='color:red'>Fail,<span style='color:red'>Fail,<span style='color:red'>Fail,<span style='color:red'>Fail,<span style='color:red'>Fail,<span style='color:green'>Lift,<span style='color:red'>Fail,<span style='color:green'>Lift","<span style='color:red'>Fail,<span style='color:red'>Fail,<span style='color:green'>Lift,<span style='color:green'>Lift,<span style='color:green'>Lift,<span style='color:green'>Lift,<span style='color:green'>Lift,<span style='color:red'>Fail,<span style='color:green'>Lift,<span style='color:green'>Lift,<span style='color:red'>Fail,<span style='color:green'>Lift","<span style='color:red'>Fail,<span style='color:green'>Lift,<span style='color:green'>Lift,<span style='color:red'>Fail,<span style='color:green'>Lift,<span style='color:green'>Lift","0,0,1,1,0,0,0,0,0,1,0,1","0,0,1,1,1,1,1,0,1,1,0,1","0,1,1,0,1,1",10,20,20,"","","","","{""Q0"":""It consists of multiple contests, each contest with three rounds."",""Q1"":""When a new contest begins."",""Q2"":""The box weight always stays the same (equivalent to strength of 5)."",""Q3"":""Each will get $20."",""Q4"":""How close my guesses are to the actual outcome.""}","[0,1,2,3,4]",NA,NA,"",NA,NA,NA,NA,NA,NA,NA,NA,NA,NA,NA,NA,NA,NA,NA,NA,NA,NA,NA,NA,NA,NA,NA,NA,NA,NA,NA,NA,NA,NA,NA,NA,NA,NA,NA,NA,NA,NA,NA,"",NA,NA,NA,NA,NA,NA,NA,NA,2025-11-21 00:34:05
"18955.5","https://psyc-201.github.io/xiang2023/exp/index1.html?PROLIFIC_PID=REDACTED&STUDY_ID=691f8ca61c6b4dcbb0aeb5f4&SESSION_ID=691fafadd44fe6899af287c0","instructions",9,438075,"0.0-305.0","d2bi+/wQvkbvEZ7/YQO6AHC3JHT6Z3ZI7/2uW4MoFsYtnSUSOxR/VfOyh54RDLEoGnQZhqGSdN7N+/Gpgj5UORbdNII+2MhZOoyFO7Wg2410zavJkhvFXEqkOOsq8v6HlY79ipa++OWPTqMZDfVfS4NyQabHL3xgbkdUXJsJvCXdsFt7/wIFLQHYSiIuQWvEdaa4yHPIolr/nvQeASdni0ajZDFyO1/QYiDFm/mYC1n90ilhCLRzIV/j54ZZJTAXHGkbxf6mbNVsddUAUIJZgr1nnoqBa6cSAZy5cjVGIXJhFyhIckBXTWngMMpqMj1f39l5mwwIcLo4cAvG30lohA==","691f8ca61c6b4dcbb0aeb5f4","691fafadd44fe6899af287c0","index1","<span style='color:red'>Fail,<span style='color:red'>Fail,<span style='color:green'>Lift,<span style='color:green'>Lift,<span style='color:red'>Fail,<span style='color:red'>Fail,<span style='color:red'>Fail,<span style='color:red'>Fail,<span style='color:red'>Fail,<span style='color:green'>Lift,<span style='color:red'>Fail,<span style='color:green'>Lift","<span style='color:red'>Fail,<span style='color:red'>Fail,<span style='color:green'>Lift,<span style='color:green'>Lift,<span style='color:green'>Lift,<span style='color:green'>Lift,<span style='color:green'>Lift,<span style='color:red'>Fail,<span style='color:green'>Lift,<span style='color:green'>Lift,<span style='color:red'>Fail,<span style='color:green'>Lift","<span style='color:red'>Fail,<span style='color:green'>Lift,<span style='color:green'>Lift,<span style='color:red'>Fail,<span style='color:green'>Lift,<span style='color:green'>Lift","0,0,1,1,0,0,0,0,0,1,0,1","0,0,1,1,1,1,1,0,1,1,0,1","0,1,1,0,1,1",10,20,20,"","[{""page_index"":0,""viewing_time"":12835},{""page_index"":1,""viewing_time"":6120.300000011921}]","","","","",NA,NA,"",NA,NA,NA,NA,NA,NA,NA,NA,NA,NA,NA,NA,NA,NA,NA,NA,NA,NA,NA,NA,NA,NA,NA,NA,NA,NA,NA,NA,NA,NA,NA,NA,NA,NA,NA,NA,NA,NA,NA,"",NA,NA,NA,NA,NA,NA,NA,NA,2025-11-21 00:34:05
"null","https://psyc-201.github.io/xiang2023/exp/index1.html?PROLIFIC_PID=REDACTED&STUDY_ID=691f8ca61c6b4dcbb0aeb5f4&SESSION_ID=691fafadd44fe6899af287c0","html-keyboard-response",10,439088,"0.0-306.0","d2bi+/wQvkbvEZ7/YQO6AHC3JHT6Z3ZI7/2uW4MoFsYtnSUSOxR/VfOyh54RDLEoGnQZhqGSdN7N+/Gpgj5UORbdNII+2MhZOoyFO7Wg2410zavJkhvFXEqkOOsq8v6HlY79ipa++OWPTqMZDfVfS4NyQabHL3xgbkdUXJsJvCXdsFt7/wIFLQHYSiIuQWvEdaa4yHPIolr/nvQeASdni0ajZDFyO1/QYiDFm/mYC1n90ilhCLRzIV/j54ZZJTAXHGkbxf6mbNVsddUAUIJZgr1nnoqBa6cSAZy5cjVGIXJhFyhIckBXTWngMMpqMj1f39l5mwwIcLo4cAvG30lohA==","691f8ca61c6b4dcbb0aeb5f4","691fafadd44fe6899af287c0","index1","<span style='color:red'>Fail,<span style='color:red'>Fail,<span style='color:green'>Lift,<span style='color:green'>Lift,<span style='color:red'>Fail,<span style='color:red'>Fail,<span style='color:red'>Fail,<span style='color:red'>Fail,<span style='color:red'>Fail,<span style='color:green'>Lift,<span style='color:red'>Fail,<span style='color:green'>Lift","<span style='color:red'>Fail,<span style='color:red'>Fail,<span style='color:green'>Lift,<span style='color:green'>Lift,<span style='color:green'>Lift,<span style='color:green'>Lift,<span style='color:green'>Lift,<span style='color:red'>Fail,<span style='color:green'>Lift,<span style='color:green'>Lift,<span style='color:red'>Fail,<span style='color:green'>Lift","<span style='color:red'>Fail,<span style='color:green'>Lift,<span style='color:green'>Lift,<span style='color:red'>Fail,<span style='color:green'>Lift,<span style='color:green'>Lift","0,0,1,1,0,0,0,0,0,1,0,1","0,0,1,1,1,1,1,0,1,1,0,1","0,1,1,0,1,1",10,20,20,"",""," ","null","","",NA,1,"",NA,NA,NA,NA,NA,NA,NA,NA,NA,NA,NA,NA,NA,NA,NA,NA,NA,NA,NA,NA,NA,NA,NA,NA,NA,NA,NA,NA,NA,NA,NA,NA,NA,NA,NA,NA,NA,NA,NA,"",NA,NA,NA,NA,NA,NA,NA,NA,2025-11-21 00:34:05
"null","https://psyc-201.github.io/xiang2023/exp/index1.html?PROLIFIC_PID=REDACTED&STUDY_ID=691f8ca61c6b4dcbb0aeb5f4&SESSION_ID=691fafadd44fe6899af287c0","html-keyboard-response",11,442099,"0.0-307.0","d2bi+/wQvkbvEZ7/YQO6AHC3JHT6Z3ZI7/2uW4MoFsYtnSUSOxR/VfOyh54RDLEoGnQZhqGSdN7N+/Gpgj5UORbdNII+2MhZOoyFO7Wg2410zavJkhvFXEqkOOsq8v6HlY79ipa++OWPTqMZDfVfS4NyQabHL3xgbkdUXJsJvCXdsFt7/wIFLQHYSiIuQWvEdaa4yHPIolr/nvQeASdni0ajZDFyO1/QYiDFm/mYC1n90ilhCLRzIV/j54ZZJTAXHGkbxf6mbNVsddUAUIJZgr1nnoqBa6cSAZy5cjVGIXJhFyhIckBXTWngMMpqMj1f39l5mwwIcLo4cAvG30lohA==","691f8ca61c6b4dcbb0aeb5f4","691fafadd44fe6899af287c0","index1","<span style='color:red'>Fail,<span style='color:red'>Fail,<span style='color:green'>Lift,<span style='color:green'>Lift,<span style='color:red'>Fail,<span style='color:red'>Fail,<span style='color:red'>Fail,<span style='color:red'>Fail,<span style='color:red'>Fail,<span style='color:green'>Lift,<span style='color:red'>Fail,<span style='color:green'>Lift","<span style='color:red'>Fail,<span style='color:red'>Fail,<span style='color:green'>Lift,<span style='color:green'>Lift,<span style='color:green'>Lift,<span style='color:green'>Lift,<span style='color:green'>Lift,<span style='color:red'>Fail,<span style='color:green'>Lift,<span style='color:green'>Lift,<span style='color:red'>Fail,<span style='color:green'>Lift","<span style='color:red'>Fail,<span style='color:green'>Lift,<span style='color:green'>Lift,<span style='color:red'>Fail,<span style='color:green'>Lift,<span style='color:green'>Lift","0,0,1,1,0,0,0,0,0,1,0,1","0,0,1,1,1,1,1,0,1,1,0,1","0,1,1,0,1,1",10,20,20,"","","<p style='font-size:30px'><b> New Contest! </b></p>","null","","",NA,1,"",NA,NA,NA,NA,NA,NA,NA,NA,NA,NA,NA,NA,NA,NA,NA,NA,NA,NA,NA,NA,NA,NA,NA,NA,NA,NA,NA,NA,NA,NA,NA,NA,NA,NA,NA,NA,NA,NA,NA,"",NA,NA,NA,NA,NA,NA,NA,NA,2025-11-21 00:34:05
"16103.90000000596","https://psyc-201.github.io/xiang2023/exp/index1.html?PROLIFIC_PID=REDACTED&STUDY_ID=691f8ca61c6b4dcbb0aeb5f4&SESSION_ID=691fafadd44fe6899af287c0","survey-html-form",12,458209,"0.0-308.0","d2bi+/wQvkbvEZ7/YQO6AHC3JHT6Z3ZI7/2uW4MoFsYtnSUSOxR/VfOyh54RDLEoGnQZhqGSdN7N+/Gpgj5UORbdNII+2MhZOoyFO7Wg2410zavJkhvFXEqkOOsq8v6HlY79ipa++OWPTqMZDfVfS4NyQabHL3xgbkdUXJsJvCXdsFt7/wIFLQHYSiIuQWvEdaa4yHPIolr/nvQeASdni0ajZDFyO1/QYiDFm/mYC1n90ilhCLRzIV/j54ZZJTAXHGkbxf6mbNVsddUAUIJZgr1nnoqBa6cSAZy5cjVGIXJhFyhIckBXTWngMMpqMj1f39l5mwwIcLo4cAvG30lohA==","691f8ca61c6b4dcbb0aeb5f4","691fafadd44fe6899af287c0","index1","<span style='color:red'>Fail,<span style='color:red'>Fail,<span style='color:green'>Lift,<span style='color:green'>Lift,<span style='color:red'>Fail,<span style='color:red'>Fail,<span style='color:red'>Fail,<span style='color:red'>Fail,<span style='color:red'>Fail,<span style='color:green'>Lift,<span style='color:red'>Fail,<span style='color:green'>Lift","<span style='color:red'>Fail,<span style='color:red'>Fail,<span style='color:green'>Lift,<span style='color:green'>Lift,<span style='color:green'>Lift,<span style='color:green'>Lift,<span style='color:green'>Lift,<span style='color:red'>Fail,<span style='color:green'>Lift,<span style='color:green'>Lift,<span style='color:red'>Fail,<span style='color:green'>Lift","<span style='color:red'>Fail,<span style='color:green'>Lift,<span style='color:green'>Lift,<span style='color:red'>Fail,<span style='color:green'>Lift,<span style='color:green'>Lift","0,0,1,1,0,0,0,0,0,1,0,1","0,0,1,1,1,1,1,0,1,1,0,1","0,1,1,0,1,1",10,20,20,"","","","","{""box1"":""2"",""box2"":""2""}","",NA,1,"round1_outcome",1,1,1,2,2,NA,NA,0,0,10,2,2,NA,NA,0,0,10,NA,NA,NA,NA,NA,NA,NA,NA,NA,NA,NA,NA,NA,NA,NA,NA,NA,NA,NA,NA,NA,NA,"",NA,NA,NA,NA,NA,NA,NA,NA,2025-11-21 00:34:05
"19222","https://psyc-201.github.io/xiang2023/exp/index1.html?PROLIFIC_PID=REDACTED&STUDY_ID=691f8ca61c6b4dcbb0aeb5f4&SESSION_ID=691fafadd44fe6899af287c0","survey-html-form",13,477434,"0.0-309.0","d2bi+/wQvkbvEZ7/YQO6AHC3JHT6Z3ZI7/2uW4MoFsYtnSUSOxR/VfOyh54RDLEoGnQZhqGSdN7N+/Gpgj5UORbdNII+2MhZOoyFO7Wg2410zavJkhvFXEqkOOsq8v6HlY79ipa++OWPTqMZDfVfS4NyQabHL3xgbkdUXJsJvCXdsFt7/wIFLQHYSiIuQWvEdaa4yHPIolr/nvQeASdni0ajZDFyO1/QYiDFm/mYC1n90ilhCLRzIV/j54ZZJTAXHGkbxf6mbNVsddUAUIJZgr1nnoqBa6cSAZy5cjVGIXJhFyhIckBXTWngMMpqMj1f39l5mwwIcLo4cAvG30lohA==","691f8ca61c6b4dcbb0aeb5f4","691fafadd44fe6899af287c0","index1","<span style='color:red'>Fail,<span style='color:red'>Fail,<span style='color:green'>Lift,<span style='color:green'>Lift,<span style='color:red'>Fail,<span style='color:red'>Fail,<span style='color:red'>Fail,<span style='color:red'>Fail,<span style='color:red'>Fail,<span style='color:green'>Lift,<span style='color:red'>Fail,<span style='color:green'>Lift","<span style='color:red'>Fail,<span style='color:red'>Fail,<span style='color:green'>Lift,<span style='color:green'>Lift,<span style='color:green'>Lift,<span style='color:green'>Lift,<span style='color:green'>Lift,<span style='color:red'>Fail,<span style='color:green'>Lift,<span style='color:green'>Lift,<span style='color:red'>Fail,<span style='color:green'>Lift","<span style='color:red'>Fail,<span style='color:green'>Lift,<span style='color:green'>Lift,<span style='color:red'>Fail,<span style='color:green'>Lift,<span style='color:green'>Lift","0,0,1,1,0,0,0,0,0,1,0,1","0,0,1,1,1,1,1,0,1,1,0,1","0,1,1,0,1,1",10,20,20,"","","","","{""box1"":""50"",""box2"":""50""}","",NA,1,"round2_ready",2,1,2,NA,NA,NA,NA,NA,NA,NA,NA,NA,NA,NA,NA,NA,NA,50,50,50,50,NA,NA,NA,NA,NA,NA,NA,NA,NA,NA,NA,NA,NA,NA,NA,NA,NA,NA,"",NA,NA,NA,NA,NA,NA,NA,NA,2025-11-21 00:34:05
"19886.69999998808","https://psyc-201.github.io/xiang2023/exp/index1.html?PROLIFIC_PID=REDACTED&STUDY_ID=691f8ca61c6b4dcbb0aeb5f4&SESSION_ID=691fafadd44fe6899af287c0","survey-html-form",14,497324,"0.0-310.0","d2bi+/wQvkbvEZ7/YQO6AHC3JHT6Z3ZI7/2uW4MoFsYtnSUSOxR/VfOyh54RDLEoGnQZhqGSdN7N+/Gpgj5UORbdNII+2MhZOoyFO7Wg2410zavJkhvFXEqkOOsq8v6HlY79ipa++OWPTqMZDfVfS4NyQabHL3xgbkdUXJsJvCXdsFt7/wIFLQHYSiIuQWvEdaa4yHPIolr/nvQeASdni0ajZDFyO1/QYiDFm/mYC1n90ilhCLRzIV/j54ZZJTAXHGkbxf6mbNVsddUAUIJZgr1nnoqBa6cSAZy5cjVGIXJhFyhIckBXTWngMMpqMj1f39l5mwwIcLo4cAvG30lohA==","691f8ca61c6b4dcbb0aeb5f4","691fafadd44fe6899af287c0","index1","<span style='color:red'>Fail,<span style='color:red'>Fail,<span style='color:green'>Lift,<span style='color:green'>Lift,<span style='color:red'>Fail,<span style='color:red'>Fail,<span style='color:red'>Fail,<span style='color:red'>Fail,<span style='color:red'>Fail,<span style='color:green'>Lift,<span style='color:red'>Fail,<span style='color:green'>Lift","<span style='color:red'>Fail,<span style='color:red'>Fail,<span style='color:green'>Lift,<span style='color:green'>Lift,<span style='color:green'>Lift,<span style='color:green'>Lift,<span style='color:green'>Lift,<span style='color:red'>Fail,<span style='color:green'>Lift,<span style='color:green'>Lift,<span style='color:red'>Fail,<span style='color:green'>Lift","<span style='color:red'>Fail,<span style='color:green'>Lift,<span style='color:green'>Lift,<span style='color:red'>Fail,<span style='color:green'>Lift,<span style='color:green'>Lift","0,0,1,1,0,0,0,0,0,1,0,1","0,0,1,1,1,1,1,0,1,1,0,1","0,1,1,0,1,1",10,20,20,"","","","","{""box1"":""3"",""box2"":""3""}","",NA,1,"round2_outcome",3,1,2,3,3,NA,NA,0,0,20,NA,NA,NA,NA,NA,NA,NA,NA,NA,NA,NA,3,3,NA,NA,0,0,20,NA,NA,NA,NA,NA,NA,NA,NA,NA,NA,NA,"",NA,NA,NA,NA,NA,NA,NA,NA,2025-11-21 00:34:05
"7223.199999988079","https://psyc-201.github.io/xiang2023/exp/index1.html?PROLIFIC_PID=REDACTED&STUDY_ID=691f8ca61c6b4dcbb0aeb5f4&SESSION_ID=691fafadd44fe6899af287c0","survey-html-form",15,504550,"0.0-311.0","d2bi+/wQvkbvEZ7/YQO6AHC3JHT6Z3ZI7/2uW4MoFsYtnSUSOxR/VfOyh54RDLEoGnQZhqGSdN7N+/Gpgj5UORbdNII+2MhZOoyFO7Wg2410zavJkhvFXEqkOOsq8v6HlY79ipa++OWPTqMZDfVfS4NyQabHL3xgbkdUXJsJvCXdsFt7/wIFLQHYSiIuQWvEdaa4yHPIolr/nvQeASdni0ajZDFyO1/QYiDFm/mYC1n90ilhCLRzIV/j54ZZJTAXHGkbxf6mbNVsddUAUIJZgr1nnoqBa6cSAZy5cjVGIXJhFyhIckBXTWngMMpqMj1f39l5mwwIcLo4cAvG30lohA==","691f8ca61c6b4dcbb0aeb5f4","691fafadd44fe6899af287c0","index1","<span style='color:red'>Fail,<span style='color:red'>Fail,<span style='color:green'>Lift,<span style='color:green'>Lift,<span style='color:red'>Fail,<span style='color:red'>Fail,<span style='color:red'>Fail,<span style='color:red'>Fail,<span style='color:red'>Fail,<span style='color:green'>Lift,<span style='color:red'>Fail,<span style='color:green'>Lift","<span style='color:red'>Fail,<span style='color:red'>Fail,<span style='color:green'>Lift,<span style='color:green'>Lift,<span style='color:green'>Lift,<span style='color:green'>Lift,<span style='color:green'>Lift,<span style='color:red'>Fail,<span style='color:green'>Lift,<span style='color:green'>Lift,<span style='color:red'>Fail,<span style='color:green'>Lift","<span style='color:red'>Fail,<span style='color:green'>Lift,<span style='color:green'>Lift,<span style='color:red'>Fail,<span style='color:green'>Lift,<span style='color:green'>Lift","0,0,1,1,0,0,0,0,0,1,0,1","0,0,1,1,1,1,1,0,1,1,0,1","0,1,1,0,1,1",10,20,20,"","","","","{""box1"":""25""}","",NA,1,"round3_ready",4,1,3,NA,NA,NA,NA,NA,NA,NA,NA,NA,NA,NA,NA,NA,NA,25,25,NA,NA,NA,NA,NA,NA,NA,NA,NA,25,25,NA,NA,NA,NA,NA,NA,NA,NA,NA,"",NA,NA,NA,NA,NA,NA,NA,NA,2025-11-21 00:34:05
"17192.79999998212","https://psyc-201.github.io/xiang2023/exp/index1.html?PROLIFIC_PID=REDACTED&STUDY_ID=691f8ca61c6b4dcbb0aeb5f4&SESSION_ID=691fafadd44fe6899af287c0","survey-html-form",16,521746,"0.0-313.0-0.0","d2bi+/wQvkbvEZ7/YQO6AHC3JHT6Z3ZI7/2uW4MoFsYtnSUSOxR/VfOyh54RDLEoGnQZhqGSdN7N+/Gpgj5UORbdNII+2MhZOoyFO7Wg2410zavJkhvFXEqkOOsq8v6HlY79ipa++OWPTqMZDfVfS4NyQabHL3xgbkdUXJsJvCXdsFt7/wIFLQHYSiIuQWvEdaa4yHPIolr/nvQeASdni0ajZDFyO1/QYiDFm/mYC1n90ilhCLRzIV/j54ZZJTAXHGkbxf6mbNVsddUAUIJZgr1nnoqBa6cSAZy5cjVGIXJhFyhIckBXTWngMMpqMj1f39l5mwwIcLo4cAvG30lohA==","691f8ca61c6b4dcbb0aeb5f4","691fafadd44fe6899af287c0","index1","<span style='color:red'>Fail,<span style='color:red'>Fail,<span style='color:green'>Lift,<span style='color:green'>Lift,<span style='color:red'>Fail,<span style='color:red'>Fail,<span style='color:red'>Fail,<span style='color:red'>Fail,<span style='color:red'>Fail,<span style='color:green'>Lift,<span style='color:red'>Fail,<span style='color:green'>Lift","<span style='color:red'>Fail,<span style='color:red'>Fail,<span style='color:green'>Lift,<span style='color:green'>Lift,<span style='color:green'>Lift,<span style='color:green'>Lift,<span style='color:green'>Lift,<span style='color:red'>Fail,<span style='color:green'>Lift,<span style='color:green'>Lift,<span style='color:red'>Fail,<span style='color:green'>Lift","<span style='color:red'>Fail,<span style='color:green'>Lift,<span style='color:green'>Lift,<span style='color:red'>Fail,<span style='color:green'>Lift,<span style='color:green'>Lift","0,0,1,1,0,0,0,0,0,1,0,1","0,0,1,1,1,1,1,0,1,1,0,1","0,1,1,0,1,1",10,20,20,"","","","","{""box1"":""1"",""box2"":""1"",""box3"":""999"",""box4"":""999""}","",NA,2,"round3_fail",5,1,3,1,1,NA,NA,0,0,20,NA,NA,NA,NA,NA,NA,NA,NA,NA,NA,NA,NA,NA,NA,NA,NA,NA,NA,NA,NA,1,1,1,1,0,0,20,NA,NA,"",NA,NA,NA,NA,NA,NA,NA,NA,2025-11-21 00:34:05
"null","https://psyc-201.github.io/xiang2023/exp/index1.html?PROLIFIC_PID=REDACTED&STUDY_ID=691f8ca61c6b4dcbb0aeb5f4&SESSION_ID=691fafadd44fe6899af287c0","html-keyboard-response",17,524764,"0.0-316.0","d2bi+/wQvkbvEZ7/YQO6AHC3JHT6Z3ZI7/2uW4MoFsYtnSUSOxR/VfOyh54RDLEoGnQZhqGSdN7N+/Gpgj5UORbdNII+2MhZOoyFO7Wg2410zavJkhvFXEqkOOsq8v6HlY79ipa++OWPTqMZDfVfS4NyQabHL3xgbkdUXJsJvCXdsFt7/wIFLQHYSiIuQWvEdaa4yHPIolr/nvQeASdni0ajZDFyO1/QYiDFm/mYC1n90ilhCLRzIV/j54ZZJTAXHGkbxf6mbNVsddUAUIJZgr1nnoqBa6cSAZy5cjVGIXJhFyhIckBXTWngMMpqMj1f39l5mwwIcLo4cAvG30lohA==","691f8ca61c6b4dcbb0aeb5f4","691fafadd44fe6899af287c0","index1","<span style='color:red'>Fail,<span style='color:red'>Fail,<span style='color:green'>Lift,<span style='color:green'>Lift,<span style='color:red'>Fail,<span style='color:red'>Fail,<span style='color:red'>Fail,<span style='color:red'>Fail,<span style='color:red'>Fail,<span style='color:green'>Lift,<span style='color:red'>Fail,<span style='color:green'>Lift","<span style='color:red'>Fail,<span style='color:red'>Fail,<span style='color:green'>Lift,<span style='color:green'>Lift,<span style='color:green'>Lift,<span style='color:green'>Lift,<span style='color:green'>Lift,<span style='color:red'>Fail,<span style='color:green'>Lift,<span style='color:green'>Lift,<span style='color:red'>Fail,<span style='color:green'>Lift","<span style='color:red'>Fail,<span style='color:green'>Lift,<span style='color:green'>Lift,<span style='color:red'>Fail,<span style='color:green'>Lift,<span style='color:green'>Lift","0,0,1,1,0,0,0,0,0,1,0,1","0,0,1,1,1,1,1,0,1,1,0,1","0,1,1,0,1,1",10,20,20,"","","<p style='font-size:30px'><b> New Contest! </b></p>","null","","",NA,2,"",NA,NA,NA,NA,NA,NA,NA,NA,NA,NA,NA,NA,NA,NA,NA,NA,NA,NA,NA,NA,NA,NA,NA,NA,NA,NA,NA,NA,NA,NA,NA,NA,NA,NA,NA,NA,NA,NA,NA,"",NA,NA,NA,NA,NA,NA,NA,NA,2025-11-21 00:34:05
"9123.5","https://psyc-201.github.io/xiang2023/exp/index1.html?PROLIFIC_PID=REDACTED&STUDY_ID=691f8ca61c6b4dcbb0aeb5f4&SESSION_ID=691fafadd44fe6899af287c0","survey-html-form",18,533892,"0.0-317.0","d2bi+/wQvkbvEZ7/YQO6AHC3JHT6Z3ZI7/2uW4MoFsYtnSUSOxR/VfOyh54RDLEoGnQZhqGSdN7N+/Gpgj5UORbdNII+2MhZOoyFO7Wg2410zavJkhvFXEqkOOsq8v6HlY79ipa++OWPTqMZDfVfS4NyQabHL3xgbkdUXJsJvCXdsFt7/wIFLQHYSiIuQWvEdaa4yHPIolr/nvQeASdni0ajZDFyO1/QYiDFm/mYC1n90ilhCLRzIV/j54ZZJTAXHGkbxf6mbNVsddUAUIJZgr1nnoqBa6cSAZy5cjVGIXJhFyhIckBXTWngMMpqMj1f39l5mwwIcLo4cAvG30lohA==","691f8ca61c6b4dcbb0aeb5f4","691fafadd44fe6899af287c0","index1","<span style='color:red'>Fail,<span style='color:red'>Fail,<span style='color:green'>Lift,<span style='color:green'>Lift,<span style='color:red'>Fail,<span style='color:red'>Fail,<span style='color:red'>Fail,<span style='color:red'>Fail,<span style='color:red'>Fail,<span style='color:green'>Lift,<span style='color:red'>Fail,<span style='color:green'>Lift","<span style='color:red'>Fail,<span style='color:red'>Fail,<span style='color:green'>Lift,<span style='color:green'>Lift,<span style='color:green'>Lift,<span style='color:green'>Lift,<span style='color:green'>Lift,<span style='color:red'>Fail,<span style='color:green'>Lift,<span style='color:green'>Lift,<span style='color:red'>Fail,<span style='color:green'>Lift","<span style='color:red'>Fail,<span style='color:green'>Lift,<span style='color:green'>Lift,<span style='color:red'>Fail,<span style='color:green'>Lift,<span style='color:green'>Lift","0,0,1,1,0,0,0,0,0,1,0,1","0,0,1,1,1,1,1,0,1,1,0,1","0,1,1,0,1,1",10,20,20,"","","","","{""box1"":""2"",""box2"":""2""}","",NA,2,"round1_outcome",1,2,1,2,2,NA,NA,0,0,10,2,2,NA,NA,0,0,10,NA,NA,NA,NA,NA,NA,NA,NA,NA,NA,NA,NA,NA,NA,NA,NA,NA,NA,NA,NA,NA,NA,"",NA,NA,NA,NA,NA,NA,NA,NA,2025-11-21 00:34:05
"13601.700000017881","https://psyc-201.github.io/xiang2023/exp/index1.html?PROLIFIC_PID=REDACTED&STUDY_ID=691f8ca61c6b4dcbb0aeb5f4&SESSION_ID=691fafadd44fe6899af287c0","survey-html-form",19,547496,"0.0-318.0","d2bi+/wQvkbvEZ7/YQO6AHC3JHT6Z3ZI7/2uW4MoFsYtnSUSOxR/VfOyh54RDLEoGnQZhqGSdN7N+/Gpgj5UORbdNII+2MhZOoyFO7Wg2410zavJkhvFXEqkOOsq8v6HlY79ipa++OWPTqMZDfVfS4NyQabHL3xgbkdUXJsJvCXdsFt7/wIFLQHYSiIuQWvEdaa4yHPIolr/nvQeASdni0ajZDFyO1/QYiDFm/mYC1n90ilhCLRzIV/j54ZZJTAXHGkbxf6mbNVsddUAUIJZgr1nnoqBa6cSAZy5cjVGIXJhFyhIckBXTWngMMpqMj1f39l5mwwIcLo4cAvG30lohA==","691f8ca61c6b4dcbb0aeb5f4","691fafadd44fe6899af287c0","index1","<span style='color:red'>Fail,<span style='color:red'>Fail,<span style='color:green'>Lift,<span style='color:green'>Lift,<span style='color:red'>Fail,<span style='color:red'>Fail,<span style='color:red'>Fail,<span style='color:red'>Fail,<span style='color:red'>Fail,<span style='color:green'>Lift,<span style='color:red'>Fail,<span style='color:green'>Lift","<span style='color:red'>Fail,<span style='color:red'>Fail,<span style='color:green'>Lift,<span style='color:green'>Lift,<span style='color:green'>Lift,<span style='color:green'>Lift,<span style='color:green'>Lift,<span style='color:red'>Fail,<span style='color:green'>Lift,<span style='color:green'>Lift,<span style='color:red'>Fail,<span style='color:green'>Lift","<span style='color:red'>Fail,<span style='color:green'>Lift,<span style='color:green'>Lift,<span style='color:red'>Fail,<span style='color:green'>Lift,<span style='color:green'>Lift","0,0,1,1,0,0,0,0,0,1,0,1","0,0,1,1,1,1,1,0,1,1,0,1","0,1,1,0,1,1",10,20,20,"","","","","{""box1"":""50"",""box2"":""50""}","",NA,2,"round2_ready",2,2,2,NA,NA,NA,NA,NA,NA,NA,NA,NA,NA,NA,NA,NA,NA,50,50,50,50,NA,NA,NA,NA,NA,NA,NA,NA,NA,NA,NA,NA,NA,NA,NA,NA,NA,NA,"",NA,NA,NA,NA,NA,NA,NA,NA,2025-11-21 00:34:05
"24655.19999998808","https://psyc-201.github.io/xiang2023/exp/index1.html?PROLIFIC_PID=REDACTED&STUDY_ID=691f8ca61c6b4dcbb0aeb5f4&SESSION_ID=691fafadd44fe6899af287c0","survey-html-form",20,572155,"0.0-319.0","d2bi+/wQvkbvEZ7/YQO6AHC3JHT6Z3ZI7/2uW4MoFsYtnSUSOxR/VfOyh54RDLEoGnQZhqGSdN7N+/Gpgj5UORbdNII+2MhZOoyFO7Wg2410zavJkhvFXEqkOOsq8v6HlY79ipa++OWPTqMZDfVfS4NyQabHL3xgbkdUXJsJvCXdsFt7/wIFLQHYSiIuQWvEdaa4yHPIolr/nvQeASdni0ajZDFyO1/QYiDFm/mYC1n90ilhCLRzIV/j54ZZJTAXHGkbxf6mbNVsddUAUIJZgr1nnoqBa6cSAZy5cjVGIXJhFyhIckBXTWngMMpqMj1f39l5mwwIcLo4cAvG30lohA==","691f8ca61c6b4dcbb0aeb5f4","691fafadd44fe6899af287c0","index1","<span style='color:red'>Fail,<span style='color:red'>Fail,<span style='color:green'>Lift,<span style='color:green'>Lift,<span style='color:red'>Fail,<span style='color:red'>Fail,<span style='color:red'>Fail,<span style='color:red'>Fail,<span style='color:red'>Fail,<span style='color:green'>Lift,<span style='color:red'>Fail,<span style='color:green'>Lift","<span style='color:red'>Fail,<span style='color:red'>Fail,<span style='color:green'>Lift,<span style='color:green'>Lift,<span style='color:green'>Lift,<span style='color:green'>Lift,<span style='color:green'>Lift,<span style='color:red'>Fail,<span style='color:green'>Lift,<span style='color:green'>Lift,<span style='color:red'>Fail,<span style='color:green'>Lift","<span style='color:red'>Fail,<span style='color:green'>Lift,<span style='color:green'>Lift,<span style='color:red'>Fail,<span style='color:green'>Lift,<span style='color:green'>Lift","0,0,1,1,0,0,0,0,0,1,0,1","0,0,1,1,1,1,1,0,1,1,0,1","0,1,1,0,1,1",10,20,20,"","","","","{""box1"":""5"",""box2"":""5"",""box3"":""75"",""box4"":""75""}","",NA,2,"round2_outcome",3,2,2,5,5,75,75,1,1,20,NA,NA,NA,NA,NA,NA,NA,NA,NA,NA,NA,5,5,75,75,1,1,20,NA,NA,NA,NA,NA,NA,NA,NA,NA,NA,NA,"",NA,NA,NA,NA,NA,NA,NA,NA,2025-11-21 00:34:05
"6868.4000000059605","https://psyc-201.github.io/xiang2023/exp/index1.html?PROLIFIC_PID=REDACTED&STUDY_ID=691f8ca61c6b4dcbb0aeb5f4&SESSION_ID=691fafadd44fe6899af287c0","survey-html-form",21,579026,"0.0-320.0","d2bi+/wQvkbvEZ7/YQO6AHC3JHT6Z3ZI7/2uW4MoFsYtnSUSOxR/VfOyh54RDLEoGnQZhqGSdN7N+/Gpgj5UORbdNII+2MhZOoyFO7Wg2410zavJkhvFXEqkOOsq8v6HlY79ipa++OWPTqMZDfVfS4NyQabHL3xgbkdUXJsJvCXdsFt7/wIFLQHYSiIuQWvEdaa4yHPIolr/nvQeASdni0ajZDFyO1/QYiDFm/mYC1n90ilhCLRzIV/j54ZZJTAXHGkbxf6mbNVsddUAUIJZgr1nnoqBa6cSAZy5cjVGIXJhFyhIckBXTWngMMpqMj1f39l5mwwIcLo4cAvG30lohA==","691f8ca61c6b4dcbb0aeb5f4","691fafadd44fe6899af287c0","index1","<span style='color:red'>Fail,<span style='color:red'>Fail,<span style='color:green'>Lift,<span style='color:green'>Lift,<span style='color:red'>Fail,<span style='color:red'>Fail,<span style='color:red'>Fail,<span style='color:red'>Fail,<span style='color:red'>Fail,<span style='color:green'>Lift,<span style='color:red'>Fail,<span style='color:green'>Lift","<span style='color:red'>Fail,<span style='color:red'>Fail,<span style='color:green'>Lift,<span style='color:green'>Lift,<span style='color:green'>Lift,<span style='color:green'>Lift,<span style='color:green'>Lift,<span style='color:red'>Fail,<span style='color:green'>Lift,<span style='color:green'>Lift,<span style='color:red'>Fail,<span style='color:green'>Lift","<span style='color:red'>Fail,<span style='color:green'>Lift,<span style='color:green'>Lift,<span style='color:red'>Fail,<span style='color:green'>Lift,<span style='color:green'>Lift","0,0,1,1,0,0,0,0,0,1,0,1","0,0,1,1,1,1,1,0,1,1,0,1","0,1,1,0,1,1",10,20,20,"","","","","{""box1"":""100""}","",NA,2,"round3_ready",4,2,3,NA,NA,NA,NA,NA,NA,NA,NA,NA,NA,NA,NA,NA,NA,100,100,NA,NA,NA,NA,NA,NA,NA,NA,NA,100,100,NA,NA,NA,NA,NA,NA,NA,NA,NA,"",NA,NA,NA,NA,NA,NA,NA,NA,2025-11-21 00:34:05
"16485.59999999404","https://psyc-201.github.io/xiang2023/exp/index1.html?PROLIFIC_PID=REDACTED&STUDY_ID=691f8ca61c6b4dcbb0aeb5f4&SESSION_ID=691fafadd44fe6899af287c0","survey-html-form",22,595515,"0.0-321.0-0.0","d2bi+/wQvkbvEZ7/YQO6AHC3JHT6Z3ZI7/2uW4MoFsYtnSUSOxR/VfOyh54RDLEoGnQZhqGSdN7N+/Gpgj5UORbdNII+2MhZOoyFO7Wg2410zavJkhvFXEqkOOsq8v6HlY79ipa++OWPTqMZDfVfS4NyQabHL3xgbkdUXJsJvCXdsFt7/wIFLQHYSiIuQWvEdaa4yHPIolr/nvQeASdni0ajZDFyO1/QYiDFm/mYC1n90ilhCLRzIV/j54ZZJTAXHGkbxf6mbNVsddUAUIJZgr1nnoqBa6cSAZy5cjVGIXJhFyhIckBXTWngMMpqMj1f39l5mwwIcLo4cAvG30lohA==","691f8ca61c6b4dcbb0aeb5f4","691fafadd44fe6899af287c0","index1","<span style='color:red'>Fail,<span style='color:red'>Fail,<span style='color:green'>Lift,<span style='color:green'>Lift,<span style='color:red'>Fail,<span style='color:red'>Fail,<span style='color:red'>Fail,<span style='color:red'>Fail,<span style='color:red'>Fail,<span style='color:green'>Lift,<span style='color:red'>Fail,<span style='color:green'>Lift","<span style='color:red'>Fail,<span style='color:red'>Fail,<span style='color:green'>Lift,<span style='color:green'>Lift,<span style='color:green'>Lift,<span style='color:green'>Lift,<span style='color:green'>Lift,<span style='color:red'>Fail,<span style='color:green'>Lift,<span style='color:green'>Lift,<span style='color:red'>Fail,<span style='color:green'>Lift","<span style='color:red'>Fail,<span style='color:green'>Lift,<span style='color:green'>Lift,<span style='color:red'>Fail,<span style='color:green'>Lift,<span style='color:green'>Lift","0,0,1,1,0,0,0,0,0,1,0,1","0,0,1,1,1,1,1,0,1,1,0,1","0,1,1,0,1,1",10,20,20,"","","","","{""box1"":""5"",""box2"":""5"",""box3"":""50"",""box4"":""50""}","",NA,3,"round3_lift",5,2,3,5,5,50,50,1,1,20,NA,NA,NA,NA,NA,NA,NA,NA,NA,NA,NA,NA,NA,NA,NA,NA,NA,NA,NA,NA,NA,NA,5,5,1,1,20,50,50,"",NA,NA,NA,NA,NA,NA,NA,NA,2025-11-21 00:34:05
"null","https://psyc-201.github.io/xiang2023/exp/index1.html?PROLIFIC_PID=REDACTED&STUDY_ID=691f8ca61c6b4dcbb0aeb5f4&SESSION_ID=691fafadd44fe6899af287c0","html-keyboard-response",23,598527,"0.0-325.0","d2bi+/wQvkbvEZ7/YQO6AHC3JHT6Z3ZI7/2uW4MoFsYtnSUSOxR/VfOyh54RDLEoGnQZhqGSdN7N+/Gpgj5UORbdNII+2MhZOoyFO7Wg2410zavJkhvFXEqkOOsq8v6HlY79ipa++OWPTqMZDfVfS4NyQabHL3xgbkdUXJsJvCXdsFt7/wIFLQHYSiIuQWvEdaa4yHPIolr/nvQeASdni0ajZDFyO1/QYiDFm/mYC1n90ilhCLRzIV/j54ZZJTAXHGkbxf6mbNVsddUAUIJZgr1nnoqBa6cSAZy5cjVGIXJhFyhIckBXTWngMMpqMj1f39l5mwwIcLo4cAvG30lohA==","691f8ca61c6b4dcbb0aeb5f4","691fafadd44fe6899af287c0","index1","<span style='color:red'>Fail,<span style='color:red'>Fail,<span style='color:green'>Lift,<span style='color:green'>Lift,<span style='color:red'>Fail,<span style='color:red'>Fail,<span style='color:red'>Fail,<span style='color:red'>Fail,<span style='color:red'>Fail,<span style='color:green'>Lift,<span style='color:red'>Fail,<span style='color:green'>Lift","<span style='color:red'>Fail,<span style='color:red'>Fail,<span style='color:green'>Lift,<span style='color:green'>Lift,<span style='color:green'>Lift,<span style='color:green'>Lift,<span style='color:green'>Lift,<span style='color:red'>Fail,<span style='color:green'>Lift,<span style='color:green'>Lift,<span style='color:red'>Fail,<span style='color:green'>Lift","<span style='color:red'>Fail,<span style='color:green'>Lift,<span style='color:green'>Lift,<span style='color:red'>Fail,<span style='color:green'>Lift,<span style='color:green'>Lift","0,0,1,1,0,0,0,0,0,1,0,1","0,0,1,1,1,1,1,0,1,1,0,1","0,1,1,0,1,1",10,20,20,"","","<p style='font-size:30px'><b> New Contest! </b></p>","null","","",NA,3,"",NA,NA,NA,NA,NA,NA,NA,NA,NA,NA,NA,NA,NA,NA,NA,NA,NA,NA,NA,NA,NA,NA,NA,NA,NA,NA,NA,NA,NA,NA,NA,NA,NA,NA,NA,NA,NA,NA,NA,"",NA,NA,NA,NA,NA,NA,NA,NA,2025-11-21 00:34:05
"18865.30000001192","https://psyc-201.github.io/xiang2023/exp/index1.html?PROLIFIC_PID=REDACTED&STUDY_ID=691f8ca61c6b4dcbb0aeb5f4&SESSION_ID=691fafadd44fe6899af287c0","survey-html-form",24,617396,"0.0-326.0","d2bi+/wQvkbvEZ7/YQO6AHC3JHT6Z3ZI7/2uW4MoFsYtnSUSOxR/VfOyh54RDLEoGnQZhqGSdN7N+/Gpgj5UORbdNII+2MhZOoyFO7Wg2410zavJkhvFXEqkOOsq8v6HlY79ipa++OWPTqMZDfVfS4NyQabHL3xgbkdUXJsJvCXdsFt7/wIFLQHYSiIuQWvEdaa4yHPIolr/nvQeASdni0ajZDFyO1/QYiDFm/mYC1n90ilhCLRzIV/j54ZZJTAXHGkbxf6mbNVsddUAUIJZgr1nnoqBa6cSAZy5cjVGIXJhFyhIckBXTWngMMpqMj1f39l5mwwIcLo4cAvG30lohA==","691f8ca61c6b4dcbb0aeb5f4","691fafadd44fe6899af287c0","index1","<span style='color:red'>Fail,<span style='color:red'>Fail,<span style='color:green'>Lift,<span style='color:green'>Lift,<span style='color:red'>Fail,<span style='color:red'>Fail,<span style='color:red'>Fail,<span style='color:red'>Fail,<span style='color:red'>Fail,<span style='color:green'>Lift,<span style='color:red'>Fail,<span style='color:green'>Lift","<span style='color:red'>Fail,<span style='color:red'>Fail,<span style='color:green'>Lift,<span style='color:green'>Lift,<span style='color:green'>Lift,<span style='color:green'>Lift,<span style='color:green'>Lift,<span style='color:red'>Fail,<span style='color:green'>Lift,<span style='color:green'>Lift,<span style='color:red'>Fail,<span style='color:green'>Lift","<span style='color:red'>Fail,<span style='color:green'>Lift,<span style='color:green'>Lift,<span style='color:red'>Fail,<span style='color:green'>Lift,<span style='color:green'>Lift","0,0,1,1,0,0,0,0,0,1,0,1","0,0,1,1,1,1,1,0,1,1,0,1","0,1,1,0,1,1",10,20,20,"","","","","{""box1"":""8"",""box2"":""8"",""box3"":""5"",""box4"":""5""}","",NA,3,"round1_outcome",1,3,1,8,8,5,5,1,1,10,8,8,5,5,1,1,10,NA,NA,NA,NA,NA,NA,NA,NA,NA,NA,NA,NA,NA,NA,NA,NA,NA,NA,NA,NA,NA,NA,"",NA,NA,NA,NA,NA,NA,NA,NA,2025-11-21 00:34:05
"15473","https://psyc-201.github.io/xiang2023/exp/index1.html?PROLIFIC_PID=REDACTED&STUDY_ID=691f8ca61c6b4dcbb0aeb5f4&SESSION_ID=691fafadd44fe6899af287c0","survey-html-form",25,632872,"0.0-327.0","d2bi+/wQvkbvEZ7/YQO6AHC3JHT6Z3ZI7/2uW4MoFsYtnSUSOxR/VfOyh54RDLEoGnQZhqGSdN7N+/Gpgj5UORbdNII+2MhZOoyFO7Wg2410zavJkhvFXEqkOOsq8v6HlY79ipa++OWPTqMZDfVfS4NyQabHL3xgbkdUXJsJvCXdsFt7/wIFLQHYSiIuQWvEdaa4yHPIolr/nvQeASdni0ajZDFyO1/QYiDFm/mYC1n90ilhCLRzIV/j54ZZJTAXHGkbxf6mbNVsddUAUIJZgr1nnoqBa6cSAZy5cjVGIXJhFyhIckBXTWngMMpqMj1f39l5mwwIcLo4cAvG30lohA==","691f8ca61c6b4dcbb0aeb5f4","691fafadd44fe6899af287c0","index1","<span style='color:red'>Fail,<span style='color:red'>Fail,<span style='color:green'>Lift,<span style='color:green'>Lift,<span style='color:red'>Fail,<span style='color:red'>Fail,<span style='color:red'>Fail,<span style='color:red'>Fail,<span style='color:red'>Fail,<span style='color:green'>Lift,<span style='color:red'>Fail,<span style='color:green'>Lift","<span style='color:red'>Fail,<span style='color:red'>Fail,<span style='color:green'>Lift,<span style='color:green'>Lift,<span style='color:green'>Lift,<span style='color:green'>Lift,<span style='color:green'>Lift,<span style='color:red'>Fail,<span style='color:green'>Lift,<span style='color:green'>Lift,<span style='color:red'>Fail,<span style='color:green'>Lift","<span style='color:red'>Fail,<span style='color:green'>Lift,<span style='color:green'>Lift,<span style='color:red'>Fail,<span style='color:green'>Lift,<span style='color:green'>Lift","0,0,1,1,0,0,0,0,0,1,0,1","0,0,1,1,1,1,1,0,1,1,0,1","0,1,1,0,1,1",10,20,20,"","","","","{""box1"":""75"",""box2"":""75""}","",NA,3,"round2_ready",2,3,2,NA,NA,NA,NA,NA,NA,NA,NA,NA,NA,NA,NA,NA,NA,75,75,75,75,NA,NA,NA,NA,NA,NA,NA,NA,NA,NA,NA,NA,NA,NA,NA,NA,NA,NA,"",NA,NA,NA,NA,NA,NA,NA,NA,2025-11-21 00:34:05
"28489.59999999404","https://psyc-201.github.io/xiang2023/exp/index1.html?PROLIFIC_PID=REDACTED&STUDY_ID=691f8ca61c6b4dcbb0aeb5f4&SESSION_ID=691fafadd44fe6899af287c0","survey-html-form",26,661364,"0.0-328.0","d2bi+/wQvkbvEZ7/YQO6AHC3JHT6Z3ZI7/2uW4MoFsYtnSUSOxR/VfOyh54RDLEoGnQZhqGSdN7N+/Gpgj5UORbdNII+2MhZOoyFO7Wg2410zavJkhvFXEqkOOsq8v6HlY79ipa++OWPTqMZDfVfS4NyQabHL3xgbkdUXJsJvCXdsFt7/wIFLQHYSiIuQWvEdaa4yHPIolr/nvQeASdni0ajZDFyO1/QYiDFm/mYC1n90ilhCLRzIV/j54ZZJTAXHGkbxf6mbNVsddUAUIJZgr1nnoqBa6cSAZy5cjVGIXJhFyhIckBXTWngMMpqMj1f39l5mwwIcLo4cAvG30lohA==","691f8ca61c6b4dcbb0aeb5f4","691fafadd44fe6899af287c0","index1","<span style='color:red'>Fail,<span style='color:red'>Fail,<span style='color:green'>Lift,<span style='color:green'>Lift,<span style='color:red'>Fail,<span style='color:red'>Fail,<span style='color:red'>Fail,<span style='color:red'>Fail,<span style='color:red'>Fail,<span style='color:green'>Lift,<span style='color:red'>Fail,<span style='color:green'>Lift","<span style='color:red'>Fail,<span style='color:red'>Fail,<span style='color:green'>Lift,<span style='color:green'>Lift,<span style='color:green'>Lift,<span style='color:green'>Lift,<span style='color:green'>Lift,<span style='color:red'>Fail,<span style='color:green'>Lift,<span style='color:green'>Lift,<span style='color:red'>Fail,<span style='color:green'>Lift","<span style='color:red'>Fail,<span style='color:green'>Lift,<span style='color:green'>Lift,<span style='color:red'>Fail,<span style='color:green'>Lift,<span style='color:green'>Lift","0,0,1,1,0,0,0,0,0,1,0,1","0,0,1,1,1,1,1,0,1,1,0,1","0,1,1,0,1,1",10,20,20,"","","","","{""box1"":""10"",""box2"":""10"",""box3"":""5"",""box4"":""5""}","",NA,3,"round2_outcome",3,3,2,10,10,5,5,1,1,20,NA,NA,NA,NA,NA,NA,NA,NA,NA,NA,NA,10,10,5,5,1,1,20,NA,NA,NA,NA,NA,NA,NA,NA,NA,NA,NA,"",NA,NA,NA,NA,NA,NA,NA,NA,2025-11-21 00:34:05
"7035.5999999940395","https://psyc-201.github.io/xiang2023/exp/index1.html?PROLIFIC_PID=REDACTED&STUDY_ID=691f8ca61c6b4dcbb0aeb5f4&SESSION_ID=691fafadd44fe6899af287c0","survey-html-form",27,668402,"0.0-329.0","d2bi+/wQvkbvEZ7/YQO6AHC3JHT6Z3ZI7/2uW4MoFsYtnSUSOxR/VfOyh54RDLEoGnQZhqGSdN7N+/Gpgj5UORbdNII+2MhZOoyFO7Wg2410zavJkhvFXEqkOOsq8v6HlY79ipa++OWPTqMZDfVfS4NyQabHL3xgbkdUXJsJvCXdsFt7/wIFLQHYSiIuQWvEdaa4yHPIolr/nvQeASdni0ajZDFyO1/QYiDFm/mYC1n90ilhCLRzIV/j54ZZJTAXHGkbxf6mbNVsddUAUIJZgr1nnoqBa6cSAZy5cjVGIXJhFyhIckBXTWngMMpqMj1f39l5mwwIcLo4cAvG30lohA==","691f8ca61c6b4dcbb0aeb5f4","691fafadd44fe6899af287c0","index1","<span style='color:red'>Fail,<span style='color:red'>Fail,<span style='color:green'>Lift,<span style='color:green'>Lift,<span style='color:red'>Fail,<span style='color:red'>Fail,<span style='color:red'>Fail,<span style='color:red'>Fail,<span style='color:red'>Fail,<span style='color:green'>Lift,<span style='color:red'>Fail,<span style='color:green'>Lift","<span style='color:red'>Fail,<span style='color:red'>Fail,<span style='color:green'>Lift,<span style='color:green'>Lift,<span style='color:green'>Lift,<span style='color:green'>Lift,<span style='color:green'>Lift,<span style='color:red'>Fail,<span style='color:green'>Lift,<span style='color:green'>Lift,<span style='color:red'>Fail,<span style='color:green'>Lift","<span style='color:red'>Fail,<span style='color:green'>Lift,<span style='color:green'>Lift,<span style='color:red'>Fail,<span style='color:green'>Lift,<span style='color:green'>Lift","0,0,1,1,0,0,0,0,0,1,0,1","0,0,1,1,1,1,1,0,1,1,0,1","0,1,1,0,1,1",10,20,20,"","","","","{""box1"":""100""}","",NA,3,"round3_ready",4,3,3,NA,NA,NA,NA,NA,NA,NA,NA,NA,NA,NA,NA,NA,NA,100,100,NA,NA,NA,NA,NA,NA,NA,NA,NA,100,100,NA,NA,NA,NA,NA,NA,NA,NA,NA,"",NA,NA,NA,NA,NA,NA,NA,NA,2025-11-21 00:34:05
"21083.30000001192","https://psyc-201.github.io/xiang2023/exp/index1.html?PROLIFIC_PID=REDACTED&STUDY_ID=691f8ca61c6b4dcbb0aeb5f4&SESSION_ID=691fafadd44fe6899af287c0","survey-html-form",28,689488,"0.0-330.0-0.0","d2bi+/wQvkbvEZ7/YQO6AHC3JHT6Z3ZI7/2uW4MoFsYtnSUSOxR/VfOyh54RDLEoGnQZhqGSdN7N+/Gpgj5UORbdNII+2MhZOoyFO7Wg2410zavJkhvFXEqkOOsq8v6HlY79ipa++OWPTqMZDfVfS4NyQabHL3xgbkdUXJsJvCXdsFt7/wIFLQHYSiIuQWvEdaa4yHPIolr/nvQeASdni0ajZDFyO1/QYiDFm/mYC1n90ilhCLRzIV/j54ZZJTAXHGkbxf6mbNVsddUAUIJZgr1nnoqBa6cSAZy5cjVGIXJhFyhIckBXTWngMMpqMj1f39l5mwwIcLo4cAvG30lohA==","691f8ca61c6b4dcbb0aeb5f4","691fafadd44fe6899af287c0","index1","<span style='color:red'>Fail,<span style='color:red'>Fail,<span style='color:green'>Lift,<span style='color:green'>Lift,<span style='color:red'>Fail,<span style='color:red'>Fail,<span style='color:red'>Fail,<span style='color:red'>Fail,<span style='color:red'>Fail,<span style='color:green'>Lift,<span style='color:red'>Fail,<span style='color:green'>Lift","<span style='color:red'>Fail,<span style='color:red'>Fail,<span style='color:green'>Lift,<span style='color:green'>Lift,<span style='color:green'>Lift,<span style='color:green'>Lift,<span style='color:green'>Lift,<span style='color:red'>Fail,<span style='color:green'>Lift,<span style='color:green'>Lift,<span style='color:red'>Fail,<span style='color:green'>Lift","<span style='color:red'>Fail,<span style='color:green'>Lift,<span style='color:green'>Lift,<span style='color:red'>Fail,<span style='color:green'>Lift,<span style='color:green'>Lift","0,0,1,1,0,0,0,0,0,1,0,1","0,0,1,1,1,1,1,0,1,1,0,1","0,1,1,0,1,1",10,20,20,"","","","","{""box1"":""9"",""box2"":""9"",""box3"":""100"",""box4"":""100""}","",NA,4,"round3_lift",5,3,3,9,9,100,100,1,1,20,NA,NA,NA,NA,NA,NA,NA,NA,NA,NA,NA,NA,NA,NA,NA,NA,NA,NA,NA,NA,NA,NA,9,9,1,1,20,100,100,"",NA,NA,NA,NA,NA,NA,NA,NA,2025-11-21 00:34:05
"null","https://psyc-201.github.io/xiang2023/exp/index1.html?PROLIFIC_PID=REDACTED&STUDY_ID=691f8ca61c6b4dcbb0aeb5f4&SESSION_ID=691fafadd44fe6899af287c0","html-keyboard-response",29,692506,"0.0-334.0","d2bi+/wQvkbvEZ7/YQO6AHC3JHT6Z3ZI7/2uW4MoFsYtnSUSOxR/VfOyh54RDLEoGnQZhqGSdN7N+/Gpgj5UORbdNII+2MhZOoyFO7Wg2410zavJkhvFXEqkOOsq8v6HlY79ipa++OWPTqMZDfVfS4NyQabHL3xgbkdUXJsJvCXdsFt7/wIFLQHYSiIuQWvEdaa4yHPIolr/nvQeASdni0ajZDFyO1/QYiDFm/mYC1n90ilhCLRzIV/j54ZZJTAXHGkbxf6mbNVsddUAUIJZgr1nnoqBa6cSAZy5cjVGIXJhFyhIckBXTWngMMpqMj1f39l5mwwIcLo4cAvG30lohA==","691f8ca61c6b4dcbb0aeb5f4","691fafadd44fe6899af287c0","index1","<span style='color:red'>Fail,<span style='color:red'>Fail,<span style='color:green'>Lift,<span style='color:green'>Lift,<span style='color:red'>Fail,<span style='color:red'>Fail,<span style='color:red'>Fail,<span style='color:red'>Fail,<span style='color:red'>Fail,<span style='color:green'>Lift,<span style='color:red'>Fail,<span style='color:green'>Lift","<span style='color:red'>Fail,<span style='color:red'>Fail,<span style='color:green'>Lift,<span style='color:green'>Lift,<span style='color:green'>Lift,<span style='color:green'>Lift,<span style='color:green'>Lift,<span style='color:red'>Fail,<span style='color:green'>Lift,<span style='color:green'>Lift,<span style='color:red'>Fail,<span style='color:green'>Lift","<span style='color:red'>Fail,<span style='color:green'>Lift,<span style='color:green'>Lift,<span style='color:red'>Fail,<span style='color:green'>Lift,<span style='color:green'>Lift","0,0,1,1,0,0,0,0,0,1,0,1","0,0,1,1,1,1,1,0,1,1,0,1","0,1,1,0,1,1",10,20,20,"","","<p style='font-size:30px'><b> New Contest! </b></p>","null","","",NA,4,"",NA,NA,NA,NA,NA,NA,NA,NA,NA,NA,NA,NA,NA,NA,NA,NA,NA,NA,NA,NA,NA,NA,NA,NA,NA,NA,NA,NA,NA,NA,NA,NA,NA,NA,NA,NA,NA,NA,NA,"",NA,NA,NA,NA,NA,NA,NA,NA,2025-11-21 00:34:05
"12460.200000017881","https://psyc-201.github.io/xiang2023/exp/index1.html?PROLIFIC_PID=REDACTED&STUDY_ID=691f8ca61c6b4dcbb0aeb5f4&SESSION_ID=691fafadd44fe6899af287c0","survey-html-form",30,704970,"0.0-335.0","d2bi+/wQvkbvEZ7/YQO6AHC3JHT6Z3ZI7/2uW4MoFsYtnSUSOxR/VfOyh54RDLEoGnQZhqGSdN7N+/Gpgj5UORbdNII+2MhZOoyFO7Wg2410zavJkhvFXEqkOOsq8v6HlY79ipa++OWPTqMZDfVfS4NyQabHL3xgbkdUXJsJvCXdsFt7/wIFLQHYSiIuQWvEdaa4yHPIolr/nvQeASdni0ajZDFyO1/QYiDFm/mYC1n90ilhCLRzIV/j54ZZJTAXHGkbxf6mbNVsddUAUIJZgr1nnoqBa6cSAZy5cjVGIXJhFyhIckBXTWngMMpqMj1f39l5mwwIcLo4cAvG30lohA==","691f8ca61c6b4dcbb0aeb5f4","691fafadd44fe6899af287c0","index1","<span style='color:red'>Fail,<span style='color:red'>Fail,<span style='color:green'>Lift,<span style='color:green'>Lift,<span style='color:red'>Fail,<span style='color:red'>Fail,<span style='color:red'>Fail,<span style='color:red'>Fail,<span style='color:red'>Fail,<span style='color:green'>Lift,<span style='color:red'>Fail,<span style='color:green'>Lift","<span style='color:red'>Fail,<span style='color:red'>Fail,<span style='color:green'>Lift,<span style='color:green'>Lift,<span style='color:green'>Lift,<span style='color:green'>Lift,<span style='color:green'>Lift,<span style='color:red'>Fail,<span style='color:green'>Lift,<span style='color:green'>Lift,<span style='color:red'>Fail,<span style='color:green'>Lift","<span style='color:red'>Fail,<span style='color:green'>Lift,<span style='color:green'>Lift,<span style='color:red'>Fail,<span style='color:green'>Lift,<span style='color:green'>Lift","0,0,1,1,0,0,0,0,0,1,0,1","0,0,1,1,1,1,1,0,1,1,0,1","0,1,1,0,1,1",10,20,20,"","","","","{""box1"":""1"",""box2"":""1""}","",NA,4,"round1_outcome",1,4,1,1,1,NA,NA,0,0,10,1,1,NA,NA,0,0,10,NA,NA,NA,NA,NA,NA,NA,NA,NA,NA,NA,NA,NA,NA,NA,NA,NA,NA,NA,NA,NA,NA,"",NA,NA,NA,NA,NA,NA,NA,NA,2025-11-21 00:34:05
"10155.09999999404","https://psyc-201.github.io/xiang2023/exp/index1.html?PROLIFIC_PID=REDACTED&STUDY_ID=691f8ca61c6b4dcbb0aeb5f4&SESSION_ID=691fafadd44fe6899af287c0","survey-html-form",31,715128,"0.0-336.0","d2bi+/wQvkbvEZ7/YQO6AHC3JHT6Z3ZI7/2uW4MoFsYtnSUSOxR/VfOyh54RDLEoGnQZhqGSdN7N+/Gpgj5UORbdNII+2MhZOoyFO7Wg2410zavJkhvFXEqkOOsq8v6HlY79ipa++OWPTqMZDfVfS4NyQabHL3xgbkdUXJsJvCXdsFt7/wIFLQHYSiIuQWvEdaa4yHPIolr/nvQeASdni0ajZDFyO1/QYiDFm/mYC1n90ilhCLRzIV/j54ZZJTAXHGkbxf6mbNVsddUAUIJZgr1nnoqBa6cSAZy5cjVGIXJhFyhIckBXTWngMMpqMj1f39l5mwwIcLo4cAvG30lohA==","691f8ca61c6b4dcbb0aeb5f4","691fafadd44fe6899af287c0","index1","<span style='color:red'>Fail,<span style='color:red'>Fail,<span style='color:green'>Lift,<span style='color:green'>Lift,<span style='color:red'>Fail,<span style='color:red'>Fail,<span style='color:red'>Fail,<span style='color:red'>Fail,<span style='color:red'>Fail,<span style='color:green'>Lift,<span style='color:red'>Fail,<span style='color:green'>Lift","<span style='color:red'>Fail,<span style='color:red'>Fail,<span style='color:green'>Lift,<span style='color:green'>Lift,<span style='color:green'>Lift,<span style='color:green'>Lift,<span style='color:green'>Lift,<span style='color:red'>Fail,<span style='color:green'>Lift,<span style='color:green'>Lift,<span style='color:red'>Fail,<span style='color:green'>Lift","<span style='color:red'>Fail,<span style='color:green'>Lift,<span style='color:green'>Lift,<span style='color:red'>Fail,<span style='color:green'>Lift,<span style='color:green'>Lift","0,0,1,1,0,0,0,0,0,1,0,1","0,0,1,1,1,1,1,0,1,1,0,1","0,1,1,0,1,1",10,20,20,"","","","","{""box1"":""25"",""box2"":""50""}","",NA,4,"round2_ready",2,4,2,NA,NA,NA,NA,NA,NA,NA,NA,NA,NA,NA,NA,NA,NA,25,50,25,50,NA,NA,NA,NA,NA,NA,NA,NA,NA,NA,NA,NA,NA,NA,NA,NA,NA,NA,"",NA,NA,NA,NA,NA,NA,NA,NA,2025-11-21 00:34:05
"24656","https://psyc-201.github.io/xiang2023/exp/index1.html?PROLIFIC_PID=REDACTED&STUDY_ID=691f8ca61c6b4dcbb0aeb5f4&SESSION_ID=691fafadd44fe6899af287c0","survey-html-form",32,739787,"0.0-337.0","d2bi+/wQvkbvEZ7/YQO6AHC3JHT6Z3ZI7/2uW4MoFsYtnSUSOxR/VfOyh54RDLEoGnQZhqGSdN7N+/Gpgj5UORbdNII+2MhZOoyFO7Wg2410zavJkhvFXEqkOOsq8v6HlY79ipa++OWPTqMZDfVfS4NyQabHL3xgbkdUXJsJvCXdsFt7/wIFLQHYSiIuQWvEdaa4yHPIolr/nvQeASdni0ajZDFyO1/QYiDFm/mYC1n90ilhCLRzIV/j54ZZJTAXHGkbxf6mbNVsddUAUIJZgr1nnoqBa6cSAZy5cjVGIXJhFyhIckBXTWngMMpqMj1f39l5mwwIcLo4cAvG30lohA==","691f8ca61c6b4dcbb0aeb5f4","691fafadd44fe6899af287c0","index1","<span style='color:red'>Fail,<span style='color:red'>Fail,<span style='color:green'>Lift,<span style='color:green'>Lift,<span style='color:red'>Fail,<span style='color:red'>Fail,<span style='color:red'>Fail,<span style='color:red'>Fail,<span style='color:red'>Fail,<span style='color:green'>Lift,<span style='color:red'>Fail,<span style='color:green'>Lift","<span style='color:red'>Fail,<span style='color:red'>Fail,<span style='color:green'>Lift,<span style='color:green'>Lift,<span style='color:green'>Lift,<span style='color:green'>Lift,<span style='color:green'>Lift,<span style='color:red'>Fail,<span style='color:green'>Lift,<span style='color:green'>Lift,<span style='color:red'>Fail,<span style='color:green'>Lift","<span style='color:red'>Fail,<span style='color:green'>Lift,<span style='color:green'>Lift,<span style='color:red'>Fail,<span style='color:green'>Lift,<span style='color:green'>Lift","0,0,1,1,0,0,0,0,0,1,0,1","0,0,1,1,1,1,1,0,1,1,0,1","0,1,1,0,1,1",10,20,20,"","","","","{""box1"":""5"",""box2"":""1"",""box3"":""50""}","",NA,4,"round2_outcome",3,4,2,5,1,50,NA,1,0,20,NA,NA,NA,NA,NA,NA,NA,NA,NA,NA,NA,5,1,50,NA,1,0,20,NA,NA,NA,NA,NA,NA,NA,NA,NA,NA,NA,"",NA,NA,NA,NA,NA,NA,NA,NA,2025-11-21 00:34:05
"8322.600000023842","https://psyc-201.github.io/xiang2023/exp/index1.html?PROLIFIC_PID=REDACTED&STUDY_ID=691f8ca61c6b4dcbb0aeb5f4&SESSION_ID=691fafadd44fe6899af287c0","survey-html-form",33,748112,"0.0-338.0","d2bi+/wQvkbvEZ7/YQO6AHC3JHT6Z3ZI7/2uW4MoFsYtnSUSOxR/VfOyh54RDLEoGnQZhqGSdN7N+/Gpgj5UORbdNII+2MhZOoyFO7Wg2410zavJkhvFXEqkOOsq8v6HlY79ipa++OWPTqMZDfVfS4NyQabHL3xgbkdUXJsJvCXdsFt7/wIFLQHYSiIuQWvEdaa4yHPIolr/nvQeASdni0ajZDFyO1/QYiDFm/mYC1n90ilhCLRzIV/j54ZZJTAXHGkbxf6mbNVsddUAUIJZgr1nnoqBa6cSAZy5cjVGIXJhFyhIckBXTWngMMpqMj1f39l5mwwIcLo4cAvG30lohA==","691f8ca61c6b4dcbb0aeb5f4","691fafadd44fe6899af287c0","index1","<span style='color:red'>Fail,<span style='color:red'>Fail,<span style='color:green'>Lift,<span style='color:green'>Lift,<span style='color:red'>Fail,<span style='color:red'>Fail,<span style='color:red'>Fail,<span style='color:red'>Fail,<span style='color:red'>Fail,<span style='color:green'>Lift,<span style='color:red'>Fail,<span style='color:green'>Lift","<span style='color:red'>Fail,<span style='color:red'>Fail,<span style='color:green'>Lift,<span style='color:green'>Lift,<span style='color:green'>Lift,<span style='color:green'>Lift,<span style='color:green'>Lift,<span style='color:red'>Fail,<span style='color:green'>Lift,<span style='color:green'>Lift,<span style='color:red'>Fail,<span style='color:green'>Lift","<span style='color:red'>Fail,<span style='color:green'>Lift,<span style='color:green'>Lift,<span style='color:red'>Fail,<span style='color:green'>Lift,<span style='color:green'>Lift","0,0,1,1,0,0,0,0,0,1,0,1","0,0,1,1,1,1,1,0,1,1,0,1","0,1,1,0,1,1",10,20,20,"","","","","{""box1"":""75""}","",NA,4,"round3_ready",4,4,3,NA,NA,NA,NA,NA,NA,NA,NA,NA,NA,NA,NA,NA,NA,75,75,NA,NA,NA,NA,NA,NA,NA,NA,NA,75,75,NA,NA,NA,NA,NA,NA,NA,NA,NA,"",NA,NA,NA,NA,NA,NA,NA,NA,2025-11-21 00:34:05
"18114.30000001192","https://psyc-201.github.io/xiang2023/exp/index1.html?PROLIFIC_PID=REDACTED&STUDY_ID=691f8ca61c6b4dcbb0aeb5f4&SESSION_ID=691fafadd44fe6899af287c0","survey-html-form",34,766229,"0.0-340.0-0.0","d2bi+/wQvkbvEZ7/YQO6AHC3JHT6Z3ZI7/2uW4MoFsYtnSUSOxR/VfOyh54RDLEoGnQZhqGSdN7N+/Gpgj5UORbdNII+2MhZOoyFO7Wg2410zavJkhvFXEqkOOsq8v6HlY79ipa++OWPTqMZDfVfS4NyQabHL3xgbkdUXJsJvCXdsFt7/wIFLQHYSiIuQWvEdaa4yHPIolr/nvQeASdni0ajZDFyO1/QYiDFm/mYC1n90ilhCLRzIV/j54ZZJTAXHGkbxf6mbNVsddUAUIJZgr1nnoqBa6cSAZy5cjVGIXJhFyhIckBXTWngMMpqMj1f39l5mwwIcLo4cAvG30lohA==","691f8ca61c6b4dcbb0aeb5f4","691fafadd44fe6899af287c0","index1","<span style='color:red'>Fail,<span style='color:red'>Fail,<span style='color:green'>Lift,<span style='color:green'>Lift,<span style='color:red'>Fail,<span style='color:red'>Fail,<span style='color:red'>Fail,<span style='color:red'>Fail,<span style='color:red'>Fail,<span style='color:green'>Lift,<span style='color:red'>Fail,<span style='color:green'>Lift","<span style='color:red'>Fail,<span style='color:red'>Fail,<span style='color:green'>Lift,<span style='color:green'>Lift,<span style='color:green'>Lift,<span style='color:green'>Lift,<span style='color:green'>Lift,<span style='color:red'>Fail,<span style='color:green'>Lift,<span style='color:green'>Lift,<span style='color:red'>Fail,<span style='color:green'>Lift","<span style='color:red'>Fail,<span style='color:green'>Lift,<span style='color:green'>Lift,<span style='color:red'>Fail,<span style='color:green'>Lift,<span style='color:green'>Lift","0,0,1,1,0,0,0,0,0,1,0,1","0,0,1,1,1,1,1,0,1,1,0,1","0,1,1,0,1,1",10,20,20,"","","","","{""box1"":""5"",""box2"":""1"",""box3"":""999"",""box4"":""999""}","",NA,5,"round3_fail",5,4,3,5,1,NA,NA,0,0,20,NA,NA,NA,NA,NA,NA,NA,NA,NA,NA,NA,NA,NA,NA,NA,NA,NA,NA,NA,NA,1,1,5,1,0,0,20,NA,NA,"",NA,NA,NA,NA,NA,NA,NA,NA,2025-11-21 00:34:05
"null","https://psyc-201.github.io/xiang2023/exp/index1.html?PROLIFIC_PID=REDACTED&STUDY_ID=691f8ca61c6b4dcbb0aeb5f4&SESSION_ID=691fafadd44fe6899af287c0","html-keyboard-response",35,769235,"0.0-343.0","d2bi+/wQvkbvEZ7/YQO6AHC3JHT6Z3ZI7/2uW4MoFsYtnSUSOxR/VfOyh54RDLEoGnQZhqGSdN7N+/Gpgj5UORbdNII+2MhZOoyFO7Wg2410zavJkhvFXEqkOOsq8v6HlY79ipa++OWPTqMZDfVfS4NyQabHL3xgbkdUXJsJvCXdsFt7/wIFLQHYSiIuQWvEdaa4yHPIolr/nvQeASdni0ajZDFyO1/QYiDFm/mYC1n90ilhCLRzIV/j54ZZJTAXHGkbxf6mbNVsddUAUIJZgr1nnoqBa6cSAZy5cjVGIXJhFyhIckBXTWngMMpqMj1f39l5mwwIcLo4cAvG30lohA==","691f8ca61c6b4dcbb0aeb5f4","691fafadd44fe6899af287c0","index1","<span style='color:red'>Fail,<span style='color:red'>Fail,<span style='color:green'>Lift,<span style='color:green'>Lift,<span style='color:red'>Fail,<span style='color:red'>Fail,<span style='color:red'>Fail,<span style='color:red'>Fail,<span style='color:red'>Fail,<span style='color:green'>Lift,<span style='color:red'>Fail,<span style='color:green'>Lift","<span style='color:red'>Fail,<span style='color:red'>Fail,<span style='color:green'>Lift,<span style='color:green'>Lift,<span style='color:green'>Lift,<span style='color:green'>Lift,<span style='color:green'>Lift,<span style='color:red'>Fail,<span style='color:green'>Lift,<span style='color:green'>Lift,<span style='color:red'>Fail,<span style='color:green'>Lift","<span style='color:red'>Fail,<span style='color:green'>Lift,<span style='color:green'>Lift,<span style='color:red'>Fail,<span style='color:green'>Lift,<span style='color:green'>Lift","0,0,1,1,0,0,0,0,0,1,0,1","0,0,1,1,1,1,1,0,1,1,0,1","0,1,1,0,1,1",10,20,20,"","","<p style='font-size:30px'><b> New Contest! </b></p>","null","","",NA,5,"",NA,NA,NA,NA,NA,NA,NA,NA,NA,NA,NA,NA,NA,NA,NA,NA,NA,NA,NA,NA,NA,NA,NA,NA,NA,NA,NA,NA,NA,NA,NA,NA,NA,NA,NA,NA,NA,NA,NA,"",NA,NA,NA,NA,NA,NA,NA,NA,2025-11-21 00:34:05
"21197.59999999404","https://psyc-201.github.io/xiang2023/exp/index1.html?PROLIFIC_PID=REDACTED&STUDY_ID=691f8ca61c6b4dcbb0aeb5f4&SESSION_ID=691fafadd44fe6899af287c0","survey-html-form",36,790436,"0.0-344.0","d2bi+/wQvkbvEZ7/YQO6AHC3JHT6Z3ZI7/2uW4MoFsYtnSUSOxR/VfOyh54RDLEoGnQZhqGSdN7N+/Gpgj5UORbdNII+2MhZOoyFO7Wg2410zavJkhvFXEqkOOsq8v6HlY79ipa++OWPTqMZDfVfS4NyQabHL3xgbkdUXJsJvCXdsFt7/wIFLQHYSiIuQWvEdaa4yHPIolr/nvQeASdni0ajZDFyO1/QYiDFm/mYC1n90ilhCLRzIV/j54ZZJTAXHGkbxf6mbNVsddUAUIJZgr1nnoqBa6cSAZy5cjVGIXJhFyhIckBXTWngMMpqMj1f39l5mwwIcLo4cAvG30lohA==","691f8ca61c6b4dcbb0aeb5f4","691fafadd44fe6899af287c0","index1","<span style='color:red'>Fail,<span style='color:red'>Fail,<span style='color:green'>Lift,<span style='color:green'>Lift,<span style='color:red'>Fail,<span style='color:red'>Fail,<span style='color:red'>Fail,<span style='color:red'>Fail,<span style='color:red'>Fail,<span style='color:green'>Lift,<span style='color:red'>Fail,<span style='color:green'>Lift","<span style='color:red'>Fail,<span style='color:red'>Fail,<span style='color:green'>Lift,<span style='color:green'>Lift,<span style='color:green'>Lift,<span style='color:green'>Lift,<span style='color:green'>Lift,<span style='color:red'>Fail,<span style='color:green'>Lift,<span style='color:green'>Lift,<span style='color:red'>Fail,<span style='color:green'>Lift","<span style='color:red'>Fail,<span style='color:green'>Lift,<span style='color:green'>Lift,<span style='color:red'>Fail,<span style='color:green'>Lift,<span style='color:green'>Lift","0,0,1,1,0,0,0,0,0,1,0,1","0,0,1,1,1,1,1,0,1,1,0,1","0,1,1,0,1,1",10,20,20,"","","","","{""box1"":""1"",""box2"":""10"",""box4"":""50""}","",NA,5,"round1_outcome",1,5,1,1,10,NA,50,0,1,10,1,10,NA,50,0,1,10,NA,NA,NA,NA,NA,NA,NA,NA,NA,NA,NA,NA,NA,NA,NA,NA,NA,NA,NA,NA,NA,NA,"",NA,NA,NA,NA,NA,NA,NA,NA,2025-11-21 00:34:05
"12330.899999976158","https://psyc-201.github.io/xiang2023/exp/index1.html?PROLIFIC_PID=REDACTED&STUDY_ID=691f8ca61c6b4dcbb0aeb5f4&SESSION_ID=691fafadd44fe6899af287c0","survey-html-form",37,802770,"0.0-345.0","d2bi+/wQvkbvEZ7/YQO6AHC3JHT6Z3ZI7/2uW4MoFsYtnSUSOxR/VfOyh54RDLEoGnQZhqGSdN7N+/Gpgj5UORbdNII+2MhZOoyFO7Wg2410zavJkhvFXEqkOOsq8v6HlY79ipa++OWPTqMZDfVfS4NyQabHL3xgbkdUXJsJvCXdsFt7/wIFLQHYSiIuQWvEdaa4yHPIolr/nvQeASdni0ajZDFyO1/QYiDFm/mYC1n90ilhCLRzIV/j54ZZJTAXHGkbxf6mbNVsddUAUIJZgr1nnoqBa6cSAZy5cjVGIXJhFyhIckBXTWngMMpqMj1f39l5mwwIcLo4cAvG30lohA==","691f8ca61c6b4dcbb0aeb5f4","691fafadd44fe6899af287c0","index1","<span style='color:red'>Fail,<span style='color:red'>Fail,<span style='color:green'>Lift,<span style='color:green'>Lift,<span style='color:red'>Fail,<span style='color:red'>Fail,<span style='color:red'>Fail,<span style='color:red'>Fail,<span style='color:red'>Fail,<span style='color:green'>Lift,<span style='color:red'>Fail,<span style='color:green'>Lift","<span style='color:red'>Fail,<span style='color:red'>Fail,<span style='color:green'>Lift,<span style='color:green'>Lift,<span style='color:green'>Lift,<span style='color:green'>Lift,<span style='color:green'>Lift,<span style='color:red'>Fail,<span style='color:green'>Lift,<span style='color:green'>Lift,<span style='color:red'>Fail,<span style='color:green'>Lift","<span style='color:red'>Fail,<span style='color:green'>Lift,<span style='color:green'>Lift,<span style='color:red'>Fail,<span style='color:green'>Lift,<span style='color:green'>Lift","0,0,1,1,0,0,0,0,0,1,0,1","0,0,1,1,1,1,1,0,1,1,0,1","0,1,1,0,1,1",10,20,20,"","","","","{""box1"":""25"",""box2"":""75""}","",NA,5,"round2_ready",2,5,2,NA,NA,NA,NA,NA,NA,NA,NA,NA,NA,NA,NA,NA,NA,25,75,25,75,NA,NA,NA,NA,NA,NA,NA,NA,NA,NA,NA,NA,NA,NA,NA,NA,NA,NA,"",NA,NA,NA,NA,NA,NA,NA,NA,2025-11-21 00:34:05
"14435.40000000596","https://psyc-201.github.io/xiang2023/exp/index1.html?PROLIFIC_PID=REDACTED&STUDY_ID=691f8ca61c6b4dcbb0aeb5f4&SESSION_ID=691fafadd44fe6899af287c0","survey-html-form",38,817208,"0.0-346.0","d2bi+/wQvkbvEZ7/YQO6AHC3JHT6Z3ZI7/2uW4MoFsYtnSUSOxR/VfOyh54RDLEoGnQZhqGSdN7N+/Gpgj5UORbdNII+2MhZOoyFO7Wg2410zavJkhvFXEqkOOsq8v6HlY79ipa++OWPTqMZDfVfS4NyQabHL3xgbkdUXJsJvCXdsFt7/wIFLQHYSiIuQWvEdaa4yHPIolr/nvQeASdni0ajZDFyO1/QYiDFm/mYC1n90ilhCLRzIV/j54ZZJTAXHGkbxf6mbNVsddUAUIJZgr1nnoqBa6cSAZy5cjVGIXJhFyhIckBXTWngMMpqMj1f39l5mwwIcLo4cAvG30lohA==","691f8ca61c6b4dcbb0aeb5f4","691fafadd44fe6899af287c0","index1","<span style='color:red'>Fail,<span style='color:red'>Fail,<span style='color:green'>Lift,<span style='color:green'>Lift,<span style='color:red'>Fail,<span style='color:red'>Fail,<span style='color:red'>Fail,<span style='color:red'>Fail,<span style='color:red'>Fail,<span style='color:green'>Lift,<span style='color:red'>Fail,<span style='color:green'>Lift","<span style='color:red'>Fail,<span style='color:red'>Fail,<span style='color:green'>Lift,<span style='color:green'>Lift,<span style='color:green'>Lift,<span style='color:green'>Lift,<span style='color:green'>Lift,<span style='color:red'>Fail,<span style='color:green'>Lift,<span style='color:green'>Lift,<span style='color:red'>Fail,<span style='color:green'>Lift","<span style='color:red'>Fail,<span style='color:green'>Lift,<span style='color:green'>Lift,<span style='color:red'>Fail,<span style='color:green'>Lift,<span style='color:green'>Lift","0,0,1,1,0,0,0,0,0,1,0,1","0,0,1,1,1,1,1,0,1,1,0,1","0,1,1,0,1,1",10,20,20,"","","","","{""box1"":""1"",""box2"":""10"",""box4"":""8""}","",NA,5,"round2_outcome",3,5,2,1,10,NA,8,0,1,20,NA,NA,NA,NA,NA,NA,NA,NA,NA,NA,NA,1,10,NA,8,0,1,20,NA,NA,NA,NA,NA,NA,NA,NA,NA,NA,NA,"",NA,NA,NA,NA,NA,NA,NA,NA,2025-11-21 00:34:05
"5575.199999988079","https://psyc-201.github.io/xiang2023/exp/index1.html?PROLIFIC_PID=REDACTED&STUDY_ID=691f8ca61c6b4dcbb0aeb5f4&SESSION_ID=691fafadd44fe6899af287c0","survey-html-form",39,822786,"0.0-347.0","d2bi+/wQvkbvEZ7/YQO6AHC3JHT6Z3ZI7/2uW4MoFsYtnSUSOxR/VfOyh54RDLEoGnQZhqGSdN7N+/Gpgj5UORbdNII+2MhZOoyFO7Wg2410zavJkhvFXEqkOOsq8v6HlY79ipa++OWPTqMZDfVfS4NyQabHL3xgbkdUXJsJvCXdsFt7/wIFLQHYSiIuQWvEdaa4yHPIolr/nvQeASdni0ajZDFyO1/QYiDFm/mYC1n90ilhCLRzIV/j54ZZJTAXHGkbxf6mbNVsddUAUIJZgr1nnoqBa6cSAZy5cjVGIXJhFyhIckBXTWngMMpqMj1f39l5mwwIcLo4cAvG30lohA==","691f8ca61c6b4dcbb0aeb5f4","691fafadd44fe6899af287c0","index1","<span style='color:red'>Fail,<span style='color:red'>Fail,<span style='color:green'>Lift,<span style='color:green'>Lift,<span style='color:red'>Fail,<span style='color:red'>Fail,<span style='color:red'>Fail,<span style='color:red'>Fail,<span style='color:red'>Fail,<span style='color:green'>Lift,<span style='color:red'>Fail,<span style='color:green'>Lift","<span style='color:red'>Fail,<span style='color:red'>Fail,<span style='color:green'>Lift,<span style='color:green'>Lift,<span style='color:green'>Lift,<span style='color:green'>Lift,<span style='color:green'>Lift,<span style='color:red'>Fail,<span style='color:green'>Lift,<span style='color:green'>Lift,<span style='color:red'>Fail,<span style='color:green'>Lift","<span style='color:red'>Fail,<span style='color:green'>Lift,<span style='color:green'>Lift,<span style='color:red'>Fail,<span style='color:green'>Lift,<span style='color:green'>Lift","0,0,1,1,0,0,0,0,0,1,0,1","0,0,1,1,1,1,1,0,1,1,0,1","0,1,1,0,1,1",10,20,20,"","","","","{""box1"":""100""}","",NA,5,"round3_ready",4,5,3,NA,NA,NA,NA,NA,NA,NA,NA,NA,NA,NA,NA,NA,NA,100,100,NA,NA,NA,NA,NA,NA,NA,NA,NA,100,100,NA,NA,NA,NA,NA,NA,NA,NA,NA,"",NA,NA,NA,NA,NA,NA,NA,NA,2025-11-21 00:34:05
"20939.59999999404","https://psyc-201.github.io/xiang2023/exp/index1.html?PROLIFIC_PID=REDACTED&STUDY_ID=691f8ca61c6b4dcbb0aeb5f4&SESSION_ID=691fafadd44fe6899af287c0","survey-html-form",40,843728,"0.0-348.0-0.0","d2bi+/wQvkbvEZ7/YQO6AHC3JHT6Z3ZI7/2uW4MoFsYtnSUSOxR/VfOyh54RDLEoGnQZhqGSdN7N+/Gpgj5UORbdNII+2MhZOoyFO7Wg2410zavJkhvFXEqkOOsq8v6HlY79ipa++OWPTqMZDfVfS4NyQabHL3xgbkdUXJsJvCXdsFt7/wIFLQHYSiIuQWvEdaa4yHPIolr/nvQeASdni0ajZDFyO1/QYiDFm/mYC1n90ilhCLRzIV/j54ZZJTAXHGkbxf6mbNVsddUAUIJZgr1nnoqBa6cSAZy5cjVGIXJhFyhIckBXTWngMMpqMj1f39l5mwwIcLo4cAvG30lohA==","691f8ca61c6b4dcbb0aeb5f4","691fafadd44fe6899af287c0","index1","<span style='color:red'>Fail,<span style='color:red'>Fail,<span style='color:green'>Lift,<span style='color:green'>Lift,<span style='color:red'>Fail,<span style='color:red'>Fail,<span style='color:red'>Fail,<span style='color:red'>Fail,<span style='color:red'>Fail,<span style='color:green'>Lift,<span style='color:red'>Fail,<span style='color:green'>Lift","<span style='color:red'>Fail,<span style='color:red'>Fail,<span style='color:green'>Lift,<span style='color:green'>Lift,<span style='color:green'>Lift,<span style='color:green'>Lift,<span style='color:green'>Lift,<span style='color:red'>Fail,<span style='color:green'>Lift,<span style='color:green'>Lift,<span style='color:red'>Fail,<span style='color:green'>Lift","<span style='color:red'>Fail,<span style='color:green'>Lift,<span style='color:green'>Lift,<span style='color:red'>Fail,<span style='color:green'>Lift,<span style='color:green'>Lift","0,0,1,1,0,0,0,0,0,1,0,1","0,0,1,1,1,1,1,0,1,1,0,1","0,1,1,0,1,1",10,20,20,"","","","","{""box1"":""2"",""box2"":""10"",""box3"":""100"",""box4"":""100""}","",NA,6,"round3_lift",5,5,3,2,10,100,100,1,1,20,NA,NA,NA,NA,NA,NA,NA,NA,NA,NA,NA,NA,NA,NA,NA,NA,NA,NA,NA,NA,NA,NA,2,10,1,1,20,100,100,"",NA,NA,NA,NA,NA,NA,NA,NA,2025-11-21 00:34:05
"null","https://psyc-201.github.io/xiang2023/exp/index1.html?PROLIFIC_PID=REDACTED&STUDY_ID=691f8ca61c6b4dcbb0aeb5f4&SESSION_ID=691fafadd44fe6899af287c0","html-keyboard-response",41,846744,"0.0-352.0","d2bi+/wQvkbvEZ7/YQO6AHC3JHT6Z3ZI7/2uW4MoFsYtnSUSOxR/VfOyh54RDLEoGnQZhqGSdN7N+/Gpgj5UORbdNII+2MhZOoyFO7Wg2410zavJkhvFXEqkOOsq8v6HlY79ipa++OWPTqMZDfVfS4NyQabHL3xgbkdUXJsJvCXdsFt7/wIFLQHYSiIuQWvEdaa4yHPIolr/nvQeASdni0ajZDFyO1/QYiDFm/mYC1n90ilhCLRzIV/j54ZZJTAXHGkbxf6mbNVsddUAUIJZgr1nnoqBa6cSAZy5cjVGIXJhFyhIckBXTWngMMpqMj1f39l5mwwIcLo4cAvG30lohA==","691f8ca61c6b4dcbb0aeb5f4","691fafadd44fe6899af287c0","index1","<span style='color:red'>Fail,<span style='color:red'>Fail,<span style='color:green'>Lift,<span style='color:green'>Lift,<span style='color:red'>Fail,<span style='color:red'>Fail,<span style='color:red'>Fail,<span style='color:red'>Fail,<span style='color:red'>Fail,<span style='color:green'>Lift,<span style='color:red'>Fail,<span style='color:green'>Lift","<span style='color:red'>Fail,<span style='color:red'>Fail,<span style='color:green'>Lift,<span style='color:green'>Lift,<span style='color:green'>Lift,<span style='color:green'>Lift,<span style='color:green'>Lift,<span style='color:red'>Fail,<span style='color:green'>Lift,<span style='color:green'>Lift,<span style='color:red'>Fail,<span style='color:green'>Lift","<span style='color:red'>Fail,<span style='color:green'>Lift,<span style='color:green'>Lift,<span style='color:red'>Fail,<span style='color:green'>Lift,<span style='color:green'>Lift","0,0,1,1,0,0,0,0,0,1,0,1","0,0,1,1,1,1,1,0,1,1,0,1","0,1,1,0,1,1",10,20,20,"","","<p style='font-size:30px'><b> New Contest! </b></p>","null","","",NA,6,"",NA,NA,NA,NA,NA,NA,NA,NA,NA,NA,NA,NA,NA,NA,NA,NA,NA,NA,NA,NA,NA,NA,NA,NA,NA,NA,NA,NA,NA,NA,NA,NA,NA,NA,NA,NA,NA,NA,NA,"",NA,NA,NA,NA,NA,NA,NA,NA,2025-11-21 00:34:05
"22723","https://psyc-201.github.io/xiang2023/exp/index1.html?PROLIFIC_PID=REDACTED&STUDY_ID=691f8ca61c6b4dcbb0aeb5f4&SESSION_ID=691fafadd44fe6899af287c0","survey-html-form",42,869470,"0.0-353.0","d2bi+/wQvkbvEZ7/YQO6AHC3JHT6Z3ZI7/2uW4MoFsYtnSUSOxR/VfOyh54RDLEoGnQZhqGSdN7N+/Gpgj5UORbdNII+2MhZOoyFO7Wg2410zavJkhvFXEqkOOsq8v6HlY79ipa++OWPTqMZDfVfS4NyQabHL3xgbkdUXJsJvCXdsFt7/wIFLQHYSiIuQWvEdaa4yHPIolr/nvQeASdni0ajZDFyO1/QYiDFm/mYC1n90ilhCLRzIV/j54ZZJTAXHGkbxf6mbNVsddUAUIJZgr1nnoqBa6cSAZy5cjVGIXJhFyhIckBXTWngMMpqMj1f39l5mwwIcLo4cAvG30lohA==","691f8ca61c6b4dcbb0aeb5f4","691fafadd44fe6899af287c0","index1","<span style='color:red'>Fail,<span style='color:red'>Fail,<span style='color:green'>Lift,<span style='color:green'>Lift,<span style='color:red'>Fail,<span style='color:red'>Fail,<span style='color:red'>Fail,<span style='color:red'>Fail,<span style='color:red'>Fail,<span style='color:green'>Lift,<span style='color:red'>Fail,<span style='color:green'>Lift","<span style='color:red'>Fail,<span style='color:red'>Fail,<span style='color:green'>Lift,<span style='color:green'>Lift,<span style='color:green'>Lift,<span style='color:green'>Lift,<span style='color:green'>Lift,<span style='color:red'>Fail,<span style='color:green'>Lift,<span style='color:green'>Lift,<span style='color:red'>Fail,<span style='color:green'>Lift","<span style='color:red'>Fail,<span style='color:green'>Lift,<span style='color:green'>Lift,<span style='color:red'>Fail,<span style='color:green'>Lift,<span style='color:green'>Lift","0,0,1,1,0,0,0,0,0,1,0,1","0,0,1,1,1,1,1,0,1,1,0,1","0,1,1,0,1,1",10,20,20,"","","","","{""box1"":""5"",""box2"":""10"",""box4"":""100""}","",NA,6,"round1_outcome",1,6,1,5,10,NA,100,0,1,10,5,10,NA,100,0,1,10,NA,NA,NA,NA,NA,NA,NA,NA,NA,NA,NA,NA,NA,NA,NA,NA,NA,NA,NA,NA,NA,NA,"",NA,NA,NA,NA,NA,NA,NA,NA,2025-11-21 00:34:05
"12771.5","https://psyc-201.github.io/xiang2023/exp/index1.html?PROLIFIC_PID=REDACTED&STUDY_ID=691f8ca61c6b4dcbb0aeb5f4&SESSION_ID=691fafadd44fe6899af287c0","survey-html-form",43,882244,"0.0-354.0","d2bi+/wQvkbvEZ7/YQO6AHC3JHT6Z3ZI7/2uW4MoFsYtnSUSOxR/VfOyh54RDLEoGnQZhqGSdN7N+/Gpgj5UORbdNII+2MhZOoyFO7Wg2410zavJkhvFXEqkOOsq8v6HlY79ipa++OWPTqMZDfVfS4NyQabHL3xgbkdUXJsJvCXdsFt7/wIFLQHYSiIuQWvEdaa4yHPIolr/nvQeASdni0ajZDFyO1/QYiDFm/mYC1n90ilhCLRzIV/j54ZZJTAXHGkbxf6mbNVsddUAUIJZgr1nnoqBa6cSAZy5cjVGIXJhFyhIckBXTWngMMpqMj1f39l5mwwIcLo4cAvG30lohA==","691f8ca61c6b4dcbb0aeb5f4","691fafadd44fe6899af287c0","index1","<span style='color:red'>Fail,<span style='color:red'>Fail,<span style='color:green'>Lift,<span style='color:green'>Lift,<span style='color:red'>Fail,<span style='color:red'>Fail,<span style='color:red'>Fail,<span style='color:red'>Fail,<span style='color:red'>Fail,<span style='color:green'>Lift,<span style='color:red'>Fail,<span style='color:green'>Lift","<span style='color:red'>Fail,<span style='color:red'>Fail,<span style='color:green'>Lift,<span style='color:green'>Lift,<span style='color:green'>Lift,<span style='color:green'>Lift,<span style='color:green'>Lift,<span style='color:red'>Fail,<span style='color:green'>Lift,<span style='color:green'>Lift,<span style='color:red'>Fail,<span style='color:green'>Lift","<span style='color:red'>Fail,<span style='color:green'>Lift,<span style='color:green'>Lift,<span style='color:red'>Fail,<span style='color:green'>Lift,<span style='color:green'>Lift","0,0,1,1,0,0,0,0,0,1,0,1","0,0,1,1,1,1,1,0,1,1,0,1","0,1,1,0,1,1",10,20,20,"","","","","{""box1"":""100"",""box2"":""25""}","",NA,6,"round2_ready",2,6,2,NA,NA,NA,NA,NA,NA,NA,NA,NA,NA,NA,NA,NA,NA,100,25,100,25,NA,NA,NA,NA,NA,NA,NA,NA,NA,NA,NA,NA,NA,NA,NA,NA,NA,NA,"",NA,NA,NA,NA,NA,NA,NA,NA,2025-11-21 00:34:05
"21301.5","https://psyc-201.github.io/xiang2023/exp/index1.html?PROLIFIC_PID=REDACTED&STUDY_ID=691f8ca61c6b4dcbb0aeb5f4&SESSION_ID=691fafadd44fe6899af287c0","survey-html-form",44,903548,"0.0-355.0","d2bi+/wQvkbvEZ7/YQO6AHC3JHT6Z3ZI7/2uW4MoFsYtnSUSOxR/VfOyh54RDLEoGnQZhqGSdN7N+/Gpgj5UORbdNII+2MhZOoyFO7Wg2410zavJkhvFXEqkOOsq8v6HlY79ipa++OWPTqMZDfVfS4NyQabHL3xgbkdUXJsJvCXdsFt7/wIFLQHYSiIuQWvEdaa4yHPIolr/nvQeASdni0ajZDFyO1/QYiDFm/mYC1n90ilhCLRzIV/j54ZZJTAXHGkbxf6mbNVsddUAUIJZgr1nnoqBa6cSAZy5cjVGIXJhFyhIckBXTWngMMpqMj1f39l5mwwIcLo4cAvG30lohA==","691f8ca61c6b4dcbb0aeb5f4","691fafadd44fe6899af287c0","index1","<span style='color:red'>Fail,<span style='color:red'>Fail,<span style='color:green'>Lift,<span style='color:green'>Lift,<span style='color:red'>Fail,<span style='color:red'>Fail,<span style='color:red'>Fail,<span style='color:red'>Fail,<span style='color:red'>Fail,<span style='color:green'>Lift,<span style='color:red'>Fail,<span style='color:green'>Lift","<span style='color:red'>Fail,<span style='color:red'>Fail,<span style='color:green'>Lift,<span style='color:green'>Lift,<span style='color:green'>Lift,<span style='color:green'>Lift,<span style='color:green'>Lift,<span style='color:red'>Fail,<span style='color:green'>Lift,<span style='color:green'>Lift,<span style='color:red'>Fail,<span style='color:green'>Lift","<span style='color:red'>Fail,<span style='color:green'>Lift,<span style='color:green'>Lift,<span style='color:red'>Fail,<span style='color:green'>Lift,<span style='color:green'>Lift","0,0,1,1,0,0,0,0,0,1,0,1","0,0,1,1,1,1,1,0,1,1,0,1","0,1,1,0,1,1",10,20,20,"","","","","{""box1"":""5"",""box2"":""10"",""box3"":""100"",""box4"":""100""}","",NA,6,"round2_outcome",3,6,2,5,10,100,100,1,1,20,NA,NA,NA,NA,NA,NA,NA,NA,NA,NA,NA,5,10,100,100,1,1,20,NA,NA,NA,NA,NA,NA,NA,NA,NA,NA,NA,"",NA,NA,NA,NA,NA,NA,NA,NA,2025-11-21 00:34:05
"4602","https://psyc-201.github.io/xiang2023/exp/index1.html?PROLIFIC_PID=REDACTED&STUDY_ID=691f8ca61c6b4dcbb0aeb5f4&SESSION_ID=691fafadd44fe6899af287c0","survey-html-form",45,908153,"0.0-356.0","d2bi+/wQvkbvEZ7/YQO6AHC3JHT6Z3ZI7/2uW4MoFsYtnSUSOxR/VfOyh54RDLEoGnQZhqGSdN7N+/Gpgj5UORbdNII+2MhZOoyFO7Wg2410zavJkhvFXEqkOOsq8v6HlY79ipa++OWPTqMZDfVfS4NyQabHL3xgbkdUXJsJvCXdsFt7/wIFLQHYSiIuQWvEdaa4yHPIolr/nvQeASdni0ajZDFyO1/QYiDFm/mYC1n90ilhCLRzIV/j54ZZJTAXHGkbxf6mbNVsddUAUIJZgr1nnoqBa6cSAZy5cjVGIXJhFyhIckBXTWngMMpqMj1f39l5mwwIcLo4cAvG30lohA==","691f8ca61c6b4dcbb0aeb5f4","691fafadd44fe6899af287c0","index1","<span style='color:red'>Fail,<span style='color:red'>Fail,<span style='color:green'>Lift,<span style='color:green'>Lift,<span style='color:red'>Fail,<span style='color:red'>Fail,<span style='color:red'>Fail,<span style='color:red'>Fail,<span style='color:red'>Fail,<span style='color:green'>Lift,<span style='color:red'>Fail,<span style='color:green'>Lift","<span style='color:red'>Fail,<span style='color:red'>Fail,<span style='color:green'>Lift,<span style='color:green'>Lift,<span style='color:green'>Lift,<span style='color:green'>Lift,<span style='color:green'>Lift,<span style='color:red'>Fail,<span style='color:green'>Lift,<span style='color:green'>Lift,<span style='color:red'>Fail,<span style='color:green'>Lift","<span style='color:red'>Fail,<span style='color:green'>Lift,<span style='color:green'>Lift,<span style='color:red'>Fail,<span style='color:green'>Lift,<span style='color:green'>Lift","0,0,1,1,0,0,0,0,0,1,0,1","0,0,1,1,1,1,1,0,1,1,0,1","0,1,1,0,1,1",10,20,20,"","","","","{""box1"":""100""}","",NA,6,"round3_ready",4,6,3,NA,NA,NA,NA,NA,NA,NA,NA,NA,NA,NA,NA,NA,NA,100,100,NA,NA,NA,NA,NA,NA,NA,NA,NA,100,100,NA,NA,NA,NA,NA,NA,NA,NA,NA,"",NA,NA,NA,NA,NA,NA,NA,NA,2025-11-21 00:34:05
"14852.59999999404","https://psyc-201.github.io/xiang2023/exp/index1.html?PROLIFIC_PID=REDACTED&STUDY_ID=691f8ca61c6b4dcbb0aeb5f4&SESSION_ID=691fafadd44fe6899af287c0","survey-html-form",46,923008,"0.0-357.0-0.0","d2bi+/wQvkbvEZ7/YQO6AHC3JHT6Z3ZI7/2uW4MoFsYtnSUSOxR/VfOyh54RDLEoGnQZhqGSdN7N+/Gpgj5UORbdNII+2MhZOoyFO7Wg2410zavJkhvFXEqkOOsq8v6HlY79ipa++OWPTqMZDfVfS4NyQabHL3xgbkdUXJsJvCXdsFt7/wIFLQHYSiIuQWvEdaa4yHPIolr/nvQeASdni0ajZDFyO1/QYiDFm/mYC1n90ilhCLRzIV/j54ZZJTAXHGkbxf6mbNVsddUAUIJZgr1nnoqBa6cSAZy5cjVGIXJhFyhIckBXTWngMMpqMj1f39l5mwwIcLo4cAvG30lohA==","691f8ca61c6b4dcbb0aeb5f4","691fafadd44fe6899af287c0","index1","<span style='color:red'>Fail,<span style='color:red'>Fail,<span style='color:green'>Lift,<span style='color:green'>Lift,<span style='color:red'>Fail,<span style='color:red'>Fail,<span style='color:red'>Fail,<span style='color:red'>Fail,<span style='color:red'>Fail,<span style='color:green'>Lift,<span style='color:red'>Fail,<span style='color:green'>Lift","<span style='color:red'>Fail,<span style='color:red'>Fail,<span style='color:green'>Lift,<span style='color:green'>Lift,<span style='color:green'>Lift,<span style='color:green'>Lift,<span style='color:green'>Lift,<span style='color:red'>Fail,<span style='color:green'>Lift,<span style='color:green'>Lift,<span style='color:red'>Fail,<span style='color:green'>Lift","<span style='color:red'>Fail,<span style='color:green'>Lift,<span style='color:green'>Lift,<span style='color:red'>Fail,<span style='color:green'>Lift,<span style='color:green'>Lift","0,0,1,1,0,0,0,0,0,1,0,1","0,0,1,1,1,1,1,0,1,1,0,1","0,1,1,0,1,1",10,20,20,"","","","","{""box1"":""5"",""box2"":""10"",""box3"":""100"",""box4"":""100""}","",NA,6,"round3_lift",5,6,3,5,10,100,100,1,1,20,NA,NA,NA,NA,NA,NA,NA,NA,NA,NA,NA,NA,NA,NA,NA,NA,NA,NA,NA,NA,NA,NA,5,10,1,1,20,100,100,"",NA,NA,NA,NA,NA,NA,NA,NA,2025-11-21 00:34:05
"28897.80000001192","https://psyc-201.github.io/xiang2023/exp/index1.html?PROLIFIC_PID=REDACTED&STUDY_ID=691f8ca61c6b4dcbb0aeb5f4&SESSION_ID=691fafadd44fe6899af287c0","survey-text",47,951912,"0.0-361.0","d2bi+/wQvkbvEZ7/YQO6AHC3JHT6Z3ZI7/2uW4MoFsYtnSUSOxR/VfOyh54RDLEoGnQZhqGSdN7N+/Gpgj5UORbdNII+2MhZOoyFO7Wg2410zavJkhvFXEqkOOsq8v6HlY79ipa++OWPTqMZDfVfS4NyQabHL3xgbkdUXJsJvCXdsFt7/wIFLQHYSiIuQWvEdaa4yHPIolr/nvQeASdni0ajZDFyO1/QYiDFm/mYC1n90ilhCLRzIV/j54ZZJTAXHGkbxf6mbNVsddUAUIJZgr1nnoqBa6cSAZy5cjVGIXJhFyhIckBXTWngMMpqMj1f39l5mwwIcLo4cAvG30lohA==","691f8ca61c6b4dcbb0aeb5f4","691fafadd44fe6899af287c0","index1","<span style='color:red'>Fail,<span style='color:red'>Fail,<span style='color:green'>Lift,<span style='color:green'>Lift,<span style='color:red'>Fail,<span style='color:red'>Fail,<span style='color:red'>Fail,<span style='color:red'>Fail,<span style='color:red'>Fail,<span style='color:green'>Lift,<span style='color:red'>Fail,<span style='color:green'>Lift","<span style='color:red'>Fail,<span style='color:red'>Fail,<span style='color:green'>Lift,<span style='color:green'>Lift,<span style='color:green'>Lift,<span style='color:green'>Lift,<span style='color:green'>Lift,<span style='color:red'>Fail,<span style='color:green'>Lift,<span style='color:green'>Lift,<span style='color:red'>Fail,<span style='color:green'>Lift","<span style='color:red'>Fail,<span style='color:green'>Lift,<span style='color:green'>Lift,<span style='color:red'>Fail,<span style='color:green'>Lift,<span style='color:green'>Lift","0,0,1,1,0,0,0,0,0,1,0,1","0,0,1,1,1,1,1,0,1,1,0,1","0,1,1,0,1,1",10,20,20,"","","","","{""Q0"":""guessing if they will pass or fail on lifting the box in 3 rounds""}","",NA,NA,"",NA,NA,NA,NA,NA,NA,NA,NA,NA,NA,NA,NA,NA,NA,NA,NA,NA,NA,NA,NA,NA,NA,NA,NA,NA,NA,NA,NA,NA,NA,NA,NA,NA,NA,NA,NA,NA,NA,NA,"",NA,NA,NA,NA,NA,NA,NA,NA,2025-11-21 00:34:05
"6073.800000011921","https://psyc-201.github.io/xiang2023/exp/index1.html?PROLIFIC_PID=REDACTED&STUDY_ID=691f8ca61c6b4dcbb0aeb5f4&SESSION_ID=691fafadd44fe6899af287c0","survey-text",48,957990,"0.0-362.0","d2bi+/wQvkbvEZ7/YQO6AHC3JHT6Z3ZI7/2uW4MoFsYtnSUSOxR/VfOyh54RDLEoGnQZhqGSdN7N+/Gpgj5UORbdNII+2MhZOoyFO7Wg2410zavJkhvFXEqkOOsq8v6HlY79ipa++OWPTqMZDfVfS4NyQabHL3xgbkdUXJsJvCXdsFt7/wIFLQHYSiIuQWvEdaa4yHPIolr/nvQeASdni0ajZDFyO1/QYiDFm/mYC1n90ilhCLRzIV/j54ZZJTAXHGkbxf6mbNVsddUAUIJZgr1nnoqBa6cSAZy5cjVGIXJhFyhIckBXTWngMMpqMj1f39l5mwwIcLo4cAvG30lohA==","691f8ca61c6b4dcbb0aeb5f4","691fafadd44fe6899af287c0","index1","<span style='color:red'>Fail,<span style='color:red'>Fail,<span style='color:green'>Lift,<span style='color:green'>Lift,<span style='color:red'>Fail,<span style='color:red'>Fail,<span style='color:red'>Fail,<span style='color:red'>Fail,<span style='color:red'>Fail,<span style='color:green'>Lift,<span style='color:red'>Fail,<span style='color:green'>Lift","<span style='color:red'>Fail,<span style='color:red'>Fail,<span style='color:green'>Lift,<span style='color:green'>Lift,<span style='color:green'>Lift,<span style='color:green'>Lift,<span style='color:green'>Lift,<span style='color:red'>Fail,<span style='color:green'>Lift,<span style='color:green'>Lift,<span style='color:red'>Fail,<span style='color:green'>Lift","<span style='color:red'>Fail,<span style='color:green'>Lift,<span style='color:green'>Lift,<span style='color:red'>Fail,<span style='color:green'>Lift,<span style='color:green'>Lift","0,0,1,1,0,0,0,0,0,1,0,1","0,0,1,1,1,1,1,0,1,1,0,1","0,1,1,0,1,1",10,20,20,"","","","","{""Q0"":""""}","",NA,NA,"",NA,NA,NA,NA,NA,NA,NA,NA,NA,NA,NA,NA,NA,NA,NA,NA,NA,NA,NA,NA,NA,NA,NA,NA,NA,NA,NA,NA,NA,NA,NA,NA,NA,NA,NA,NA,NA,NA,NA,"[{""event"":""fullscreenenter"",""trial"":1,""time"":13327}]",2,3,NA,100,1,1,NA,NA,2025-11-21 00:34:05
"5854.800000011921","https://psyc-201.github.io/xiang2023/exp/index1.html?PROLIFIC_PID=REDACTED&STUDY_ID=691f8ca61c6b4dcbb0aeb5f4&SESSION_ID=691fafadd44fe6899af287c0","html-button-response",49,963848,"0.0-363.0","d2bi+/wQvkbvEZ7/YQO6AHC3JHT6Z3ZI7/2uW4MoFsYtnSUSOxR/VfOyh54RDLEoGnQZhqGSdN7N+/Gpgj5UORbdNII+2MhZOoyFO7Wg2410zavJkhvFXEqkOOsq8v6HlY79ipa++OWPTqMZDfVfS4NyQabHL3xgbkdUXJsJvCXdsFt7/wIFLQHYSiIuQWvEdaa4yHPIolr/nvQeASdni0ajZDFyO1/QYiDFm/mYC1n90ilhCLRzIV/j54ZZJTAXHGkbxf6mbNVsddUAUIJZgr1nnoqBa6cSAZy5cjVGIXJhFyhIckBXTWngMMpqMj1f39l5mwwIcLo4cAvG30lohA==","691f8ca61c6b4dcbb0aeb5f4","691fafadd44fe6899af287c0","index1","<span style='color:red'>Fail,<span style='color:red'>Fail,<span style='color:green'>Lift,<span style='color:green'>Lift,<span style='color:red'>Fail,<span style='color:red'>Fail,<span style='color:red'>Fail,<span style='color:red'>Fail,<span style='color:red'>Fail,<span style='color:green'>Lift,<span style='color:red'>Fail,<span style='color:green'>Lift","<span style='color:red'>Fail,<span style='color:red'>Fail,<span style='color:green'>Lift,<span style='color:green'>Lift,<span style='color:green'>Lift,<span style='color:green'>Lift,<span style='color:green'>Lift,<span style='color:red'>Fail,<span style='color:green'>Lift,<span style='color:green'>Lift,<span style='color:red'>Fail,<span style='color:green'>Lift","<span style='color:red'>Fail,<span style='color:green'>Lift,<span style='color:green'>Lift,<span style='color:red'>Fail,<span style='color:green'>Lift,<span style='color:green'>Lift","0,0,1,1,0,0,0,0,0,1,0,1","0,0,1,1,1,1,1,0,1,1,0,1","0,1,1,0,1,1",10,20,20,"","","<p> We randomly picked <b>Contest 2, Round 3</b> to calculate your bonus. </p><p> The outcome of Contestant C and D on that round is <span style='color:green'>Lift</span>. </p><p> The probability you entered was 100. </p><p><b> You won a bonus of $1.00!</b></p><p> IMPORTANT: Please click 'Next' to complete the game. </p>","","","",0,NA,"",NA,NA,NA,NA,NA,NA,NA,NA,NA,NA,NA,NA,NA,NA,NA,NA,NA,NA,NA,NA,NA,NA,NA,NA,NA,NA,NA,NA,NA,NA,NA,NA,NA,NA,NA,NA,NA,NA,NA,"",NA,NA,NA,NA,NA,NA,2,1,2025-11-21 00:34:05
