"rt","url","trial_type","trial_index","time_elapsed","internal_node_id","encryptedProlificId","studyId","sessionId","expIndex","round1_outcomes","round2_outcomes","round3_outcomes","round1_o","round2_o","round3_o","round1_reward","round2_reward","round3_reward","success","view_history","stimulus","key_press","responses","question_order","j","Stage","stage","contest","round","strength_a","strength_b","effort_a","effort_b","outcome_a","outcome_b","reward","r1_strength_a","r1_strength_b","r1_effort_a","r1_effort_b","r1_outcome_a","r1_outcome_b","r1_reward","probability_a","probability_b","r2_prob_a","r2_prob_b","r2_strength_a","r2_strength_b","r2_effort_a","r2_effort_b","r2_outcome_a","r2_outcome_b","r2_reward","r3_prob_a","r3_prob_b","r3_strength_a","r3_strength_b","r3_effort_a","r3_effort_b","r3_outcome_a","r3_outcome_b","r3_reward","attention_check","count","already","screen","pick_contest","pick_round","pick_side","trial_probability","trial_outcome","bonus","button_pressed","attention_sum","attention","datapipe_meta.attributes.date_modified"
"4494.79999999702","https://psyc-201.github.io/xiang2023/exp/index1.html?PROLIFIC_PID=REDACTED&STUDY_ID=691f8ca61c6b4dcbb0aeb5f4&SESSION_ID=691fc170bcce2eb9e29d131f","external-html",0,4710,"0.0-0.0","YlX2xc5lL70X025cEs8SbPS9OYc2z80VY1LqwAumNltUCRzK/vKx0IZyA266//lfnA8kXnenoN8N+MetH8RDLb0lRHfBbcGcp+nCv2IaWxOsb48x+1yO+bBgqcIHGBaBaM1gQm+WCJ1KbsSC7O7Vl/g7ET0m4hs/JUQvNDIyxXPasQvQLSa/DRq/KW9r3IiLjHyYtZu8b14bknyv7nF7z41f82NxAloZ2RHDVkvvjuj8R+6FI4zrL90dGyYexuKvHCyboKMBP5zjQxWfrewaAQMl/FrGCI4LGVgNynWAjs3YnDSOqa7jLsSZXgqSmiOCPdtcUpztlmVDKlJqCZhr5Q==","691f8ca61c6b4dcbb0aeb5f4","691fc170bcce2eb9e29d131f","index1","<span style='color:red'>Fail,<span style='color:red'>Fail,<span style='color:green'>Lift,<span style='color:green'>Lift,<span style='color:red'>Fail,<span style='color:red'>Fail,<span style='color:red'>Fail,<span style='color:red'>Fail,<span style='color:green'>Lift,<span style='color:red'>Fail,<span style='color:red'>Fail,<span style='color:green'>Lift","<span style='color:red'>Fail,<span style='color:red'>Fail,<span style='color:green'>Lift,<span style='color:green'>Lift,<span style='color:green'>Lift,<span style='color:green'>Lift,<span style='color:red'>Fail,<span style='color:green'>Lift,<span style='color:green'>Lift,<span style='color:green'>Lift,<span style='color:red'>Fail,<span style='color:green'>Lift","<span style='color:red'>Fail,<span style='color:green'>Lift,<span style='color:green'>Lift,<span style='color:red'>Fail,<span style='color:green'>Lift,<span style='color:green'>Lift","0,0,1,1,0,0,0,0,1,0,0,1","0,0,1,1,1,1,0,1,1,1,0,1","0,1,1,0,1,1",10,20,20,"","","","","","",NA,"",NA,NA,NA,NA,NA,NA,NA,NA,NA,NA,NA,NA,NA,NA,NA,NA,NA,NA,NA,NA,NA,NA,NA,NA,NA,NA,NA,NA,NA,NA,NA,NA,NA,NA,NA,NA,NA,NA,NA,NA,"",NA,NA,NA,NA,NA,NA,NA,NA,NA,2025-11-21 01:54:25
"","https://psyc-201.github.io/xiang2023/exp/index1.html?PROLIFIC_PID=REDACTED&STUDY_ID=691f8ca61c6b4dcbb0aeb5f4&SESSION_ID=691fc170bcce2eb9e29d131f","fullscreen",1,7998,"0.0-1.0","YlX2xc5lL70X025cEs8SbPS9OYc2z80VY1LqwAumNltUCRzK/vKx0IZyA266//lfnA8kXnenoN8N+MetH8RDLb0lRHfBbcGcp+nCv2IaWxOsb48x+1yO+bBgqcIHGBaBaM1gQm+WCJ1KbsSC7O7Vl/g7ET0m4hs/JUQvNDIyxXPasQvQLSa/DRq/KW9r3IiLjHyYtZu8b14bknyv7nF7z41f82NxAloZ2RHDVkvvjuj8R+6FI4zrL90dGyYexuKvHCyboKMBP5zjQxWfrewaAQMl/FrGCI4LGVgNynWAjs3YnDSOqa7jLsSZXgqSmiOCPdtcUpztlmVDKlJqCZhr5Q==","691f8ca61c6b4dcbb0aeb5f4","691fc170bcce2eb9e29d131f","index1","<span style='color:red'>Fail,<span style='color:red'>Fail,<span style='color:green'>Lift,<span style='color:green'>Lift,<span style='color:red'>Fail,<span style='color:red'>Fail,<span style='color:red'>Fail,<span style='color:red'>Fail,<span style='color:green'>Lift,<span style='color:red'>Fail,<span style='color:red'>Fail,<span style='color:green'>Lift","<span style='color:red'>Fail,<span style='color:red'>Fail,<span style='color:green'>Lift,<span style='color:green'>Lift,<span style='color:green'>Lift,<span style='color:green'>Lift,<span style='color:red'>Fail,<span style='color:green'>Lift,<span style='color:green'>Lift,<span style='color:green'>Lift,<span style='color:red'>Fail,<span style='color:green'>Lift","<span style='color:red'>Fail,<span style='color:green'>Lift,<span style='color:green'>Lift,<span style='color:red'>Fail,<span style='color:green'>Lift,<span style='color:green'>Lift","0,0,1,1,0,0,0,0,1,0,0,1","0,0,1,1,1,1,0,1,1,1,0,1","0,1,1,0,1,1",10,20,20,"true","","","","","",NA,"",NA,NA,NA,NA,NA,NA,NA,NA,NA,NA,NA,NA,NA,NA,NA,NA,NA,NA,NA,NA,NA,NA,NA,NA,NA,NA,NA,NA,NA,NA,NA,NA,NA,NA,NA,NA,NA,NA,NA,NA,"",NA,NA,NA,NA,NA,NA,NA,NA,NA,2025-11-21 01:54:25
"134306.5","https://psyc-201.github.io/xiang2023/exp/index1.html?PROLIFIC_PID=REDACTED&STUDY_ID=691f8ca61c6b4dcbb0aeb5f4&SESSION_ID=691fc170bcce2eb9e29d131f","instructions",2,142306,"0.0-2.0","YlX2xc5lL70X025cEs8SbPS9OYc2z80VY1LqwAumNltUCRzK/vKx0IZyA266//lfnA8kXnenoN8N+MetH8RDLb0lRHfBbcGcp+nCv2IaWxOsb48x+1yO+bBgqcIHGBaBaM1gQm+WCJ1KbsSC7O7Vl/g7ET0m4hs/JUQvNDIyxXPasQvQLSa/DRq/KW9r3IiLjHyYtZu8b14bknyv7nF7z41f82NxAloZ2RHDVkvvjuj8R+6FI4zrL90dGyYexuKvHCyboKMBP5zjQxWfrewaAQMl/FrGCI4LGVgNynWAjs3YnDSOqa7jLsSZXgqSmiOCPdtcUpztlmVDKlJqCZhr5Q==","691f8ca61c6b4dcbb0aeb5f4","691fc170bcce2eb9e29d131f","index1","<span style='color:red'>Fail,<span style='color:red'>Fail,<span style='color:green'>Lift,<span style='color:green'>Lift,<span style='color:red'>Fail,<span style='color:red'>Fail,<span style='color:red'>Fail,<span style='color:red'>Fail,<span style='color:green'>Lift,<span style='color:red'>Fail,<span style='color:red'>Fail,<span style='color:green'>Lift","<span style='color:red'>Fail,<span style='color:red'>Fail,<span style='color:green'>Lift,<span style='color:green'>Lift,<span style='color:green'>Lift,<span style='color:green'>Lift,<span style='color:red'>Fail,<span style='color:green'>Lift,<span style='color:green'>Lift,<span style='color:green'>Lift,<span style='color:red'>Fail,<span style='color:green'>Lift","<span style='color:red'>Fail,<span style='color:green'>Lift,<span style='color:green'>Lift,<span style='color:red'>Fail,<span style='color:green'>Lift,<span style='color:green'>Lift","0,0,1,1,0,0,0,0,1,0,0,1","0,0,1,1,1,1,0,1,1,1,0,1","0,1,1,0,1,1",10,20,20,"","[{""page_index"":0,""viewing_time"":38313.60000000894},{""page_index"":1,""viewing_time"":15911.79999999702},{""page_index"":2,""viewing_time"":24919.5},{""page_index"":3,""viewing_time"":24783.70000000298},{""page_index"":4,""viewing_time"":10343.89999999106},{""page_index"":5,""viewing_time"":9608.20000000298},{""page_index"":6,""viewing_time"":10424.20000000298}]","","","","",NA,"",NA,NA,NA,NA,NA,NA,NA,NA,NA,NA,NA,NA,NA,NA,NA,NA,NA,NA,NA,NA,NA,NA,NA,NA,NA,NA,NA,NA,NA,NA,NA,NA,NA,NA,NA,NA,NA,NA,NA,NA,"",NA,NA,NA,NA,NA,NA,NA,NA,NA,2025-11-21 01:54:25
"null","https://psyc-201.github.io/xiang2023/exp/index1.html?PROLIFIC_PID=REDACTED&STUDY_ID=691f8ca61c6b4dcbb0aeb5f4&SESSION_ID=691fc170bcce2eb9e29d131f","html-keyboard-response",3,143308,"0.0-3.0","YlX2xc5lL70X025cEs8SbPS9OYc2z80VY1LqwAumNltUCRzK/vKx0IZyA266//lfnA8kXnenoN8N+MetH8RDLb0lRHfBbcGcp+nCv2IaWxOsb48x+1yO+bBgqcIHGBaBaM1gQm+WCJ1KbsSC7O7Vl/g7ET0m4hs/JUQvNDIyxXPasQvQLSa/DRq/KW9r3IiLjHyYtZu8b14bknyv7nF7z41f82NxAloZ2RHDVkvvjuj8R+6FI4zrL90dGyYexuKvHCyboKMBP5zjQxWfrewaAQMl/FrGCI4LGVgNynWAjs3YnDSOqa7jLsSZXgqSmiOCPdtcUpztlmVDKlJqCZhr5Q==","691f8ca61c6b4dcbb0aeb5f4","691fc170bcce2eb9e29d131f","index1","<span style='color:red'>Fail,<span style='color:red'>Fail,<span style='color:green'>Lift,<span style='color:green'>Lift,<span style='color:red'>Fail,<span style='color:red'>Fail,<span style='color:red'>Fail,<span style='color:red'>Fail,<span style='color:green'>Lift,<span style='color:red'>Fail,<span style='color:red'>Fail,<span style='color:green'>Lift","<span style='color:red'>Fail,<span style='color:red'>Fail,<span style='color:green'>Lift,<span style='color:green'>Lift,<span style='color:green'>Lift,<span style='color:green'>Lift,<span style='color:red'>Fail,<span style='color:green'>Lift,<span style='color:green'>Lift,<span style='color:green'>Lift,<span style='color:red'>Fail,<span style='color:green'>Lift","<span style='color:red'>Fail,<span style='color:green'>Lift,<span style='color:green'>Lift,<span style='color:red'>Fail,<span style='color:green'>Lift,<span style='color:green'>Lift","0,0,1,1,0,0,0,0,1,0,0,1","0,0,1,1,1,1,0,1,1,1,0,1","0,1,1,0,1,1",10,20,20,"",""," ","null","","",NA,"",NA,NA,NA,NA,NA,NA,NA,NA,NA,NA,NA,NA,NA,NA,NA,NA,NA,NA,NA,NA,NA,NA,NA,NA,NA,NA,NA,NA,NA,NA,NA,NA,NA,NA,NA,NA,NA,NA,NA,NA,"",NA,NA,NA,NA,NA,NA,NA,NA,NA,2025-11-21 01:54:25
"128815.40000000596","https://psyc-201.github.io/xiang2023/exp/index1.html?PROLIFIC_PID=REDACTED&STUDY_ID=691f8ca61c6b4dcbb0aeb5f4&SESSION_ID=691fc170bcce2eb9e29d131f","survey-multi-choice",4,272129,"0.0-4.0","YlX2xc5lL70X025cEs8SbPS9OYc2z80VY1LqwAumNltUCRzK/vKx0IZyA266//lfnA8kXnenoN8N+MetH8RDLb0lRHfBbcGcp+nCv2IaWxOsb48x+1yO+bBgqcIHGBaBaM1gQm+WCJ1KbsSC7O7Vl/g7ET0m4hs/JUQvNDIyxXPasQvQLSa/DRq/KW9r3IiLjHyYtZu8b14bknyv7nF7z41f82NxAloZ2RHDVkvvjuj8R+6FI4zrL90dGyYexuKvHCyboKMBP5zjQxWfrewaAQMl/FrGCI4LGVgNynWAjs3YnDSOqa7jLsSZXgqSmiOCPdtcUpztlmVDKlJqCZhr5Q==","691f8ca61c6b4dcbb0aeb5f4","691fc170bcce2eb9e29d131f","index1","<span style='color:red'>Fail,<span style='color:red'>Fail,<span style='color:green'>Lift,<span style='color:green'>Lift,<span style='color:red'>Fail,<span style='color:red'>Fail,<span style='color:red'>Fail,<span style='color:red'>Fail,<span style='color:green'>Lift,<span style='color:red'>Fail,<span style='color:red'>Fail,<span style='color:green'>Lift","<span style='color:red'>Fail,<span style='color:red'>Fail,<span style='color:green'>Lift,<span style='color:green'>Lift,<span style='color:green'>Lift,<span style='color:green'>Lift,<span style='color:red'>Fail,<span style='color:green'>Lift,<span style='color:green'>Lift,<span style='color:green'>Lift,<span style='color:red'>Fail,<span style='color:green'>Lift","<span style='color:red'>Fail,<span style='color:green'>Lift,<span style='color:green'>Lift,<span style='color:red'>Fail,<span style='color:green'>Lift,<span style='color:green'>Lift","0,0,1,1,0,0,0,0,1,0,0,1","0,0,1,1,1,1,0,1,1,1,0,1","0,1,1,0,1,1",10,20,20,"","","","","{""Q0"":""It consists of multiple contests, each contest with three rounds."",""Q1"":""When a new contest begins."",""Q2"":""The box weight always stays the same (equivalent to strength of 5)."",""Q3"":""Each will get $20."",""Q4"":""How close my guesses are to the actual outcome.""}","[0,1,2,3,4]",NA,"",NA,NA,NA,NA,NA,NA,NA,NA,NA,NA,NA,NA,NA,NA,NA,NA,NA,NA,NA,NA,NA,NA,NA,NA,NA,NA,NA,NA,NA,NA,NA,NA,NA,NA,NA,NA,NA,NA,NA,NA,"",NA,NA,NA,NA,NA,NA,NA,NA,NA,2025-11-21 01:54:25
"23653.90000000596","https://psyc-201.github.io/xiang2023/exp/index1.html?PROLIFIC_PID=REDACTED&STUDY_ID=691f8ca61c6b4dcbb0aeb5f4&SESSION_ID=691fc170bcce2eb9e29d131f","instructions",5,295791,"0.0-305.0","YlX2xc5lL70X025cEs8SbPS9OYc2z80VY1LqwAumNltUCRzK/vKx0IZyA266//lfnA8kXnenoN8N+MetH8RDLb0lRHfBbcGcp+nCv2IaWxOsb48x+1yO+bBgqcIHGBaBaM1gQm+WCJ1KbsSC7O7Vl/g7ET0m4hs/JUQvNDIyxXPasQvQLSa/DRq/KW9r3IiLjHyYtZu8b14bknyv7nF7z41f82NxAloZ2RHDVkvvjuj8R+6FI4zrL90dGyYexuKvHCyboKMBP5zjQxWfrewaAQMl/FrGCI4LGVgNynWAjs3YnDSOqa7jLsSZXgqSmiOCPdtcUpztlmVDKlJqCZhr5Q==","691f8ca61c6b4dcbb0aeb5f4","691fc170bcce2eb9e29d131f","index1","<span style='color:red'>Fail,<span style='color:red'>Fail,<span style='color:green'>Lift,<span style='color:green'>Lift,<span style='color:red'>Fail,<span style='color:red'>Fail,<span style='color:red'>Fail,<span style='color:red'>Fail,<span style='color:green'>Lift,<span style='color:red'>Fail,<span style='color:red'>Fail,<span style='color:green'>Lift","<span style='color:red'>Fail,<span style='color:red'>Fail,<span style='color:green'>Lift,<span style='color:green'>Lift,<span style='color:green'>Lift,<span style='color:green'>Lift,<span style='color:red'>Fail,<span style='color:green'>Lift,<span style='color:green'>Lift,<span style='color:green'>Lift,<span style='color:red'>Fail,<span style='color:green'>Lift","<span style='color:red'>Fail,<span style='color:green'>Lift,<span style='color:green'>Lift,<span style='color:red'>Fail,<span style='color:green'>Lift,<span style='color:green'>Lift","0,0,1,1,0,0,0,0,1,0,0,1","0,0,1,1,1,1,0,1,1,1,0,1","0,1,1,0,1,1",10,20,20,"","[{""page_index"":0,""viewing_time"":12829.70000000298},{""page_index"":1,""viewing_time"":10823.70000000298}]","","","","",NA,"",NA,NA,NA,NA,NA,NA,NA,NA,NA,NA,NA,NA,NA,NA,NA,NA,NA,NA,NA,NA,NA,NA,NA,NA,NA,NA,NA,NA,NA,NA,NA,NA,NA,NA,NA,NA,NA,NA,NA,NA,"",NA,NA,NA,NA,NA,NA,NA,NA,NA,2025-11-21 01:54:25
"null","https://psyc-201.github.io/xiang2023/exp/index1.html?PROLIFIC_PID=REDACTED&STUDY_ID=691f8ca61c6b4dcbb0aeb5f4&SESSION_ID=691fc170bcce2eb9e29d131f","html-keyboard-response",6,296793,"0.0-306.0","YlX2xc5lL70X025cEs8SbPS9OYc2z80VY1LqwAumNltUCRzK/vKx0IZyA266//lfnA8kXnenoN8N+MetH8RDLb0lRHfBbcGcp+nCv2IaWxOsb48x+1yO+bBgqcIHGBaBaM1gQm+WCJ1KbsSC7O7Vl/g7ET0m4hs/JUQvNDIyxXPasQvQLSa/DRq/KW9r3IiLjHyYtZu8b14bknyv7nF7z41f82NxAloZ2RHDVkvvjuj8R+6FI4zrL90dGyYexuKvHCyboKMBP5zjQxWfrewaAQMl/FrGCI4LGVgNynWAjs3YnDSOqa7jLsSZXgqSmiOCPdtcUpztlmVDKlJqCZhr5Q==","691f8ca61c6b4dcbb0aeb5f4","691fc170bcce2eb9e29d131f","index1","<span style='color:red'>Fail,<span style='color:red'>Fail,<span style='color:green'>Lift,<span style='color:green'>Lift,<span style='color:red'>Fail,<span style='color:red'>Fail,<span style='color:red'>Fail,<span style='color:red'>Fail,<span style='color:green'>Lift,<span style='color:red'>Fail,<span style='color:red'>Fail,<span style='color:green'>Lift","<span style='color:red'>Fail,<span style='color:red'>Fail,<span style='color:green'>Lift,<span style='color:green'>Lift,<span style='color:green'>Lift,<span style='color:green'>Lift,<span style='color:red'>Fail,<span style='color:green'>Lift,<span style='color:green'>Lift,<span style='color:green'>Lift,<span style='color:red'>Fail,<span style='color:green'>Lift","<span style='color:red'>Fail,<span style='color:green'>Lift,<span style='color:green'>Lift,<span style='color:red'>Fail,<span style='color:green'>Lift,<span style='color:green'>Lift","0,0,1,1,0,0,0,0,1,0,0,1","0,0,1,1,1,1,0,1,1,1,0,1","0,1,1,0,1,1",10,20,20,"",""," ","null","","",1,"",NA,NA,NA,NA,NA,NA,NA,NA,NA,NA,NA,NA,NA,NA,NA,NA,NA,NA,NA,NA,NA,NA,NA,NA,NA,NA,NA,NA,NA,NA,NA,NA,NA,NA,NA,NA,NA,NA,NA,NA,"",NA,NA,NA,NA,NA,NA,NA,NA,NA,2025-11-21 01:54:25
"null","https://psyc-201.github.io/xiang2023/exp/index1.html?PROLIFIC_PID=REDACTED&STUDY_ID=691f8ca61c6b4dcbb0aeb5f4&SESSION_ID=691fc170bcce2eb9e29d131f","html-keyboard-response",7,299799,"0.0-307.0","YlX2xc5lL70X025cEs8SbPS9OYc2z80VY1LqwAumNltUCRzK/vKx0IZyA266//lfnA8kXnenoN8N+MetH8RDLb0lRHfBbcGcp+nCv2IaWxOsb48x+1yO+bBgqcIHGBaBaM1gQm+WCJ1KbsSC7O7Vl/g7ET0m4hs/JUQvNDIyxXPasQvQLSa/DRq/KW9r3IiLjHyYtZu8b14bknyv7nF7z41f82NxAloZ2RHDVkvvjuj8R+6FI4zrL90dGyYexuKvHCyboKMBP5zjQxWfrewaAQMl/FrGCI4LGVgNynWAjs3YnDSOqa7jLsSZXgqSmiOCPdtcUpztlmVDKlJqCZhr5Q==","691f8ca61c6b4dcbb0aeb5f4","691fc170bcce2eb9e29d131f","index1","<span style='color:red'>Fail,<span style='color:red'>Fail,<span style='color:green'>Lift,<span style='color:green'>Lift,<span style='color:red'>Fail,<span style='color:red'>Fail,<span style='color:red'>Fail,<span style='color:red'>Fail,<span style='color:green'>Lift,<span style='color:red'>Fail,<span style='color:red'>Fail,<span style='color:green'>Lift","<span style='color:red'>Fail,<span style='color:red'>Fail,<span style='color:green'>Lift,<span style='color:green'>Lift,<span style='color:green'>Lift,<span style='color:green'>Lift,<span style='color:red'>Fail,<span style='color:green'>Lift,<span style='color:green'>Lift,<span style='color:green'>Lift,<span style='color:red'>Fail,<span style='color:green'>Lift","<span style='color:red'>Fail,<span style='color:green'>Lift,<span style='color:green'>Lift,<span style='color:red'>Fail,<span style='color:green'>Lift,<span style='color:green'>Lift","0,0,1,1,0,0,0,0,1,0,0,1","0,0,1,1,1,1,0,1,1,1,0,1","0,1,1,0,1,1",10,20,20,"","","<p style='font-size:30px'><b> New Contest! </b></p>","null","","",1,"",NA,NA,NA,NA,NA,NA,NA,NA,NA,NA,NA,NA,NA,NA,NA,NA,NA,NA,NA,NA,NA,NA,NA,NA,NA,NA,NA,NA,NA,NA,NA,NA,NA,NA,NA,NA,NA,NA,NA,NA,"",NA,NA,NA,NA,NA,NA,NA,NA,NA,2025-11-21 01:54:25
"89034.59999999404","https://psyc-201.github.io/xiang2023/exp/index1.html?PROLIFIC_PID=REDACTED&STUDY_ID=691f8ca61c6b4dcbb0aeb5f4&SESSION_ID=691fc170bcce2eb9e29d131f","survey-html-form",8,388846,"0.0-308.0","YlX2xc5lL70X025cEs8SbPS9OYc2z80VY1LqwAumNltUCRzK/vKx0IZyA266//lfnA8kXnenoN8N+MetH8RDLb0lRHfBbcGcp+nCv2IaWxOsb48x+1yO+bBgqcIHGBaBaM1gQm+WCJ1KbsSC7O7Vl/g7ET0m4hs/JUQvNDIyxXPasQvQLSa/DRq/KW9r3IiLjHyYtZu8b14bknyv7nF7z41f82NxAloZ2RHDVkvvjuj8R+6FI4zrL90dGyYexuKvHCyboKMBP5zjQxWfrewaAQMl/FrGCI4LGVgNynWAjs3YnDSOqa7jLsSZXgqSmiOCPdtcUpztlmVDKlJqCZhr5Q==","691f8ca61c6b4dcbb0aeb5f4","691fc170bcce2eb9e29d131f","index1","<span style='color:red'>Fail,<span style='color:red'>Fail,<span style='color:green'>Lift,<span style='color:green'>Lift,<span style='color:red'>Fail,<span style='color:red'>Fail,<span style='color:red'>Fail,<span style='color:red'>Fail,<span style='color:green'>Lift,<span style='color:red'>Fail,<span style='color:red'>Fail,<span style='color:green'>Lift","<span style='color:red'>Fail,<span style='color:red'>Fail,<span style='color:green'>Lift,<span style='color:green'>Lift,<span style='color:green'>Lift,<span style='color:green'>Lift,<span style='color:red'>Fail,<span style='color:green'>Lift,<span style='color:green'>Lift,<span style='color:green'>Lift,<span style='color:red'>Fail,<span style='color:green'>Lift","<span style='color:red'>Fail,<span style='color:green'>Lift,<span style='color:green'>Lift,<span style='color:red'>Fail,<span style='color:green'>Lift,<span style='color:green'>Lift","0,0,1,1,0,0,0,0,1,0,0,1","0,0,1,1,1,1,0,1,1,1,0,1","0,1,1,0,1,1",10,20,20,"","","","","{""box1"":""4"",""box2"":""6"",""box4"":""80""}","",1,"round1_outcome",1,1,1,4,6,NA,80,0,1,10,4,6,NA,80,0,1,10,NA,NA,NA,NA,NA,NA,NA,NA,NA,NA,NA,NA,NA,NA,NA,NA,NA,NA,NA,NA,NA,NA,NA,"",NA,NA,NA,NA,NA,NA,NA,NA,NA,2025-11-21 01:54:25
"51476.70000000298","https://psyc-201.github.io/xiang2023/exp/index1.html?PROLIFIC_PID=REDACTED&STUDY_ID=691f8ca61c6b4dcbb0aeb5f4&SESSION_ID=691fc170bcce2eb9e29d131f","survey-html-form",9,440328,"0.0-309.0","YlX2xc5lL70X025cEs8SbPS9OYc2z80VY1LqwAumNltUCRzK/vKx0IZyA266//lfnA8kXnenoN8N+MetH8RDLb0lRHfBbcGcp+nCv2IaWxOsb48x+1yO+bBgqcIHGBaBaM1gQm+WCJ1KbsSC7O7Vl/g7ET0m4hs/JUQvNDIyxXPasQvQLSa/DRq/KW9r3IiLjHyYtZu8b14bknyv7nF7z41f82NxAloZ2RHDVkvvjuj8R+6FI4zrL90dGyYexuKvHCyboKMBP5zjQxWfrewaAQMl/FrGCI4LGVgNynWAjs3YnDSOqa7jLsSZXgqSmiOCPdtcUpztlmVDKlJqCZhr5Q==","691f8ca61c6b4dcbb0aeb5f4","691fc170bcce2eb9e29d131f","index1","<span style='color:red'>Fail,<span style='color:red'>Fail,<span style='color:green'>Lift,<span style='color:green'>Lift,<span style='color:red'>Fail,<span style='color:red'>Fail,<span style='color:red'>Fail,<span style='color:red'>Fail,<span style='color:green'>Lift,<span style='color:red'>Fail,<span style='color:red'>Fail,<span style='color:green'>Lift","<span style='color:red'>Fail,<span style='color:red'>Fail,<span style='color:green'>Lift,<span style='color:green'>Lift,<span style='color:green'>Lift,<span style='color:green'>Lift,<span style='color:red'>Fail,<span style='color:green'>Lift,<span style='color:green'>Lift,<span style='color:green'>Lift,<span style='color:red'>Fail,<span style='color:green'>Lift","<span style='color:red'>Fail,<span style='color:green'>Lift,<span style='color:green'>Lift,<span style='color:red'>Fail,<span style='color:green'>Lift,<span style='color:green'>Lift","0,0,1,1,0,0,0,0,1,0,0,1","0,0,1,1,1,1,0,1,1,1,0,1","0,1,1,0,1,1",10,20,20,"","","","","{""box1"":""40"",""box2"":""95""}","",1,"round2_ready",2,1,2,NA,NA,NA,NA,NA,NA,NA,NA,NA,NA,NA,NA,NA,NA,40,95,40,95,NA,NA,NA,NA,NA,NA,NA,NA,NA,NA,NA,NA,NA,NA,NA,NA,NA,NA,NA,"",NA,NA,NA,NA,NA,NA,NA,NA,NA,2025-11-21 01:54:25
"54251.10000000894","https://psyc-201.github.io/xiang2023/exp/index1.html?PROLIFIC_PID=REDACTED&STUDY_ID=691f8ca61c6b4dcbb0aeb5f4&SESSION_ID=691fc170bcce2eb9e29d131f","survey-html-form",10,494583,"0.0-310.0","YlX2xc5lL70X025cEs8SbPS9OYc2z80VY1LqwAumNltUCRzK/vKx0IZyA266//lfnA8kXnenoN8N+MetH8RDLb0lRHfBbcGcp+nCv2IaWxOsb48x+1yO+bBgqcIHGBaBaM1gQm+WCJ1KbsSC7O7Vl/g7ET0m4hs/JUQvNDIyxXPasQvQLSa/DRq/KW9r3IiLjHyYtZu8b14bknyv7nF7z41f82NxAloZ2RHDVkvvjuj8R+6FI4zrL90dGyYexuKvHCyboKMBP5zjQxWfrewaAQMl/FrGCI4LGVgNynWAjs3YnDSOqa7jLsSZXgqSmiOCPdtcUpztlmVDKlJqCZhr5Q==","691f8ca61c6b4dcbb0aeb5f4","691fc170bcce2eb9e29d131f","index1","<span style='color:red'>Fail,<span style='color:red'>Fail,<span style='color:green'>Lift,<span style='color:green'>Lift,<span style='color:red'>Fail,<span style='color:red'>Fail,<span style='color:red'>Fail,<span style='color:red'>Fail,<span style='color:green'>Lift,<span style='color:red'>Fail,<span style='color:red'>Fail,<span style='color:green'>Lift","<span style='color:red'>Fail,<span style='color:red'>Fail,<span style='color:green'>Lift,<span style='color:green'>Lift,<span style='color:green'>Lift,<span style='color:green'>Lift,<span style='color:red'>Fail,<span style='color:green'>Lift,<span style='color:green'>Lift,<span style='color:green'>Lift,<span style='color:red'>Fail,<span style='color:green'>Lift","<span style='color:red'>Fail,<span style='color:green'>Lift,<span style='color:green'>Lift,<span style='color:red'>Fail,<span style='color:green'>Lift,<span style='color:green'>Lift","0,0,1,1,0,0,0,0,1,0,0,1","0,0,1,1,1,1,0,1,1,1,0,1","0,1,1,0,1,1",10,20,20,"","","","","{""box1"":""4"",""box2"":""6"",""box4"":""90""}","",1,"round2_outcome",3,1,2,4,6,NA,90,0,1,20,NA,NA,NA,NA,NA,NA,NA,NA,NA,NA,NA,4,6,NA,90,0,1,20,NA,NA,NA,NA,NA,NA,NA,NA,NA,NA,NA,NA,"",NA,NA,NA,NA,NA,NA,NA,NA,NA,2025-11-21 01:54:25
"24354.80000001192","https://psyc-201.github.io/xiang2023/exp/index1.html?PROLIFIC_PID=REDACTED&STUDY_ID=691f8ca61c6b4dcbb0aeb5f4&SESSION_ID=691fc170bcce2eb9e29d131f","survey-html-form",11,518943,"0.0-311.0","YlX2xc5lL70X025cEs8SbPS9OYc2z80VY1LqwAumNltUCRzK/vKx0IZyA266//lfnA8kXnenoN8N+MetH8RDLb0lRHfBbcGcp+nCv2IaWxOsb48x+1yO+bBgqcIHGBaBaM1gQm+WCJ1KbsSC7O7Vl/g7ET0m4hs/JUQvNDIyxXPasQvQLSa/DRq/KW9r3IiLjHyYtZu8b14bknyv7nF7z41f82NxAloZ2RHDVkvvjuj8R+6FI4zrL90dGyYexuKvHCyboKMBP5zjQxWfrewaAQMl/FrGCI4LGVgNynWAjs3YnDSOqa7jLsSZXgqSmiOCPdtcUpztlmVDKlJqCZhr5Q==","691f8ca61c6b4dcbb0aeb5f4","691fc170bcce2eb9e29d131f","index1","<span style='color:red'>Fail,<span style='color:red'>Fail,<span style='color:green'>Lift,<span style='color:green'>Lift,<span style='color:red'>Fail,<span style='color:red'>Fail,<span style='color:red'>Fail,<span style='color:red'>Fail,<span style='color:green'>Lift,<span style='color:red'>Fail,<span style='color:red'>Fail,<span style='color:green'>Lift","<span style='color:red'>Fail,<span style='color:red'>Fail,<span style='color:green'>Lift,<span style='color:green'>Lift,<span style='color:green'>Lift,<span style='color:green'>Lift,<span style='color:red'>Fail,<span style='color:green'>Lift,<span style='color:green'>Lift,<span style='color:green'>Lift,<span style='color:red'>Fail,<span style='color:green'>Lift","<span style='color:red'>Fail,<span style='color:green'>Lift,<span style='color:green'>Lift,<span style='color:red'>Fail,<span style='color:green'>Lift,<span style='color:green'>Lift","0,0,1,1,0,0,0,0,1,0,0,1","0,0,1,1,1,1,0,1,1,1,0,1","0,1,1,0,1,1",10,20,20,"","","","","{""box1"":""98""}","",1,"round3_ready",4,1,3,NA,NA,NA,NA,NA,NA,NA,NA,NA,NA,NA,NA,NA,NA,98,98,NA,NA,NA,NA,NA,NA,NA,NA,NA,98,98,NA,NA,NA,NA,NA,NA,NA,NA,NA,NA,"",NA,NA,NA,NA,NA,NA,NA,NA,NA,2025-11-21 01:54:25
"39076.79999999702","https://psyc-201.github.io/xiang2023/exp/index1.html?PROLIFIC_PID=REDACTED&STUDY_ID=691f8ca61c6b4dcbb0aeb5f4&SESSION_ID=691fc170bcce2eb9e29d131f","survey-html-form",12,558023,"0.0-312.0-0.0","YlX2xc5lL70X025cEs8SbPS9OYc2z80VY1LqwAumNltUCRzK/vKx0IZyA266//lfnA8kXnenoN8N+MetH8RDLb0lRHfBbcGcp+nCv2IaWxOsb48x+1yO+bBgqcIHGBaBaM1gQm+WCJ1KbsSC7O7Vl/g7ET0m4hs/JUQvNDIyxXPasQvQLSa/DRq/KW9r3IiLjHyYtZu8b14bknyv7nF7z41f82NxAloZ2RHDVkvvjuj8R+6FI4zrL90dGyYexuKvHCyboKMBP5zjQxWfrewaAQMl/FrGCI4LGVgNynWAjs3YnDSOqa7jLsSZXgqSmiOCPdtcUpztlmVDKlJqCZhr5Q==","691f8ca61c6b4dcbb0aeb5f4","691fc170bcce2eb9e29d131f","index1","<span style='color:red'>Fail,<span style='color:red'>Fail,<span style='color:green'>Lift,<span style='color:green'>Lift,<span style='color:red'>Fail,<span style='color:red'>Fail,<span style='color:red'>Fail,<span style='color:red'>Fail,<span style='color:green'>Lift,<span style='color:red'>Fail,<span style='color:red'>Fail,<span style='color:green'>Lift","<span style='color:red'>Fail,<span style='color:red'>Fail,<span style='color:green'>Lift,<span style='color:green'>Lift,<span style='color:green'>Lift,<span style='color:green'>Lift,<span style='color:red'>Fail,<span style='color:green'>Lift,<span style='color:green'>Lift,<span style='color:green'>Lift,<span style='color:red'>Fail,<span style='color:green'>Lift","<span style='color:red'>Fail,<span style='color:green'>Lift,<span style='color:green'>Lift,<span style='color:red'>Fail,<span style='color:green'>Lift,<span style='color:green'>Lift","0,0,1,1,0,0,0,0,1,0,0,1","0,0,1,1,1,1,0,1,1,1,0,1","0,1,1,0,1,1",10,20,20,"","","","","{""box1"":""4"",""box2"":""6"",""box3"":""100"",""box4"":""30""}","",2,"round3_lift",5,1,3,4,6,100,30,1,1,20,NA,NA,NA,NA,NA,NA,NA,NA,NA,NA,NA,NA,NA,NA,NA,NA,NA,NA,NA,NA,4,6,100,30,1,1,20,NA,NA,NA,"",NA,NA,NA,NA,NA,NA,NA,NA,NA,2025-11-21 01:54:25
"null","https://psyc-201.github.io/xiang2023/exp/index1.html?PROLIFIC_PID=REDACTED&STUDY_ID=691f8ca61c6b4dcbb0aeb5f4&SESSION_ID=691fc170bcce2eb9e29d131f","html-keyboard-response",13,561031,"0.0-316.0","YlX2xc5lL70X025cEs8SbPS9OYc2z80VY1LqwAumNltUCRzK/vKx0IZyA266//lfnA8kXnenoN8N+MetH8RDLb0lRHfBbcGcp+nCv2IaWxOsb48x+1yO+bBgqcIHGBaBaM1gQm+WCJ1KbsSC7O7Vl/g7ET0m4hs/JUQvNDIyxXPasQvQLSa/DRq/KW9r3IiLjHyYtZu8b14bknyv7nF7z41f82NxAloZ2RHDVkvvjuj8R+6FI4zrL90dGyYexuKvHCyboKMBP5zjQxWfrewaAQMl/FrGCI4LGVgNynWAjs3YnDSOqa7jLsSZXgqSmiOCPdtcUpztlmVDKlJqCZhr5Q==","691f8ca61c6b4dcbb0aeb5f4","691fc170bcce2eb9e29d131f","index1","<span style='color:red'>Fail,<span style='color:red'>Fail,<span style='color:green'>Lift,<span style='color:green'>Lift,<span style='color:red'>Fail,<span style='color:red'>Fail,<span style='color:red'>Fail,<span style='color:red'>Fail,<span style='color:green'>Lift,<span style='color:red'>Fail,<span style='color:red'>Fail,<span style='color:green'>Lift","<span style='color:red'>Fail,<span style='color:red'>Fail,<span style='color:green'>Lift,<span style='color:green'>Lift,<span style='color:green'>Lift,<span style='color:green'>Lift,<span style='color:red'>Fail,<span style='color:green'>Lift,<span style='color:green'>Lift,<span style='color:green'>Lift,<span style='color:red'>Fail,<span style='color:green'>Lift","<span style='color:red'>Fail,<span style='color:green'>Lift,<span style='color:green'>Lift,<span style='color:red'>Fail,<span style='color:green'>Lift,<span style='color:green'>Lift","0,0,1,1,0,0,0,0,1,0,0,1","0,0,1,1,1,1,0,1,1,1,0,1","0,1,1,0,1,1",10,20,20,"","","<p style='font-size:30px'><b> New Contest! </b></p>","null","","",2,"",NA,NA,NA,NA,NA,NA,NA,NA,NA,NA,NA,NA,NA,NA,NA,NA,NA,NA,NA,NA,NA,NA,NA,NA,NA,NA,NA,NA,NA,NA,NA,NA,NA,NA,NA,NA,NA,NA,NA,NA,"",NA,NA,NA,NA,NA,NA,NA,NA,NA,2025-11-21 01:54:25
"26867.20000000298","https://psyc-201.github.io/xiang2023/exp/index1.html?PROLIFIC_PID=REDACTED&STUDY_ID=691f8ca61c6b4dcbb0aeb5f4&SESSION_ID=691fc170bcce2eb9e29d131f","survey-html-form",14,587903,"0.0-317.0","YlX2xc5lL70X025cEs8SbPS9OYc2z80VY1LqwAumNltUCRzK/vKx0IZyA266//lfnA8kXnenoN8N+MetH8RDLb0lRHfBbcGcp+nCv2IaWxOsb48x+1yO+bBgqcIHGBaBaM1gQm+WCJ1KbsSC7O7Vl/g7ET0m4hs/JUQvNDIyxXPasQvQLSa/DRq/KW9r3IiLjHyYtZu8b14bknyv7nF7z41f82NxAloZ2RHDVkvvjuj8R+6FI4zrL90dGyYexuKvHCyboKMBP5zjQxWfrewaAQMl/FrGCI4LGVgNynWAjs3YnDSOqa7jLsSZXgqSmiOCPdtcUpztlmVDKlJqCZhr5Q==","691f8ca61c6b4dcbb0aeb5f4","691fc170bcce2eb9e29d131f","index1","<span style='color:red'>Fail,<span style='color:red'>Fail,<span style='color:green'>Lift,<span style='color:green'>Lift,<span style='color:red'>Fail,<span style='color:red'>Fail,<span style='color:red'>Fail,<span style='color:red'>Fail,<span style='color:green'>Lift,<span style='color:red'>Fail,<span style='color:red'>Fail,<span style='color:green'>Lift","<span style='color:red'>Fail,<span style='color:red'>Fail,<span style='color:green'>Lift,<span style='color:green'>Lift,<span style='color:green'>Lift,<span style='color:green'>Lift,<span style='color:red'>Fail,<span style='color:green'>Lift,<span style='color:green'>Lift,<span style='color:green'>Lift,<span style='color:red'>Fail,<span style='color:green'>Lift","<span style='color:red'>Fail,<span style='color:green'>Lift,<span style='color:green'>Lift,<span style='color:red'>Fail,<span style='color:green'>Lift,<span style='color:green'>Lift","0,0,1,1,0,0,0,0,1,0,0,1","0,0,1,1,1,1,0,1,1,1,0,1","0,1,1,0,1,1",10,20,20,"","","","","{""box1"":""7"",""box2"":""5"",""box3"":""70""}","",2,"round1_outcome",1,2,1,7,5,70,NA,1,0,10,7,5,70,NA,1,0,10,NA,NA,NA,NA,NA,NA,NA,NA,NA,NA,NA,NA,NA,NA,NA,NA,NA,NA,NA,NA,NA,NA,NA,"",NA,NA,NA,NA,NA,NA,NA,NA,NA,2025-11-21 01:54:25
"27003.69999998808","https://psyc-201.github.io/xiang2023/exp/index1.html?PROLIFIC_PID=REDACTED&STUDY_ID=691f8ca61c6b4dcbb0aeb5f4&SESSION_ID=691fc170bcce2eb9e29d131f","survey-html-form",15,614912,"0.0-318.0","YlX2xc5lL70X025cEs8SbPS9OYc2z80VY1LqwAumNltUCRzK/vKx0IZyA266//lfnA8kXnenoN8N+MetH8RDLb0lRHfBbcGcp+nCv2IaWxOsb48x+1yO+bBgqcIHGBaBaM1gQm+WCJ1KbsSC7O7Vl/g7ET0m4hs/JUQvNDIyxXPasQvQLSa/DRq/KW9r3IiLjHyYtZu8b14bknyv7nF7z41f82NxAloZ2RHDVkvvjuj8R+6FI4zrL90dGyYexuKvHCyboKMBP5zjQxWfrewaAQMl/FrGCI4LGVgNynWAjs3YnDSOqa7jLsSZXgqSmiOCPdtcUpztlmVDKlJqCZhr5Q==","691f8ca61c6b4dcbb0aeb5f4","691fc170bcce2eb9e29d131f","index1","<span style='color:red'>Fail,<span style='color:red'>Fail,<span style='color:green'>Lift,<span style='color:green'>Lift,<span style='color:red'>Fail,<span style='color:red'>Fail,<span style='color:red'>Fail,<span style='color:red'>Fail,<span style='color:green'>Lift,<span style='color:red'>Fail,<span style='color:red'>Fail,<span style='color:green'>Lift","<span style='color:red'>Fail,<span style='color:red'>Fail,<span style='color:green'>Lift,<span style='color:green'>Lift,<span style='color:green'>Lift,<span style='color:green'>Lift,<span style='color:red'>Fail,<span style='color:green'>Lift,<span style='color:green'>Lift,<span style='color:green'>Lift,<span style='color:red'>Fail,<span style='color:green'>Lift","<span style='color:red'>Fail,<span style='color:green'>Lift,<span style='color:green'>Lift,<span style='color:red'>Fail,<span style='color:green'>Lift,<span style='color:green'>Lift","0,0,1,1,0,0,0,0,1,0,0,1","0,0,1,1,1,1,0,1,1,1,0,1","0,1,1,0,1,1",10,20,20,"","","","","{""box1"":""99"",""box2"":""85""}","",2,"round2_ready",2,2,2,NA,NA,NA,NA,NA,NA,NA,NA,NA,NA,NA,NA,NA,NA,99,85,99,85,NA,NA,NA,NA,NA,NA,NA,NA,NA,NA,NA,NA,NA,NA,NA,NA,NA,NA,NA,"",NA,NA,NA,NA,NA,NA,NA,NA,NA,2025-11-21 01:54:25
"33448.70000000298","https://psyc-201.github.io/xiang2023/exp/index1.html?PROLIFIC_PID=REDACTED&STUDY_ID=691f8ca61c6b4dcbb0aeb5f4&SESSION_ID=691fc170bcce2eb9e29d131f","survey-html-form",16,648366,"0.0-319.0","YlX2xc5lL70X025cEs8SbPS9OYc2z80VY1LqwAumNltUCRzK/vKx0IZyA266//lfnA8kXnenoN8N+MetH8RDLb0lRHfBbcGcp+nCv2IaWxOsb48x+1yO+bBgqcIHGBaBaM1gQm+WCJ1KbsSC7O7Vl/g7ET0m4hs/JUQvNDIyxXPasQvQLSa/DRq/KW9r3IiLjHyYtZu8b14bknyv7nF7z41f82NxAloZ2RHDVkvvjuj8R+6FI4zrL90dGyYexuKvHCyboKMBP5zjQxWfrewaAQMl/FrGCI4LGVgNynWAjs3YnDSOqa7jLsSZXgqSmiOCPdtcUpztlmVDKlJqCZhr5Q==","691f8ca61c6b4dcbb0aeb5f4","691fc170bcce2eb9e29d131f","index1","<span style='color:red'>Fail,<span style='color:red'>Fail,<span style='color:green'>Lift,<span style='color:green'>Lift,<span style='color:red'>Fail,<span style='color:red'>Fail,<span style='color:red'>Fail,<span style='color:red'>Fail,<span style='color:green'>Lift,<span style='color:red'>Fail,<span style='color:red'>Fail,<span style='color:green'>Lift","<span style='color:red'>Fail,<span style='color:red'>Fail,<span style='color:green'>Lift,<span style='color:green'>Lift,<span style='color:green'>Lift,<span style='color:green'>Lift,<span style='color:red'>Fail,<span style='color:green'>Lift,<span style='color:green'>Lift,<span style='color:green'>Lift,<span style='color:red'>Fail,<span style='color:green'>Lift","<span style='color:red'>Fail,<span style='color:green'>Lift,<span style='color:green'>Lift,<span style='color:red'>Fail,<span style='color:green'>Lift,<span style='color:green'>Lift","0,0,1,1,0,0,0,0,1,0,0,1","0,0,1,1,1,1,0,1,1,1,0,1","0,1,1,0,1,1",10,20,20,"","","","","{""box1"":""7"",""box2"":""5"",""box3"":""80"",""box4"":""100""}","",2,"round2_outcome",3,2,2,7,5,80,100,1,1,20,NA,NA,NA,NA,NA,NA,NA,NA,NA,NA,NA,7,5,80,100,1,1,20,NA,NA,NA,NA,NA,NA,NA,NA,NA,NA,NA,NA,"",NA,NA,NA,NA,NA,NA,NA,NA,NA,2025-11-21 01:54:25
"22004.59999999404","https://psyc-201.github.io/xiang2023/exp/index1.html?PROLIFIC_PID=REDACTED&STUDY_ID=691f8ca61c6b4dcbb0aeb5f4&SESSION_ID=691fc170bcce2eb9e29d131f","survey-html-form",17,670373,"0.0-320.0","YlX2xc5lL70X025cEs8SbPS9OYc2z80VY1LqwAumNltUCRzK/vKx0IZyA266//lfnA8kXnenoN8N+MetH8RDLb0lRHfBbcGcp+nCv2IaWxOsb48x+1yO+bBgqcIHGBaBaM1gQm+WCJ1KbsSC7O7Vl/g7ET0m4hs/JUQvNDIyxXPasQvQLSa/DRq/KW9r3IiLjHyYtZu8b14bknyv7nF7z41f82NxAloZ2RHDVkvvjuj8R+6FI4zrL90dGyYexuKvHCyboKMBP5zjQxWfrewaAQMl/FrGCI4LGVgNynWAjs3YnDSOqa7jLsSZXgqSmiOCPdtcUpztlmVDKlJqCZhr5Q==","691f8ca61c6b4dcbb0aeb5f4","691fc170bcce2eb9e29d131f","index1","<span style='color:red'>Fail,<span style='color:red'>Fail,<span style='color:green'>Lift,<span style='color:green'>Lift,<span style='color:red'>Fail,<span style='color:red'>Fail,<span style='color:red'>Fail,<span style='color:red'>Fail,<span style='color:green'>Lift,<span style='color:red'>Fail,<span style='color:red'>Fail,<span style='color:green'>Lift","<span style='color:red'>Fail,<span style='color:red'>Fail,<span style='color:green'>Lift,<span style='color:green'>Lift,<span style='color:green'>Lift,<span style='color:green'>Lift,<span style='color:red'>Fail,<span style='color:green'>Lift,<span style='color:green'>Lift,<span style='color:green'>Lift,<span style='color:red'>Fail,<span style='color:green'>Lift","<span style='color:red'>Fail,<span style='color:green'>Lift,<span style='color:green'>Lift,<span style='color:red'>Fail,<span style='color:green'>Lift,<span style='color:green'>Lift","0,0,1,1,0,0,0,0,1,0,0,1","0,0,1,1,1,1,0,1,1,1,0,1","0,1,1,0,1,1",10,20,20,"","","","","{""box1"":""99""}","",2,"round3_ready",4,2,3,NA,NA,NA,NA,NA,NA,NA,NA,NA,NA,NA,NA,NA,NA,99,99,NA,NA,NA,NA,NA,NA,NA,NA,NA,99,99,NA,NA,NA,NA,NA,NA,NA,NA,NA,NA,"",NA,NA,NA,NA,NA,NA,NA,NA,NA,2025-11-21 01:54:25
"36828.59999999404","https://psyc-201.github.io/xiang2023/exp/index1.html?PROLIFIC_PID=REDACTED&STUDY_ID=691f8ca61c6b4dcbb0aeb5f4&SESSION_ID=691fc170bcce2eb9e29d131f","survey-html-form",18,707205,"0.0-321.0-0.0","YlX2xc5lL70X025cEs8SbPS9OYc2z80VY1LqwAumNltUCRzK/vKx0IZyA266//lfnA8kXnenoN8N+MetH8RDLb0lRHfBbcGcp+nCv2IaWxOsb48x+1yO+bBgqcIHGBaBaM1gQm+WCJ1KbsSC7O7Vl/g7ET0m4hs/JUQvNDIyxXPasQvQLSa/DRq/KW9r3IiLjHyYtZu8b14bknyv7nF7z41f82NxAloZ2RHDVkvvjuj8R+6FI4zrL90dGyYexuKvHCyboKMBP5zjQxWfrewaAQMl/FrGCI4LGVgNynWAjs3YnDSOqa7jLsSZXgqSmiOCPdtcUpztlmVDKlJqCZhr5Q==","691f8ca61c6b4dcbb0aeb5f4","691fc170bcce2eb9e29d131f","index1","<span style='color:red'>Fail,<span style='color:red'>Fail,<span style='color:green'>Lift,<span style='color:green'>Lift,<span style='color:red'>Fail,<span style='color:red'>Fail,<span style='color:red'>Fail,<span style='color:red'>Fail,<span style='color:green'>Lift,<span style='color:red'>Fail,<span style='color:red'>Fail,<span style='color:green'>Lift","<span style='color:red'>Fail,<span style='color:red'>Fail,<span style='color:green'>Lift,<span style='color:green'>Lift,<span style='color:green'>Lift,<span style='color:green'>Lift,<span style='color:red'>Fail,<span style='color:green'>Lift,<span style='color:green'>Lift,<span style='color:green'>Lift,<span style='color:red'>Fail,<span style='color:green'>Lift","<span style='color:red'>Fail,<span style='color:green'>Lift,<span style='color:green'>Lift,<span style='color:red'>Fail,<span style='color:green'>Lift,<span style='color:green'>Lift","0,0,1,1,0,0,0,0,1,0,0,1","0,0,1,1,1,1,0,1,1,1,0,1","0,1,1,0,1,1",10,20,20,"","","","","{""box1"":""7"",""box2"":""5"",""box3"":""50"",""box4"":""30""}","",3,"round3_lift",5,2,3,7,5,50,30,1,1,20,NA,NA,NA,NA,NA,NA,NA,NA,NA,NA,NA,NA,NA,NA,NA,NA,NA,NA,NA,NA,7,5,50,30,1,1,20,NA,NA,NA,"",NA,NA,NA,NA,NA,NA,NA,NA,NA,2025-11-21 01:54:25
"null","https://psyc-201.github.io/xiang2023/exp/index1.html?PROLIFIC_PID=REDACTED&STUDY_ID=691f8ca61c6b4dcbb0aeb5f4&SESSION_ID=691fc170bcce2eb9e29d131f","html-keyboard-response",19,710214,"0.0-325.0","YlX2xc5lL70X025cEs8SbPS9OYc2z80VY1LqwAumNltUCRzK/vKx0IZyA266//lfnA8kXnenoN8N+MetH8RDLb0lRHfBbcGcp+nCv2IaWxOsb48x+1yO+bBgqcIHGBaBaM1gQm+WCJ1KbsSC7O7Vl/g7ET0m4hs/JUQvNDIyxXPasQvQLSa/DRq/KW9r3IiLjHyYtZu8b14bknyv7nF7z41f82NxAloZ2RHDVkvvjuj8R+6FI4zrL90dGyYexuKvHCyboKMBP5zjQxWfrewaAQMl/FrGCI4LGVgNynWAjs3YnDSOqa7jLsSZXgqSmiOCPdtcUpztlmVDKlJqCZhr5Q==","691f8ca61c6b4dcbb0aeb5f4","691fc170bcce2eb9e29d131f","index1","<span style='color:red'>Fail,<span style='color:red'>Fail,<span style='color:green'>Lift,<span style='color:green'>Lift,<span style='color:red'>Fail,<span style='color:red'>Fail,<span style='color:red'>Fail,<span style='color:red'>Fail,<span style='color:green'>Lift,<span style='color:red'>Fail,<span style='color:red'>Fail,<span style='color:green'>Lift","<span style='color:red'>Fail,<span style='color:red'>Fail,<span style='color:green'>Lift,<span style='color:green'>Lift,<span style='color:green'>Lift,<span style='color:green'>Lift,<span style='color:red'>Fail,<span style='color:green'>Lift,<span style='color:green'>Lift,<span style='color:green'>Lift,<span style='color:red'>Fail,<span style='color:green'>Lift","<span style='color:red'>Fail,<span style='color:green'>Lift,<span style='color:green'>Lift,<span style='color:red'>Fail,<span style='color:green'>Lift,<span style='color:green'>Lift","0,0,1,1,0,0,0,0,1,0,0,1","0,0,1,1,1,1,0,1,1,1,0,1","0,1,1,0,1,1",10,20,20,"","","<p style='font-size:30px'><b> New Contest! </b></p>","null","","",3,"",NA,NA,NA,NA,NA,NA,NA,NA,NA,NA,NA,NA,NA,NA,NA,NA,NA,NA,NA,NA,NA,NA,NA,NA,NA,NA,NA,NA,NA,NA,NA,NA,NA,NA,NA,NA,NA,NA,NA,NA,"",NA,NA,NA,NA,NA,NA,NA,NA,NA,2025-11-21 01:54:25
"28631","https://psyc-201.github.io/xiang2023/exp/index1.html?PROLIFIC_PID=REDACTED&STUDY_ID=691f8ca61c6b4dcbb0aeb5f4&SESSION_ID=691fc170bcce2eb9e29d131f","survey-html-form",20,738853,"0.0-326.0","YlX2xc5lL70X025cEs8SbPS9OYc2z80VY1LqwAumNltUCRzK/vKx0IZyA266//lfnA8kXnenoN8N+MetH8RDLb0lRHfBbcGcp+nCv2IaWxOsb48x+1yO+bBgqcIHGBaBaM1gQm+WCJ1KbsSC7O7Vl/g7ET0m4hs/JUQvNDIyxXPasQvQLSa/DRq/KW9r3IiLjHyYtZu8b14bknyv7nF7z41f82NxAloZ2RHDVkvvjuj8R+6FI4zrL90dGyYexuKvHCyboKMBP5zjQxWfrewaAQMl/FrGCI4LGVgNynWAjs3YnDSOqa7jLsSZXgqSmiOCPdtcUpztlmVDKlJqCZhr5Q==","691f8ca61c6b4dcbb0aeb5f4","691fc170bcce2eb9e29d131f","index1","<span style='color:red'>Fail,<span style='color:red'>Fail,<span style='color:green'>Lift,<span style='color:green'>Lift,<span style='color:red'>Fail,<span style='color:red'>Fail,<span style='color:red'>Fail,<span style='color:red'>Fail,<span style='color:green'>Lift,<span style='color:red'>Fail,<span style='color:red'>Fail,<span style='color:green'>Lift","<span style='color:red'>Fail,<span style='color:red'>Fail,<span style='color:green'>Lift,<span style='color:green'>Lift,<span style='color:green'>Lift,<span style='color:green'>Lift,<span style='color:red'>Fail,<span style='color:green'>Lift,<span style='color:green'>Lift,<span style='color:green'>Lift,<span style='color:red'>Fail,<span style='color:green'>Lift","<span style='color:red'>Fail,<span style='color:green'>Lift,<span style='color:green'>Lift,<span style='color:red'>Fail,<span style='color:green'>Lift,<span style='color:green'>Lift","0,0,1,1,0,0,0,0,1,0,0,1","0,0,1,1,1,1,0,1,1,1,0,1","0,1,1,0,1,1",10,20,20,"","","","","{""box1"":""6"",""box2"":""5"",""box3"":""85"",""box4"":""100""}","",3,"round1_outcome",1,3,1,6,5,85,100,1,1,10,6,5,85,100,1,1,10,NA,NA,NA,NA,NA,NA,NA,NA,NA,NA,NA,NA,NA,NA,NA,NA,NA,NA,NA,NA,NA,NA,NA,"",NA,NA,NA,NA,NA,NA,NA,NA,NA,2025-11-21 01:54:25
"26172.59999999404","https://psyc-201.github.io/xiang2023/exp/index1.html?PROLIFIC_PID=REDACTED&STUDY_ID=691f8ca61c6b4dcbb0aeb5f4&SESSION_ID=691fc170bcce2eb9e29d131f","survey-html-form",21,765029,"0.0-327.0","YlX2xc5lL70X025cEs8SbPS9OYc2z80VY1LqwAumNltUCRzK/vKx0IZyA266//lfnA8kXnenoN8N+MetH8RDLb0lRHfBbcGcp+nCv2IaWxOsb48x+1yO+bBgqcIHGBaBaM1gQm+WCJ1KbsSC7O7Vl/g7ET0m4hs/JUQvNDIyxXPasQvQLSa/DRq/KW9r3IiLjHyYtZu8b14bknyv7nF7z41f82NxAloZ2RHDVkvvjuj8R+6FI4zrL90dGyYexuKvHCyboKMBP5zjQxWfrewaAQMl/FrGCI4LGVgNynWAjs3YnDSOqa7jLsSZXgqSmiOCPdtcUpztlmVDKlJqCZhr5Q==","691f8ca61c6b4dcbb0aeb5f4","691fc170bcce2eb9e29d131f","index1","<span style='color:red'>Fail,<span style='color:red'>Fail,<span style='color:green'>Lift,<span style='color:green'>Lift,<span style='color:red'>Fail,<span style='color:red'>Fail,<span style='color:red'>Fail,<span style='color:red'>Fail,<span style='color:green'>Lift,<span style='color:red'>Fail,<span style='color:red'>Fail,<span style='color:green'>Lift","<span style='color:red'>Fail,<span style='color:red'>Fail,<span style='color:green'>Lift,<span style='color:green'>Lift,<span style='color:green'>Lift,<span style='color:green'>Lift,<span style='color:red'>Fail,<span style='color:green'>Lift,<span style='color:green'>Lift,<span style='color:green'>Lift,<span style='color:red'>Fail,<span style='color:green'>Lift","<span style='color:red'>Fail,<span style='color:green'>Lift,<span style='color:green'>Lift,<span style='color:red'>Fail,<span style='color:green'>Lift,<span style='color:green'>Lift","0,0,1,1,0,0,0,0,1,0,0,1","0,0,1,1,1,1,0,1,1,1,0,1","0,1,1,0,1,1",10,20,20,"","","","","{""box1"":""99"",""box2"":""95""}","",3,"round2_ready",2,3,2,NA,NA,NA,NA,NA,NA,NA,NA,NA,NA,NA,NA,NA,NA,99,95,99,95,NA,NA,NA,NA,NA,NA,NA,NA,NA,NA,NA,NA,NA,NA,NA,NA,NA,NA,NA,"",NA,NA,NA,NA,NA,NA,NA,NA,NA,2025-11-21 01:54:25
"28244.79999999702","https://psyc-201.github.io/xiang2023/exp/index1.html?PROLIFIC_PID=REDACTED&STUDY_ID=691f8ca61c6b4dcbb0aeb5f4&SESSION_ID=691fc170bcce2eb9e29d131f","survey-html-form",22,793277,"0.0-328.0","YlX2xc5lL70X025cEs8SbPS9OYc2z80VY1LqwAumNltUCRzK/vKx0IZyA266//lfnA8kXnenoN8N+MetH8RDLb0lRHfBbcGcp+nCv2IaWxOsb48x+1yO+bBgqcIHGBaBaM1gQm+WCJ1KbsSC7O7Vl/g7ET0m4hs/JUQvNDIyxXPasQvQLSa/DRq/KW9r3IiLjHyYtZu8b14bknyv7nF7z41f82NxAloZ2RHDVkvvjuj8R+6FI4zrL90dGyYexuKvHCyboKMBP5zjQxWfrewaAQMl/FrGCI4LGVgNynWAjs3YnDSOqa7jLsSZXgqSmiOCPdtcUpztlmVDKlJqCZhr5Q==","691f8ca61c6b4dcbb0aeb5f4","691fc170bcce2eb9e29d131f","index1","<span style='color:red'>Fail,<span style='color:red'>Fail,<span style='color:green'>Lift,<span style='color:green'>Lift,<span style='color:red'>Fail,<span style='color:red'>Fail,<span style='color:red'>Fail,<span style='color:red'>Fail,<span style='color:green'>Lift,<span style='color:red'>Fail,<span style='color:red'>Fail,<span style='color:green'>Lift","<span style='color:red'>Fail,<span style='color:red'>Fail,<span style='color:green'>Lift,<span style='color:green'>Lift,<span style='color:green'>Lift,<span style='color:green'>Lift,<span style='color:red'>Fail,<span style='color:green'>Lift,<span style='color:green'>Lift,<span style='color:green'>Lift,<span style='color:red'>Fail,<span style='color:green'>Lift","<span style='color:red'>Fail,<span style='color:green'>Lift,<span style='color:green'>Lift,<span style='color:red'>Fail,<span style='color:green'>Lift,<span style='color:green'>Lift","0,0,1,1,0,0,0,0,1,0,0,1","0,0,1,1,1,1,0,1,1,1,0,1","0,1,1,0,1,1",10,20,20,"","","","","{""box1"":""6"",""box2"":""5"",""box3"":""90"",""box4"":""100""}","",3,"round2_outcome",3,3,2,6,5,90,100,1,1,20,NA,NA,NA,NA,NA,NA,NA,NA,NA,NA,NA,6,5,90,100,1,1,20,NA,NA,NA,NA,NA,NA,NA,NA,NA,NA,NA,NA,"",NA,NA,NA,NA,NA,NA,NA,NA,NA,2025-11-21 01:54:25
"26050.59999999404","https://psyc-201.github.io/xiang2023/exp/index1.html?PROLIFIC_PID=REDACTED&STUDY_ID=691f8ca61c6b4dcbb0aeb5f4&SESSION_ID=691fc170bcce2eb9e29d131f","survey-html-form",23,819332,"0.0-329.0","YlX2xc5lL70X025cEs8SbPS9OYc2z80VY1LqwAumNltUCRzK/vKx0IZyA266//lfnA8kXnenoN8N+MetH8RDLb0lRHfBbcGcp+nCv2IaWxOsb48x+1yO+bBgqcIHGBaBaM1gQm+WCJ1KbsSC7O7Vl/g7ET0m4hs/JUQvNDIyxXPasQvQLSa/DRq/KW9r3IiLjHyYtZu8b14bknyv7nF7z41f82NxAloZ2RHDVkvvjuj8R+6FI4zrL90dGyYexuKvHCyboKMBP5zjQxWfrewaAQMl/FrGCI4LGVgNynWAjs3YnDSOqa7jLsSZXgqSmiOCPdtcUpztlmVDKlJqCZhr5Q==","691f8ca61c6b4dcbb0aeb5f4","691fc170bcce2eb9e29d131f","index1","<span style='color:red'>Fail,<span style='color:red'>Fail,<span style='color:green'>Lift,<span style='color:green'>Lift,<span style='color:red'>Fail,<span style='color:red'>Fail,<span style='color:red'>Fail,<span style='color:red'>Fail,<span style='color:green'>Lift,<span style='color:red'>Fail,<span style='color:red'>Fail,<span style='color:green'>Lift","<span style='color:red'>Fail,<span style='color:red'>Fail,<span style='color:green'>Lift,<span style='color:green'>Lift,<span style='color:green'>Lift,<span style='color:green'>Lift,<span style='color:red'>Fail,<span style='color:green'>Lift,<span style='color:green'>Lift,<span style='color:green'>Lift,<span style='color:red'>Fail,<span style='color:green'>Lift","<span style='color:red'>Fail,<span style='color:green'>Lift,<span style='color:green'>Lift,<span style='color:red'>Fail,<span style='color:green'>Lift,<span style='color:green'>Lift","0,0,1,1,0,0,0,0,1,0,0,1","0,0,1,1,1,1,0,1,1,1,0,1","0,1,1,0,1,1",10,20,20,"","","","","{""box1"":""99""}","",3,"round3_ready",4,3,3,NA,NA,NA,NA,NA,NA,NA,NA,NA,NA,NA,NA,NA,NA,99,99,NA,NA,NA,NA,NA,NA,NA,NA,NA,99,99,NA,NA,NA,NA,NA,NA,NA,NA,NA,NA,"",NA,NA,NA,NA,NA,NA,NA,NA,NA,2025-11-21 01:54:25
"31165.89999999106","https://psyc-201.github.io/xiang2023/exp/index1.html?PROLIFIC_PID=REDACTED&STUDY_ID=691f8ca61c6b4dcbb0aeb5f4&SESSION_ID=691fc170bcce2eb9e29d131f","survey-html-form",24,850501,"0.0-330.0-0.0","YlX2xc5lL70X025cEs8SbPS9OYc2z80VY1LqwAumNltUCRzK/vKx0IZyA266//lfnA8kXnenoN8N+MetH8RDLb0lRHfBbcGcp+nCv2IaWxOsb48x+1yO+bBgqcIHGBaBaM1gQm+WCJ1KbsSC7O7Vl/g7ET0m4hs/JUQvNDIyxXPasQvQLSa/DRq/KW9r3IiLjHyYtZu8b14bknyv7nF7z41f82NxAloZ2RHDVkvvjuj8R+6FI4zrL90dGyYexuKvHCyboKMBP5zjQxWfrewaAQMl/FrGCI4LGVgNynWAjs3YnDSOqa7jLsSZXgqSmiOCPdtcUpztlmVDKlJqCZhr5Q==","691f8ca61c6b4dcbb0aeb5f4","691fc170bcce2eb9e29d131f","index1","<span style='color:red'>Fail,<span style='color:red'>Fail,<span style='color:green'>Lift,<span style='color:green'>Lift,<span style='color:red'>Fail,<span style='color:red'>Fail,<span style='color:red'>Fail,<span style='color:red'>Fail,<span style='color:green'>Lift,<span style='color:red'>Fail,<span style='color:red'>Fail,<span style='color:green'>Lift","<span style='color:red'>Fail,<span style='color:red'>Fail,<span style='color:green'>Lift,<span style='color:green'>Lift,<span style='color:green'>Lift,<span style='color:green'>Lift,<span style='color:red'>Fail,<span style='color:green'>Lift,<span style='color:green'>Lift,<span style='color:green'>Lift,<span style='color:red'>Fail,<span style='color:green'>Lift","<span style='color:red'>Fail,<span style='color:green'>Lift,<span style='color:green'>Lift,<span style='color:red'>Fail,<span style='color:green'>Lift,<span style='color:green'>Lift","0,0,1,1,0,0,0,0,1,0,0,1","0,0,1,1,1,1,0,1,1,1,0,1","0,1,1,0,1,1",10,20,20,"","","","","{""box1"":""6"",""box2"":""5"",""box3"":""40"",""box4"":""50""}","",4,"round3_lift",5,3,3,6,5,40,50,1,1,20,NA,NA,NA,NA,NA,NA,NA,NA,NA,NA,NA,NA,NA,NA,NA,NA,NA,NA,NA,NA,6,5,40,50,1,1,20,NA,NA,NA,"",NA,NA,NA,NA,NA,NA,NA,NA,NA,2025-11-21 01:54:25
"null","https://psyc-201.github.io/xiang2023/exp/index1.html?PROLIFIC_PID=REDACTED&STUDY_ID=691f8ca61c6b4dcbb0aeb5f4&SESSION_ID=691fc170bcce2eb9e29d131f","html-keyboard-response",25,853514,"0.0-334.0","YlX2xc5lL70X025cEs8SbPS9OYc2z80VY1LqwAumNltUCRzK/vKx0IZyA266//lfnA8kXnenoN8N+MetH8RDLb0lRHfBbcGcp+nCv2IaWxOsb48x+1yO+bBgqcIHGBaBaM1gQm+WCJ1KbsSC7O7Vl/g7ET0m4hs/JUQvNDIyxXPasQvQLSa/DRq/KW9r3IiLjHyYtZu8b14bknyv7nF7z41f82NxAloZ2RHDVkvvjuj8R+6FI4zrL90dGyYexuKvHCyboKMBP5zjQxWfrewaAQMl/FrGCI4LGVgNynWAjs3YnDSOqa7jLsSZXgqSmiOCPdtcUpztlmVDKlJqCZhr5Q==","691f8ca61c6b4dcbb0aeb5f4","691fc170bcce2eb9e29d131f","index1","<span style='color:red'>Fail,<span style='color:red'>Fail,<span style='color:green'>Lift,<span style='color:green'>Lift,<span style='color:red'>Fail,<span style='color:red'>Fail,<span style='color:red'>Fail,<span style='color:red'>Fail,<span style='color:green'>Lift,<span style='color:red'>Fail,<span style='color:red'>Fail,<span style='color:green'>Lift","<span style='color:red'>Fail,<span style='color:red'>Fail,<span style='color:green'>Lift,<span style='color:green'>Lift,<span style='color:green'>Lift,<span style='color:green'>Lift,<span style='color:red'>Fail,<span style='color:green'>Lift,<span style='color:green'>Lift,<span style='color:green'>Lift,<span style='color:red'>Fail,<span style='color:green'>Lift","<span style='color:red'>Fail,<span style='color:green'>Lift,<span style='color:green'>Lift,<span style='color:red'>Fail,<span style='color:green'>Lift,<span style='color:green'>Lift","0,0,1,1,0,0,0,0,1,0,0,1","0,0,1,1,1,1,0,1,1,1,0,1","0,1,1,0,1,1",10,20,20,"","","<p style='font-size:30px'><b> New Contest! </b></p>","null","","",4,"",NA,NA,NA,NA,NA,NA,NA,NA,NA,NA,NA,NA,NA,NA,NA,NA,NA,NA,NA,NA,NA,NA,NA,NA,NA,NA,NA,NA,NA,NA,NA,NA,NA,NA,NA,NA,NA,NA,NA,NA,"",NA,NA,NA,NA,NA,NA,NA,NA,NA,2025-11-21 01:54:25
"25893.60000000894","https://psyc-201.github.io/xiang2023/exp/index1.html?PROLIFIC_PID=REDACTED&STUDY_ID=691f8ca61c6b4dcbb0aeb5f4&SESSION_ID=691fc170bcce2eb9e29d131f","survey-html-form",26,879412,"0.0-335.0","YlX2xc5lL70X025cEs8SbPS9OYc2z80VY1LqwAumNltUCRzK/vKx0IZyA266//lfnA8kXnenoN8N+MetH8RDLb0lRHfBbcGcp+nCv2IaWxOsb48x+1yO+bBgqcIHGBaBaM1gQm+WCJ1KbsSC7O7Vl/g7ET0m4hs/JUQvNDIyxXPasQvQLSa/DRq/KW9r3IiLjHyYtZu8b14bknyv7nF7z41f82NxAloZ2RHDVkvvjuj8R+6FI4zrL90dGyYexuKvHCyboKMBP5zjQxWfrewaAQMl/FrGCI4LGVgNynWAjs3YnDSOqa7jLsSZXgqSmiOCPdtcUpztlmVDKlJqCZhr5Q==","691f8ca61c6b4dcbb0aeb5f4","691fc170bcce2eb9e29d131f","index1","<span style='color:red'>Fail,<span style='color:red'>Fail,<span style='color:green'>Lift,<span style='color:green'>Lift,<span style='color:red'>Fail,<span style='color:red'>Fail,<span style='color:red'>Fail,<span style='color:red'>Fail,<span style='color:green'>Lift,<span style='color:red'>Fail,<span style='color:red'>Fail,<span style='color:green'>Lift","<span style='color:red'>Fail,<span style='color:red'>Fail,<span style='color:green'>Lift,<span style='color:green'>Lift,<span style='color:green'>Lift,<span style='color:green'>Lift,<span style='color:red'>Fail,<span style='color:green'>Lift,<span style='color:green'>Lift,<span style='color:green'>Lift,<span style='color:red'>Fail,<span style='color:green'>Lift","<span style='color:red'>Fail,<span style='color:green'>Lift,<span style='color:green'>Lift,<span style='color:red'>Fail,<span style='color:green'>Lift,<span style='color:green'>Lift","0,0,1,1,0,0,0,0,1,0,0,1","0,0,1,1,1,1,0,1,1,1,0,1","0,1,1,0,1,1",10,20,20,"","","","","{""box1"":""3"",""box2"":""4""}","",4,"round1_outcome",1,4,1,3,4,NA,NA,0,0,10,3,4,NA,NA,0,0,10,NA,NA,NA,NA,NA,NA,NA,NA,NA,NA,NA,NA,NA,NA,NA,NA,NA,NA,NA,NA,NA,NA,NA,"",NA,NA,NA,NA,NA,NA,NA,NA,NA,2025-11-21 01:54:25
"6405.29999999702","https://psyc-201.github.io/xiang2023/exp/index1.html?PROLIFIC_PID=REDACTED&STUDY_ID=691f8ca61c6b4dcbb0aeb5f4&SESSION_ID=691fc170bcce2eb9e29d131f","survey-html-form",27,885820,"0.0-336.0","YlX2xc5lL70X025cEs8SbPS9OYc2z80VY1LqwAumNltUCRzK/vKx0IZyA266//lfnA8kXnenoN8N+MetH8RDLb0lRHfBbcGcp+nCv2IaWxOsb48x+1yO+bBgqcIHGBaBaM1gQm+WCJ1KbsSC7O7Vl/g7ET0m4hs/JUQvNDIyxXPasQvQLSa/DRq/KW9r3IiLjHyYtZu8b14bknyv7nF7z41f82NxAloZ2RHDVkvvjuj8R+6FI4zrL90dGyYexuKvHCyboKMBP5zjQxWfrewaAQMl/FrGCI4LGVgNynWAjs3YnDSOqa7jLsSZXgqSmiOCPdtcUpztlmVDKlJqCZhr5Q==","691f8ca61c6b4dcbb0aeb5f4","691fc170bcce2eb9e29d131f","index1","<span style='color:red'>Fail,<span style='color:red'>Fail,<span style='color:green'>Lift,<span style='color:green'>Lift,<span style='color:red'>Fail,<span style='color:red'>Fail,<span style='color:red'>Fail,<span style='color:red'>Fail,<span style='color:green'>Lift,<span style='color:red'>Fail,<span style='color:red'>Fail,<span style='color:green'>Lift","<span style='color:red'>Fail,<span style='color:red'>Fail,<span style='color:green'>Lift,<span style='color:green'>Lift,<span style='color:green'>Lift,<span style='color:green'>Lift,<span style='color:red'>Fail,<span style='color:green'>Lift,<span style='color:green'>Lift,<span style='color:green'>Lift,<span style='color:red'>Fail,<span style='color:green'>Lift","<span style='color:red'>Fail,<span style='color:green'>Lift,<span style='color:green'>Lift,<span style='color:red'>Fail,<span style='color:green'>Lift,<span style='color:green'>Lift","0,0,1,1,0,0,0,0,1,0,0,1","0,0,1,1,1,1,0,1,1,1,0,1","0,1,1,0,1,1",10,20,20,"","","","","{""box1"":""40"",""box2"":""50""}","",4,"round2_ready",2,4,2,NA,NA,NA,NA,NA,NA,NA,NA,NA,NA,NA,NA,NA,NA,40,50,40,50,NA,NA,NA,NA,NA,NA,NA,NA,NA,NA,NA,NA,NA,NA,NA,NA,NA,NA,NA,"",NA,NA,NA,NA,NA,NA,NA,NA,NA,2025-11-21 01:54:25
"8981","https://psyc-201.github.io/xiang2023/exp/index1.html?PROLIFIC_PID=REDACTED&STUDY_ID=691f8ca61c6b4dcbb0aeb5f4&SESSION_ID=691fc170bcce2eb9e29d131f","survey-html-form",28,894804,"0.0-337.0","YlX2xc5lL70X025cEs8SbPS9OYc2z80VY1LqwAumNltUCRzK/vKx0IZyA266//lfnA8kXnenoN8N+MetH8RDLb0lRHfBbcGcp+nCv2IaWxOsb48x+1yO+bBgqcIHGBaBaM1gQm+WCJ1KbsSC7O7Vl/g7ET0m4hs/JUQvNDIyxXPasQvQLSa/DRq/KW9r3IiLjHyYtZu8b14bknyv7nF7z41f82NxAloZ2RHDVkvvjuj8R+6FI4zrL90dGyYexuKvHCyboKMBP5zjQxWfrewaAQMl/FrGCI4LGVgNynWAjs3YnDSOqa7jLsSZXgqSmiOCPdtcUpztlmVDKlJqCZhr5Q==","691f8ca61c6b4dcbb0aeb5f4","691fc170bcce2eb9e29d131f","index1","<span style='color:red'>Fail,<span style='color:red'>Fail,<span style='color:green'>Lift,<span style='color:green'>Lift,<span style='color:red'>Fail,<span style='color:red'>Fail,<span style='color:red'>Fail,<span style='color:red'>Fail,<span style='color:green'>Lift,<span style='color:red'>Fail,<span style='color:red'>Fail,<span style='color:green'>Lift","<span style='color:red'>Fail,<span style='color:red'>Fail,<span style='color:green'>Lift,<span style='color:green'>Lift,<span style='color:green'>Lift,<span style='color:green'>Lift,<span style='color:red'>Fail,<span style='color:green'>Lift,<span style='color:green'>Lift,<span style='color:green'>Lift,<span style='color:red'>Fail,<span style='color:green'>Lift","<span style='color:red'>Fail,<span style='color:green'>Lift,<span style='color:green'>Lift,<span style='color:red'>Fail,<span style='color:green'>Lift,<span style='color:green'>Lift","0,0,1,1,0,0,0,0,1,0,0,1","0,0,1,1,1,1,0,1,1,1,0,1","0,1,1,0,1,1",10,20,20,"","","","","{""box1"":""4"",""box2"":""3""}","",4,"round2_outcome",3,4,2,4,3,NA,NA,0,0,20,NA,NA,NA,NA,NA,NA,NA,NA,NA,NA,NA,4,3,NA,NA,0,0,20,NA,NA,NA,NA,NA,NA,NA,NA,NA,NA,NA,NA,"",NA,NA,NA,NA,NA,NA,NA,NA,NA,2025-11-21 01:54:25
"3932.7000000029802","https://psyc-201.github.io/xiang2023/exp/index1.html?PROLIFIC_PID=REDACTED&STUDY_ID=691f8ca61c6b4dcbb0aeb5f4&SESSION_ID=691fc170bcce2eb9e29d131f","survey-html-form",29,898740,"0.0-338.0","YlX2xc5lL70X025cEs8SbPS9OYc2z80VY1LqwAumNltUCRzK/vKx0IZyA266//lfnA8kXnenoN8N+MetH8RDLb0lRHfBbcGcp+nCv2IaWxOsb48x+1yO+bBgqcIHGBaBaM1gQm+WCJ1KbsSC7O7Vl/g7ET0m4hs/JUQvNDIyxXPasQvQLSa/DRq/KW9r3IiLjHyYtZu8b14bknyv7nF7z41f82NxAloZ2RHDVkvvjuj8R+6FI4zrL90dGyYexuKvHCyboKMBP5zjQxWfrewaAQMl/FrGCI4LGVgNynWAjs3YnDSOqa7jLsSZXgqSmiOCPdtcUpztlmVDKlJqCZhr5Q==","691f8ca61c6b4dcbb0aeb5f4","691fc170bcce2eb9e29d131f","index1","<span style='color:red'>Fail,<span style='color:red'>Fail,<span style='color:green'>Lift,<span style='color:green'>Lift,<span style='color:red'>Fail,<span style='color:red'>Fail,<span style='color:red'>Fail,<span style='color:red'>Fail,<span style='color:green'>Lift,<span style='color:red'>Fail,<span style='color:red'>Fail,<span style='color:green'>Lift","<span style='color:red'>Fail,<span style='color:red'>Fail,<span style='color:green'>Lift,<span style='color:green'>Lift,<span style='color:green'>Lift,<span style='color:green'>Lift,<span style='color:red'>Fail,<span style='color:green'>Lift,<span style='color:green'>Lift,<span style='color:green'>Lift,<span style='color:red'>Fail,<span style='color:green'>Lift","<span style='color:red'>Fail,<span style='color:green'>Lift,<span style='color:green'>Lift,<span style='color:red'>Fail,<span style='color:green'>Lift,<span style='color:green'>Lift","0,0,1,1,0,0,0,0,1,0,0,1","0,0,1,1,1,1,0,1,1,1,0,1","0,1,1,0,1,1",10,20,20,"","","","","{""box1"":""60""}","",4,"round3_ready",4,4,3,NA,NA,NA,NA,NA,NA,NA,NA,NA,NA,NA,NA,NA,NA,60,60,NA,NA,NA,NA,NA,NA,NA,NA,NA,60,60,NA,NA,NA,NA,NA,NA,NA,NA,NA,NA,"",NA,NA,NA,NA,NA,NA,NA,NA,NA,2025-11-21 01:54:25
"10468.90000000596","https://psyc-201.github.io/xiang2023/exp/index1.html?PROLIFIC_PID=REDACTED&STUDY_ID=691f8ca61c6b4dcbb0aeb5f4&SESSION_ID=691fc170bcce2eb9e29d131f","survey-html-form",30,909212,"0.0-340.0-0.0","YlX2xc5lL70X025cEs8SbPS9OYc2z80VY1LqwAumNltUCRzK/vKx0IZyA266//lfnA8kXnenoN8N+MetH8RDLb0lRHfBbcGcp+nCv2IaWxOsb48x+1yO+bBgqcIHGBaBaM1gQm+WCJ1KbsSC7O7Vl/g7ET0m4hs/JUQvNDIyxXPasQvQLSa/DRq/KW9r3IiLjHyYtZu8b14bknyv7nF7z41f82NxAloZ2RHDVkvvjuj8R+6FI4zrL90dGyYexuKvHCyboKMBP5zjQxWfrewaAQMl/FrGCI4LGVgNynWAjs3YnDSOqa7jLsSZXgqSmiOCPdtcUpztlmVDKlJqCZhr5Q==","691f8ca61c6b4dcbb0aeb5f4","691fc170bcce2eb9e29d131f","index1","<span style='color:red'>Fail,<span style='color:red'>Fail,<span style='color:green'>Lift,<span style='color:green'>Lift,<span style='color:red'>Fail,<span style='color:red'>Fail,<span style='color:red'>Fail,<span style='color:red'>Fail,<span style='color:green'>Lift,<span style='color:red'>Fail,<span style='color:red'>Fail,<span style='color:green'>Lift","<span style='color:red'>Fail,<span style='color:red'>Fail,<span style='color:green'>Lift,<span style='color:green'>Lift,<span style='color:green'>Lift,<span style='color:green'>Lift,<span style='color:red'>Fail,<span style='color:green'>Lift,<span style='color:green'>Lift,<span style='color:green'>Lift,<span style='color:red'>Fail,<span style='color:green'>Lift","<span style='color:red'>Fail,<span style='color:green'>Lift,<span style='color:green'>Lift,<span style='color:red'>Fail,<span style='color:green'>Lift,<span style='color:green'>Lift","0,0,1,1,0,0,0,0,1,0,0,1","0,0,1,1,1,1,0,1,1,1,0,1","0,1,1,0,1,1",10,20,20,"","","","","{""box1"":""4"",""box2"":""3"",""box3"":""60"",""box4"":""50""}","",4,"round3_fail",5,4,3,4,3,NA,NA,0,0,20,NA,NA,NA,NA,NA,NA,NA,NA,NA,NA,NA,NA,NA,NA,NA,NA,NA,NA,NA,NA,4,3,NA,NA,0,0,20,0,1,NA,"",NA,NA,NA,NA,NA,NA,NA,NA,NA,2025-11-21 01:54:25
"null","https://psyc-201.github.io/xiang2023/exp/index1.html?PROLIFIC_PID=REDACTED&STUDY_ID=691f8ca61c6b4dcbb0aeb5f4&SESSION_ID=691fc170bcce2eb9e29d131f","html-keyboard-response",31,914215,"0.0-341.0-0.0","YlX2xc5lL70X025cEs8SbPS9OYc2z80VY1LqwAumNltUCRzK/vKx0IZyA266//lfnA8kXnenoN8N+MetH8RDLb0lRHfBbcGcp+nCv2IaWxOsb48x+1yO+bBgqcIHGBaBaM1gQm+WCJ1KbsSC7O7Vl/g7ET0m4hs/JUQvNDIyxXPasQvQLSa/DRq/KW9r3IiLjHyYtZu8b14bknyv7nF7z41f82NxAloZ2RHDVkvvjuj8R+6FI4zrL90dGyYexuKvHCyboKMBP5zjQxWfrewaAQMl/FrGCI4LGVgNynWAjs3YnDSOqa7jLsSZXgqSmiOCPdtcUpztlmVDKlJqCZhr5Q==","691f8ca61c6b4dcbb0aeb5f4","691fc170bcce2eb9e29d131f","index1","<span style='color:red'>Fail,<span style='color:red'>Fail,<span style='color:green'>Lift,<span style='color:green'>Lift,<span style='color:red'>Fail,<span style='color:red'>Fail,<span style='color:red'>Fail,<span style='color:red'>Fail,<span style='color:green'>Lift,<span style='color:red'>Fail,<span style='color:red'>Fail,<span style='color:green'>Lift","<span style='color:red'>Fail,<span style='color:red'>Fail,<span style='color:green'>Lift,<span style='color:green'>Lift,<span style='color:green'>Lift,<span style='color:green'>Lift,<span style='color:red'>Fail,<span style='color:green'>Lift,<span style='color:green'>Lift,<span style='color:green'>Lift,<span style='color:red'>Fail,<span style='color:green'>Lift","<span style='color:red'>Fail,<span style='color:green'>Lift,<span style='color:green'>Lift,<span style='color:red'>Fail,<span style='color:green'>Lift,<span style='color:green'>Lift","0,0,1,1,0,0,0,0,1,0,0,1","0,0,1,1,1,1,0,1,1,1,0,1","0,1,1,0,1,1",10,20,20,"","","<p> <b>Oops you failed an attention check!</b> </p><p> <b>We will have to discard your data if you fail another one.</b> </p><p> <b>Please pay more attention!</b> </p>","null","","",5,"warning",NA,NA,NA,NA,NA,NA,NA,NA,NA,NA,NA,NA,NA,NA,NA,NA,NA,NA,NA,NA,NA,NA,NA,NA,NA,NA,NA,NA,NA,NA,NA,NA,NA,NA,NA,NA,NA,NA,NA,1,"",NA,NA,NA,NA,NA,NA,NA,NA,NA,2025-11-21 01:54:25
"null","https://psyc-201.github.io/xiang2023/exp/index1.html?PROLIFIC_PID=REDACTED&STUDY_ID=691f8ca61c6b4dcbb0aeb5f4&SESSION_ID=691fc170bcce2eb9e29d131f","html-keyboard-response",32,917216,"0.0-343.0","YlX2xc5lL70X025cEs8SbPS9OYc2z80VY1LqwAumNltUCRzK/vKx0IZyA266//lfnA8kXnenoN8N+MetH8RDLb0lRHfBbcGcp+nCv2IaWxOsb48x+1yO+bBgqcIHGBaBaM1gQm+WCJ1KbsSC7O7Vl/g7ET0m4hs/JUQvNDIyxXPasQvQLSa/DRq/KW9r3IiLjHyYtZu8b14bknyv7nF7z41f82NxAloZ2RHDVkvvjuj8R+6FI4zrL90dGyYexuKvHCyboKMBP5zjQxWfrewaAQMl/FrGCI4LGVgNynWAjs3YnDSOqa7jLsSZXgqSmiOCPdtcUpztlmVDKlJqCZhr5Q==","691f8ca61c6b4dcbb0aeb5f4","691fc170bcce2eb9e29d131f","index1","<span style='color:red'>Fail,<span style='color:red'>Fail,<span style='color:green'>Lift,<span style='color:green'>Lift,<span style='color:red'>Fail,<span style='color:red'>Fail,<span style='color:red'>Fail,<span style='color:red'>Fail,<span style='color:green'>Lift,<span style='color:red'>Fail,<span style='color:red'>Fail,<span style='color:green'>Lift","<span style='color:red'>Fail,<span style='color:red'>Fail,<span style='color:green'>Lift,<span style='color:green'>Lift,<span style='color:green'>Lift,<span style='color:green'>Lift,<span style='color:red'>Fail,<span style='color:green'>Lift,<span style='color:green'>Lift,<span style='color:green'>Lift,<span style='color:red'>Fail,<span style='color:green'>Lift","<span style='color:red'>Fail,<span style='color:green'>Lift,<span style='color:green'>Lift,<span style='color:red'>Fail,<span style='color:green'>Lift,<span style='color:green'>Lift","0,0,1,1,0,0,0,0,1,0,0,1","0,0,1,1,1,1,0,1,1,1,0,1","0,1,1,0,1,1",10,20,20,"","","<p style='font-size:30px'><b> New Contest! </b></p>","null","","",5,"",NA,NA,NA,NA,NA,NA,NA,NA,NA,NA,NA,NA,NA,NA,NA,NA,NA,NA,NA,NA,NA,NA,NA,NA,NA,NA,NA,NA,NA,NA,NA,NA,NA,NA,NA,NA,NA,NA,NA,NA,"",NA,NA,NA,NA,NA,NA,NA,NA,NA,2025-11-21 01:54:25
"41072.20000000298","https://psyc-201.github.io/xiang2023/exp/index1.html?PROLIFIC_PID=REDACTED&STUDY_ID=691f8ca61c6b4dcbb0aeb5f4&SESSION_ID=691fc170bcce2eb9e29d131f","survey-html-form",33,958291,"0.0-344.0","YlX2xc5lL70X025cEs8SbPS9OYc2z80VY1LqwAumNltUCRzK/vKx0IZyA266//lfnA8kXnenoN8N+MetH8RDLb0lRHfBbcGcp+nCv2IaWxOsb48x+1yO+bBgqcIHGBaBaM1gQm+WCJ1KbsSC7O7Vl/g7ET0m4hs/JUQvNDIyxXPasQvQLSa/DRq/KW9r3IiLjHyYtZu8b14bknyv7nF7z41f82NxAloZ2RHDVkvvjuj8R+6FI4zrL90dGyYexuKvHCyboKMBP5zjQxWfrewaAQMl/FrGCI4LGVgNynWAjs3YnDSOqa7jLsSZXgqSmiOCPdtcUpztlmVDKlJqCZhr5Q==","691f8ca61c6b4dcbb0aeb5f4","691fc170bcce2eb9e29d131f","index1","<span style='color:red'>Fail,<span style='color:red'>Fail,<span style='color:green'>Lift,<span style='color:green'>Lift,<span style='color:red'>Fail,<span style='color:red'>Fail,<span style='color:red'>Fail,<span style='color:red'>Fail,<span style='color:green'>Lift,<span style='color:red'>Fail,<span style='color:red'>Fail,<span style='color:green'>Lift","<span style='color:red'>Fail,<span style='color:red'>Fail,<span style='color:green'>Lift,<span style='color:green'>Lift,<span style='color:green'>Lift,<span style='color:green'>Lift,<span style='color:red'>Fail,<span style='color:green'>Lift,<span style='color:green'>Lift,<span style='color:green'>Lift,<span style='color:red'>Fail,<span style='color:green'>Lift","<span style='color:red'>Fail,<span style='color:green'>Lift,<span style='color:green'>Lift,<span style='color:red'>Fail,<span style='color:green'>Lift,<span style='color:green'>Lift","0,0,1,1,0,0,0,0,1,0,0,1","0,0,1,1,1,1,0,1,1,1,0,1","0,1,1,0,1,1",10,20,20,"","","","","{""box1"":""4"",""box2"":""3""}","",5,"round1_outcome",1,5,1,4,3,NA,NA,0,0,10,4,3,NA,NA,0,0,10,NA,NA,NA,NA,NA,NA,NA,NA,NA,NA,NA,NA,NA,NA,NA,NA,NA,NA,NA,NA,NA,NA,NA,"",NA,NA,NA,NA,NA,NA,NA,NA,NA,2025-11-21 01:54:25
"25236.69999998808","https://psyc-201.github.io/xiang2023/exp/index1.html?PROLIFIC_PID=REDACTED&STUDY_ID=691f8ca61c6b4dcbb0aeb5f4&SESSION_ID=691fc170bcce2eb9e29d131f","survey-html-form",34,983531,"0.0-345.0","YlX2xc5lL70X025cEs8SbPS9OYc2z80VY1LqwAumNltUCRzK/vKx0IZyA266//lfnA8kXnenoN8N+MetH8RDLb0lRHfBbcGcp+nCv2IaWxOsb48x+1yO+bBgqcIHGBaBaM1gQm+WCJ1KbsSC7O7Vl/g7ET0m4hs/JUQvNDIyxXPasQvQLSa/DRq/KW9r3IiLjHyYtZu8b14bknyv7nF7z41f82NxAloZ2RHDVkvvjuj8R+6FI4zrL90dGyYexuKvHCyboKMBP5zjQxWfrewaAQMl/FrGCI4LGVgNynWAjs3YnDSOqa7jLsSZXgqSmiOCPdtcUpztlmVDKlJqCZhr5Q==","691f8ca61c6b4dcbb0aeb5f4","691fc170bcce2eb9e29d131f","index1","<span style='color:red'>Fail,<span style='color:red'>Fail,<span style='color:green'>Lift,<span style='color:green'>Lift,<span style='color:red'>Fail,<span style='color:red'>Fail,<span style='color:red'>Fail,<span style='color:red'>Fail,<span style='color:green'>Lift,<span style='color:red'>Fail,<span style='color:red'>Fail,<span style='color:green'>Lift","<span style='color:red'>Fail,<span style='color:red'>Fail,<span style='color:green'>Lift,<span style='color:green'>Lift,<span style='color:green'>Lift,<span style='color:green'>Lift,<span style='color:red'>Fail,<span style='color:green'>Lift,<span style='color:green'>Lift,<span style='color:green'>Lift,<span style='color:red'>Fail,<span style='color:green'>Lift","<span style='color:red'>Fail,<span style='color:green'>Lift,<span style='color:green'>Lift,<span style='color:red'>Fail,<span style='color:green'>Lift,<span style='color:green'>Lift","0,0,1,1,0,0,0,0,1,0,0,1","0,0,1,1,1,1,0,1,1,1,0,1","0,1,1,0,1,1",10,20,20,"","","","","{""box1"":""25"",""box2"":""5""}","",5,"round2_ready",2,5,2,NA,NA,NA,NA,NA,NA,NA,NA,NA,NA,NA,NA,NA,NA,25,5,25,5,NA,NA,NA,NA,NA,NA,NA,NA,NA,NA,NA,NA,NA,NA,NA,NA,NA,NA,NA,"",NA,NA,NA,NA,NA,NA,NA,NA,NA,2025-11-21 01:54:25
"27284.29999999702","https://psyc-201.github.io/xiang2023/exp/index1.html?PROLIFIC_PID=REDACTED&STUDY_ID=691f8ca61c6b4dcbb0aeb5f4&SESSION_ID=691fc170bcce2eb9e29d131f","survey-html-form",35,1010819,"0.0-346.0","YlX2xc5lL70X025cEs8SbPS9OYc2z80VY1LqwAumNltUCRzK/vKx0IZyA266//lfnA8kXnenoN8N+MetH8RDLb0lRHfBbcGcp+nCv2IaWxOsb48x+1yO+bBgqcIHGBaBaM1gQm+WCJ1KbsSC7O7Vl/g7ET0m4hs/JUQvNDIyxXPasQvQLSa/DRq/KW9r3IiLjHyYtZu8b14bknyv7nF7z41f82NxAloZ2RHDVkvvjuj8R+6FI4zrL90dGyYexuKvHCyboKMBP5zjQxWfrewaAQMl/FrGCI4LGVgNynWAjs3YnDSOqa7jLsSZXgqSmiOCPdtcUpztlmVDKlJqCZhr5Q==","691f8ca61c6b4dcbb0aeb5f4","691fc170bcce2eb9e29d131f","index1","<span style='color:red'>Fail,<span style='color:red'>Fail,<span style='color:green'>Lift,<span style='color:green'>Lift,<span style='color:red'>Fail,<span style='color:red'>Fail,<span style='color:red'>Fail,<span style='color:red'>Fail,<span style='color:green'>Lift,<span style='color:red'>Fail,<span style='color:red'>Fail,<span style='color:green'>Lift","<span style='color:red'>Fail,<span style='color:red'>Fail,<span style='color:green'>Lift,<span style='color:green'>Lift,<span style='color:green'>Lift,<span style='color:green'>Lift,<span style='color:red'>Fail,<span style='color:green'>Lift,<span style='color:green'>Lift,<span style='color:green'>Lift,<span style='color:red'>Fail,<span style='color:green'>Lift","<span style='color:red'>Fail,<span style='color:green'>Lift,<span style='color:green'>Lift,<span style='color:red'>Fail,<span style='color:green'>Lift,<span style='color:green'>Lift","0,0,1,1,0,0,0,0,1,0,0,1","0,0,1,1,1,1,0,1,1,1,0,1","0,1,1,0,1,1",10,20,20,"","","","","{""box1"":""4"",""box2"":""5"",""box4"":""100""}","",5,"round2_outcome",3,5,2,4,5,NA,100,0,1,20,NA,NA,NA,NA,NA,NA,NA,NA,NA,NA,NA,4,5,NA,100,0,1,20,NA,NA,NA,NA,NA,NA,NA,NA,NA,NA,NA,NA,"",NA,NA,NA,NA,NA,NA,NA,NA,NA,2025-11-21 01:54:25
"23612.10000000894","https://psyc-201.github.io/xiang2023/exp/index1.html?PROLIFIC_PID=REDACTED&STUDY_ID=691f8ca61c6b4dcbb0aeb5f4&SESSION_ID=691fc170bcce2eb9e29d131f","survey-html-form",36,1034434,"0.0-347.0","YlX2xc5lL70X025cEs8SbPS9OYc2z80VY1LqwAumNltUCRzK/vKx0IZyA266//lfnA8kXnenoN8N+MetH8RDLb0lRHfBbcGcp+nCv2IaWxOsb48x+1yO+bBgqcIHGBaBaM1gQm+WCJ1KbsSC7O7Vl/g7ET0m4hs/JUQvNDIyxXPasQvQLSa/DRq/KW9r3IiLjHyYtZu8b14bknyv7nF7z41f82NxAloZ2RHDVkvvjuj8R+6FI4zrL90dGyYexuKvHCyboKMBP5zjQxWfrewaAQMl/FrGCI4LGVgNynWAjs3YnDSOqa7jLsSZXgqSmiOCPdtcUpztlmVDKlJqCZhr5Q==","691f8ca61c6b4dcbb0aeb5f4","691fc170bcce2eb9e29d131f","index1","<span style='color:red'>Fail,<span style='color:red'>Fail,<span style='color:green'>Lift,<span style='color:green'>Lift,<span style='color:red'>Fail,<span style='color:red'>Fail,<span style='color:red'>Fail,<span style='color:red'>Fail,<span style='color:green'>Lift,<span style='color:red'>Fail,<span style='color:red'>Fail,<span style='color:green'>Lift","<span style='color:red'>Fail,<span style='color:red'>Fail,<span style='color:green'>Lift,<span style='color:green'>Lift,<span style='color:green'>Lift,<span style='color:green'>Lift,<span style='color:red'>Fail,<span style='color:green'>Lift,<span style='color:green'>Lift,<span style='color:green'>Lift,<span style='color:red'>Fail,<span style='color:green'>Lift","<span style='color:red'>Fail,<span style='color:green'>Lift,<span style='color:green'>Lift,<span style='color:red'>Fail,<span style='color:green'>Lift,<span style='color:green'>Lift","0,0,1,1,0,0,0,0,1,0,0,1","0,0,1,1,1,1,0,1,1,1,0,1","0,1,1,0,1,1",10,20,20,"","","","","{""box1"":""98""}","",5,"round3_ready",4,5,3,NA,NA,NA,NA,NA,NA,NA,NA,NA,NA,NA,NA,NA,NA,98,98,NA,NA,NA,NA,NA,NA,NA,NA,NA,98,98,NA,NA,NA,NA,NA,NA,NA,NA,NA,NA,"",NA,NA,NA,NA,NA,NA,NA,NA,NA,2025-11-21 01:54:25
"43219.20000000298","https://psyc-201.github.io/xiang2023/exp/index1.html?PROLIFIC_PID=REDACTED&STUDY_ID=691f8ca61c6b4dcbb0aeb5f4&SESSION_ID=691fc170bcce2eb9e29d131f","survey-html-form",37,1077659,"0.0-349.0-0.0","YlX2xc5lL70X025cEs8SbPS9OYc2z80VY1LqwAumNltUCRzK/vKx0IZyA266//lfnA8kXnenoN8N+MetH8RDLb0lRHfBbcGcp+nCv2IaWxOsb48x+1yO+bBgqcIHGBaBaM1gQm+WCJ1KbsSC7O7Vl/g7ET0m4hs/JUQvNDIyxXPasQvQLSa/DRq/KW9r3IiLjHyYtZu8b14bknyv7nF7z41f82NxAloZ2RHDVkvvjuj8R+6FI4zrL90dGyYexuKvHCyboKMBP5zjQxWfrewaAQMl/FrGCI4LGVgNynWAjs3YnDSOqa7jLsSZXgqSmiOCPdtcUpztlmVDKlJqCZhr5Q==","691f8ca61c6b4dcbb0aeb5f4","691fc170bcce2eb9e29d131f","index1","<span style='color:red'>Fail,<span style='color:red'>Fail,<span style='color:green'>Lift,<span style='color:green'>Lift,<span style='color:red'>Fail,<span style='color:red'>Fail,<span style='color:red'>Fail,<span style='color:red'>Fail,<span style='color:green'>Lift,<span style='color:red'>Fail,<span style='color:red'>Fail,<span style='color:green'>Lift","<span style='color:red'>Fail,<span style='color:red'>Fail,<span style='color:green'>Lift,<span style='color:green'>Lift,<span style='color:green'>Lift,<span style='color:green'>Lift,<span style='color:red'>Fail,<span style='color:green'>Lift,<span style='color:green'>Lift,<span style='color:green'>Lift,<span style='color:red'>Fail,<span style='color:green'>Lift","<span style='color:red'>Fail,<span style='color:green'>Lift,<span style='color:green'>Lift,<span style='color:red'>Fail,<span style='color:green'>Lift,<span style='color:green'>Lift","0,0,1,1,0,0,0,0,1,0,0,1","0,0,1,1,1,1,0,1,1,1,0,1","0,1,1,0,1,1",10,20,20,"","","","","{""box1"":""4"",""box2"":""5"",""box3"":""999"",""box4"":""999""}","",6,"round3_fail",5,5,3,4,5,NA,NA,0,0,20,NA,NA,NA,NA,NA,NA,NA,NA,NA,NA,NA,NA,NA,NA,NA,NA,NA,NA,NA,NA,4,5,NA,NA,0,0,20,1,1,NA,"",NA,NA,NA,NA,NA,NA,NA,NA,NA,2025-11-21 01:54:25
"null","https://psyc-201.github.io/xiang2023/exp/index1.html?PROLIFIC_PID=REDACTED&STUDY_ID=691f8ca61c6b4dcbb0aeb5f4&SESSION_ID=691fc170bcce2eb9e29d131f","html-keyboard-response",38,1080673,"0.0-352.0","YlX2xc5lL70X025cEs8SbPS9OYc2z80VY1LqwAumNltUCRzK/vKx0IZyA266//lfnA8kXnenoN8N+MetH8RDLb0lRHfBbcGcp+nCv2IaWxOsb48x+1yO+bBgqcIHGBaBaM1gQm+WCJ1KbsSC7O7Vl/g7ET0m4hs/JUQvNDIyxXPasQvQLSa/DRq/KW9r3IiLjHyYtZu8b14bknyv7nF7z41f82NxAloZ2RHDVkvvjuj8R+6FI4zrL90dGyYexuKvHCyboKMBP5zjQxWfrewaAQMl/FrGCI4LGVgNynWAjs3YnDSOqa7jLsSZXgqSmiOCPdtcUpztlmVDKlJqCZhr5Q==","691f8ca61c6b4dcbb0aeb5f4","691fc170bcce2eb9e29d131f","index1","<span style='color:red'>Fail,<span style='color:red'>Fail,<span style='color:green'>Lift,<span style='color:green'>Lift,<span style='color:red'>Fail,<span style='color:red'>Fail,<span style='color:red'>Fail,<span style='color:red'>Fail,<span style='color:green'>Lift,<span style='color:red'>Fail,<span style='color:red'>Fail,<span style='color:green'>Lift","<span style='color:red'>Fail,<span style='color:red'>Fail,<span style='color:green'>Lift,<span style='color:green'>Lift,<span style='color:green'>Lift,<span style='color:green'>Lift,<span style='color:red'>Fail,<span style='color:green'>Lift,<span style='color:green'>Lift,<span style='color:green'>Lift,<span style='color:red'>Fail,<span style='color:green'>Lift","<span style='color:red'>Fail,<span style='color:green'>Lift,<span style='color:green'>Lift,<span style='color:red'>Fail,<span style='color:green'>Lift,<span style='color:green'>Lift","0,0,1,1,0,0,0,0,1,0,0,1","0,0,1,1,1,1,0,1,1,1,0,1","0,1,1,0,1,1",10,20,20,"","","<p style='font-size:30px'><b> New Contest! </b></p>","null","","",6,"",NA,NA,NA,NA,NA,NA,NA,NA,NA,NA,NA,NA,NA,NA,NA,NA,NA,NA,NA,NA,NA,NA,NA,NA,NA,NA,NA,NA,NA,NA,NA,NA,NA,NA,NA,NA,NA,NA,NA,NA,"",NA,NA,NA,NA,NA,NA,NA,NA,NA,2025-11-21 01:54:25
"7358.4000000059605","https://psyc-201.github.io/xiang2023/exp/index1.html?PROLIFIC_PID=REDACTED&STUDY_ID=691f8ca61c6b4dcbb0aeb5f4&SESSION_ID=691fc170bcce2eb9e29d131f","survey-html-form",39,1088034,"0.0-353.0","YlX2xc5lL70X025cEs8SbPS9OYc2z80VY1LqwAumNltUCRzK/vKx0IZyA266//lfnA8kXnenoN8N+MetH8RDLb0lRHfBbcGcp+nCv2IaWxOsb48x+1yO+bBgqcIHGBaBaM1gQm+WCJ1KbsSC7O7Vl/g7ET0m4hs/JUQvNDIyxXPasQvQLSa/DRq/KW9r3IiLjHyYtZu8b14bknyv7nF7z41f82NxAloZ2RHDVkvvjuj8R+6FI4zrL90dGyYexuKvHCyboKMBP5zjQxWfrewaAQMl/FrGCI4LGVgNynWAjs3YnDSOqa7jLsSZXgqSmiOCPdtcUpztlmVDKlJqCZhr5Q==","691f8ca61c6b4dcbb0aeb5f4","691fc170bcce2eb9e29d131f","index1","<span style='color:red'>Fail,<span style='color:red'>Fail,<span style='color:green'>Lift,<span style='color:green'>Lift,<span style='color:red'>Fail,<span style='color:red'>Fail,<span style='color:red'>Fail,<span style='color:red'>Fail,<span style='color:green'>Lift,<span style='color:red'>Fail,<span style='color:red'>Fail,<span style='color:green'>Lift","<span style='color:red'>Fail,<span style='color:red'>Fail,<span style='color:green'>Lift,<span style='color:green'>Lift,<span style='color:green'>Lift,<span style='color:green'>Lift,<span style='color:red'>Fail,<span style='color:green'>Lift,<span style='color:green'>Lift,<span style='color:green'>Lift,<span style='color:red'>Fail,<span style='color:green'>Lift","<span style='color:red'>Fail,<span style='color:green'>Lift,<span style='color:green'>Lift,<span style='color:red'>Fail,<span style='color:green'>Lift,<span style='color:green'>Lift","0,0,1,1,0,0,0,0,1,0,0,1","0,0,1,1,1,1,0,1,1,1,0,1","0,1,1,0,1,1",10,20,20,"","","","","{""box1"":""4"",""box2"":""5""}","",6,"round1_outcome",1,6,1,4,5,NA,NA,0,0,10,4,5,NA,NA,0,0,10,NA,NA,NA,NA,NA,NA,NA,NA,NA,NA,NA,NA,NA,NA,NA,NA,NA,NA,NA,NA,NA,NA,NA,"",NA,NA,NA,NA,NA,NA,NA,NA,NA,2025-11-21 01:54:25
"5851.79999999702","https://psyc-201.github.io/xiang2023/exp/index1.html?PROLIFIC_PID=REDACTED&STUDY_ID=691f8ca61c6b4dcbb0aeb5f4&SESSION_ID=691fc170bcce2eb9e29d131f","survey-html-form",40,1093890,"0.0-354.0","YlX2xc5lL70X025cEs8SbPS9OYc2z80VY1LqwAumNltUCRzK/vKx0IZyA266//lfnA8kXnenoN8N+MetH8RDLb0lRHfBbcGcp+nCv2IaWxOsb48x+1yO+bBgqcIHGBaBaM1gQm+WCJ1KbsSC7O7Vl/g7ET0m4hs/JUQvNDIyxXPasQvQLSa/DRq/KW9r3IiLjHyYtZu8b14bknyv7nF7z41f82NxAloZ2RHDVkvvjuj8R+6FI4zrL90dGyYexuKvHCyboKMBP5zjQxWfrewaAQMl/FrGCI4LGVgNynWAjs3YnDSOqa7jLsSZXgqSmiOCPdtcUpztlmVDKlJqCZhr5Q==","691f8ca61c6b4dcbb0aeb5f4","691fc170bcce2eb9e29d131f","index1","<span style='color:red'>Fail,<span style='color:red'>Fail,<span style='color:green'>Lift,<span style='color:green'>Lift,<span style='color:red'>Fail,<span style='color:red'>Fail,<span style='color:red'>Fail,<span style='color:red'>Fail,<span style='color:green'>Lift,<span style='color:red'>Fail,<span style='color:red'>Fail,<span style='color:green'>Lift","<span style='color:red'>Fail,<span style='color:red'>Fail,<span style='color:green'>Lift,<span style='color:green'>Lift,<span style='color:green'>Lift,<span style='color:green'>Lift,<span style='color:red'>Fail,<span style='color:green'>Lift,<span style='color:green'>Lift,<span style='color:green'>Lift,<span style='color:red'>Fail,<span style='color:green'>Lift","<span style='color:red'>Fail,<span style='color:green'>Lift,<span style='color:green'>Lift,<span style='color:red'>Fail,<span style='color:green'>Lift,<span style='color:green'>Lift","0,0,1,1,0,0,0,0,1,0,0,1","0,0,1,1,1,1,0,1,1,1,0,1","0,1,1,0,1,1",10,20,20,"","","","","{""box1"":""60"",""box2"":""70""}","",6,"round2_ready",2,6,2,NA,NA,NA,NA,NA,NA,NA,NA,NA,NA,NA,NA,NA,NA,60,70,60,70,NA,NA,NA,NA,NA,NA,NA,NA,NA,NA,NA,NA,NA,NA,NA,NA,NA,NA,NA,"",NA,NA,NA,NA,NA,NA,NA,NA,NA,2025-11-21 01:54:25
"11334.59999999404","https://psyc-201.github.io/xiang2023/exp/index1.html?PROLIFIC_PID=REDACTED&STUDY_ID=691f8ca61c6b4dcbb0aeb5f4&SESSION_ID=691fc170bcce2eb9e29d131f","survey-html-form",41,1105227,"0.0-355.0","YlX2xc5lL70X025cEs8SbPS9OYc2z80VY1LqwAumNltUCRzK/vKx0IZyA266//lfnA8kXnenoN8N+MetH8RDLb0lRHfBbcGcp+nCv2IaWxOsb48x+1yO+bBgqcIHGBaBaM1gQm+WCJ1KbsSC7O7Vl/g7ET0m4hs/JUQvNDIyxXPasQvQLSa/DRq/KW9r3IiLjHyYtZu8b14bknyv7nF7z41f82NxAloZ2RHDVkvvjuj8R+6FI4zrL90dGyYexuKvHCyboKMBP5zjQxWfrewaAQMl/FrGCI4LGVgNynWAjs3YnDSOqa7jLsSZXgqSmiOCPdtcUpztlmVDKlJqCZhr5Q==","691f8ca61c6b4dcbb0aeb5f4","691fc170bcce2eb9e29d131f","index1","<span style='color:red'>Fail,<span style='color:red'>Fail,<span style='color:green'>Lift,<span style='color:green'>Lift,<span style='color:red'>Fail,<span style='color:red'>Fail,<span style='color:red'>Fail,<span style='color:red'>Fail,<span style='color:green'>Lift,<span style='color:red'>Fail,<span style='color:red'>Fail,<span style='color:green'>Lift","<span style='color:red'>Fail,<span style='color:red'>Fail,<span style='color:green'>Lift,<span style='color:green'>Lift,<span style='color:green'>Lift,<span style='color:green'>Lift,<span style='color:red'>Fail,<span style='color:green'>Lift,<span style='color:green'>Lift,<span style='color:green'>Lift,<span style='color:red'>Fail,<span style='color:green'>Lift","<span style='color:red'>Fail,<span style='color:green'>Lift,<span style='color:green'>Lift,<span style='color:red'>Fail,<span style='color:green'>Lift,<span style='color:green'>Lift","0,0,1,1,0,0,0,0,1,0,0,1","0,0,1,1,1,1,0,1,1,1,0,1","0,1,1,0,1,1",10,20,20,"","","","","{""box1"":""4"",""box2"":""5"",""box3"":""40"",""box4"":""50""}","",6,"round2_outcome",3,6,2,4,5,40,50,1,1,20,NA,NA,NA,NA,NA,NA,NA,NA,NA,NA,NA,4,5,40,50,1,1,20,NA,NA,NA,NA,NA,NA,NA,NA,NA,NA,NA,NA,"",NA,NA,NA,NA,NA,NA,NA,NA,NA,2025-11-21 01:54:25
"3643.9000000059605","https://psyc-201.github.io/xiang2023/exp/index1.html?PROLIFIC_PID=REDACTED&STUDY_ID=691f8ca61c6b4dcbb0aeb5f4&SESSION_ID=691fc170bcce2eb9e29d131f","survey-html-form",42,1108874,"0.0-356.0","YlX2xc5lL70X025cEs8SbPS9OYc2z80VY1LqwAumNltUCRzK/vKx0IZyA266//lfnA8kXnenoN8N+MetH8RDLb0lRHfBbcGcp+nCv2IaWxOsb48x+1yO+bBgqcIHGBaBaM1gQm+WCJ1KbsSC7O7Vl/g7ET0m4hs/JUQvNDIyxXPasQvQLSa/DRq/KW9r3IiLjHyYtZu8b14bknyv7nF7z41f82NxAloZ2RHDVkvvjuj8R+6FI4zrL90dGyYexuKvHCyboKMBP5zjQxWfrewaAQMl/FrGCI4LGVgNynWAjs3YnDSOqa7jLsSZXgqSmiOCPdtcUpztlmVDKlJqCZhr5Q==","691f8ca61c6b4dcbb0aeb5f4","691fc170bcce2eb9e29d131f","index1","<span style='color:red'>Fail,<span style='color:red'>Fail,<span style='color:green'>Lift,<span style='color:green'>Lift,<span style='color:red'>Fail,<span style='color:red'>Fail,<span style='color:red'>Fail,<span style='color:red'>Fail,<span style='color:green'>Lift,<span style='color:red'>Fail,<span style='color:red'>Fail,<span style='color:green'>Lift","<span style='color:red'>Fail,<span style='color:red'>Fail,<span style='color:green'>Lift,<span style='color:green'>Lift,<span style='color:green'>Lift,<span style='color:green'>Lift,<span style='color:red'>Fail,<span style='color:green'>Lift,<span style='color:green'>Lift,<span style='color:green'>Lift,<span style='color:red'>Fail,<span style='color:green'>Lift","<span style='color:red'>Fail,<span style='color:green'>Lift,<span style='color:green'>Lift,<span style='color:red'>Fail,<span style='color:green'>Lift,<span style='color:green'>Lift","0,0,1,1,0,0,0,0,1,0,0,1","0,0,1,1,1,1,0,1,1,1,0,1","0,1,1,0,1,1",10,20,20,"","","","","{""box1"":""60""}","",6,"round3_ready",4,6,3,NA,NA,NA,NA,NA,NA,NA,NA,NA,NA,NA,NA,NA,NA,60,60,NA,NA,NA,NA,NA,NA,NA,NA,NA,60,60,NA,NA,NA,NA,NA,NA,NA,NA,NA,NA,"",NA,NA,NA,NA,NA,NA,NA,NA,NA,2025-11-21 01:54:25
"13188.79999999702","https://psyc-201.github.io/xiang2023/exp/index1.html?PROLIFIC_PID=REDACTED&STUDY_ID=691f8ca61c6b4dcbb0aeb5f4&SESSION_ID=691fc170bcce2eb9e29d131f","survey-html-form",43,1122066,"0.0-357.0-0.0","YlX2xc5lL70X025cEs8SbPS9OYc2z80VY1LqwAumNltUCRzK/vKx0IZyA266//lfnA8kXnenoN8N+MetH8RDLb0lRHfBbcGcp+nCv2IaWxOsb48x+1yO+bBgqcIHGBaBaM1gQm+WCJ1KbsSC7O7Vl/g7ET0m4hs/JUQvNDIyxXPasQvQLSa/DRq/KW9r3IiLjHyYtZu8b14bknyv7nF7z41f82NxAloZ2RHDVkvvjuj8R+6FI4zrL90dGyYexuKvHCyboKMBP5zjQxWfrewaAQMl/FrGCI4LGVgNynWAjs3YnDSOqa7jLsSZXgqSmiOCPdtcUpztlmVDKlJqCZhr5Q==","691f8ca61c6b4dcbb0aeb5f4","691fc170bcce2eb9e29d131f","index1","<span style='color:red'>Fail,<span style='color:red'>Fail,<span style='color:green'>Lift,<span style='color:green'>Lift,<span style='color:red'>Fail,<span style='color:red'>Fail,<span style='color:red'>Fail,<span style='color:red'>Fail,<span style='color:green'>Lift,<span style='color:red'>Fail,<span style='color:red'>Fail,<span style='color:green'>Lift","<span style='color:red'>Fail,<span style='color:red'>Fail,<span style='color:green'>Lift,<span style='color:green'>Lift,<span style='color:green'>Lift,<span style='color:green'>Lift,<span style='color:red'>Fail,<span style='color:green'>Lift,<span style='color:green'>Lift,<span style='color:green'>Lift,<span style='color:red'>Fail,<span style='color:green'>Lift","<span style='color:red'>Fail,<span style='color:green'>Lift,<span style='color:green'>Lift,<span style='color:red'>Fail,<span style='color:green'>Lift,<span style='color:green'>Lift","0,0,1,1,0,0,0,0,1,0,0,1","0,0,1,1,1,1,0,1,1,1,0,1","0,1,1,0,1,1",10,20,20,"","","","","{""box1"":""4"",""box2"":""5"",""box3"":""40"",""box4"":""50""}","",6,"round3_lift",5,6,3,4,5,40,50,1,1,20,NA,NA,NA,NA,NA,NA,NA,NA,NA,NA,NA,NA,NA,NA,NA,NA,NA,NA,NA,NA,4,5,40,50,1,1,20,NA,NA,NA,"",NA,NA,NA,NA,NA,NA,NA,NA,NA,2025-11-21 01:54:25
"82243.30000001192","https://psyc-201.github.io/xiang2023/exp/index1.html?PROLIFIC_PID=REDACTED&STUDY_ID=691f8ca61c6b4dcbb0aeb5f4&SESSION_ID=691fc170bcce2eb9e29d131f","survey-text",44,1204324,"0.0-361.0","YlX2xc5lL70X025cEs8SbPS9OYc2z80VY1LqwAumNltUCRzK/vKx0IZyA266//lfnA8kXnenoN8N+MetH8RDLb0lRHfBbcGcp+nCv2IaWxOsb48x+1yO+bBgqcIHGBaBaM1gQm+WCJ1KbsSC7O7Vl/g7ET0m4hs/JUQvNDIyxXPasQvQLSa/DRq/KW9r3IiLjHyYtZu8b14bknyv7nF7z41f82NxAloZ2RHDVkvvjuj8R+6FI4zrL90dGyYexuKvHCyboKMBP5zjQxWfrewaAQMl/FrGCI4LGVgNynWAjs3YnDSOqa7jLsSZXgqSmiOCPdtcUpztlmVDKlJqCZhr5Q==","691f8ca61c6b4dcbb0aeb5f4","691fc170bcce2eb9e29d131f","index1","<span style='color:red'>Fail,<span style='color:red'>Fail,<span style='color:green'>Lift,<span style='color:green'>Lift,<span style='color:red'>Fail,<span style='color:red'>Fail,<span style='color:red'>Fail,<span style='color:red'>Fail,<span style='color:green'>Lift,<span style='color:red'>Fail,<span style='color:red'>Fail,<span style='color:green'>Lift","<span style='color:red'>Fail,<span style='color:red'>Fail,<span style='color:green'>Lift,<span style='color:green'>Lift,<span style='color:green'>Lift,<span style='color:green'>Lift,<span style='color:red'>Fail,<span style='color:green'>Lift,<span style='color:green'>Lift,<span style='color:green'>Lift,<span style='color:red'>Fail,<span style='color:green'>Lift","<span style='color:red'>Fail,<span style='color:green'>Lift,<span style='color:green'>Lift,<span style='color:red'>Fail,<span style='color:green'>Lift,<span style='color:green'>Lift","0,0,1,1,0,0,0,0,1,0,0,1","0,0,1,1,1,1,0,1,1,1,0,1","0,1,1,0,1,1",10,20,20,"","","","","{""Q0"":""I completed five contests, each involving a pair of contestants attempting to lift a box of constant weight 5 units across three rounds with increasing financial incentives, culminating in a joint lift for a shared prize""}","",NA,"",NA,NA,NA,NA,NA,NA,NA,NA,NA,NA,NA,NA,NA,NA,NA,NA,NA,NA,NA,NA,NA,NA,NA,NA,NA,NA,NA,NA,NA,NA,NA,NA,NA,NA,NA,NA,NA,NA,NA,NA,"",NA,NA,NA,NA,NA,NA,NA,NA,NA,2025-11-21 01:54:25
"3972.9000000059605","https://psyc-201.github.io/xiang2023/exp/index1.html?PROLIFIC_PID=REDACTED&STUDY_ID=691f8ca61c6b4dcbb0aeb5f4&SESSION_ID=691fc170bcce2eb9e29d131f","survey-text",45,1208305,"0.0-362.0","YlX2xc5lL70X025cEs8SbPS9OYc2z80VY1LqwAumNltUCRzK/vKx0IZyA266//lfnA8kXnenoN8N+MetH8RDLb0lRHfBbcGcp+nCv2IaWxOsb48x+1yO+bBgqcIHGBaBaM1gQm+WCJ1KbsSC7O7Vl/g7ET0m4hs/JUQvNDIyxXPasQvQLSa/DRq/KW9r3IiLjHyYtZu8b14bknyv7nF7z41f82NxAloZ2RHDVkvvjuj8R+6FI4zrL90dGyYexuKvHCyboKMBP5zjQxWfrewaAQMl/FrGCI4LGVgNynWAjs3YnDSOqa7jLsSZXgqSmiOCPdtcUpztlmVDKlJqCZhr5Q==","691f8ca61c6b4dcbb0aeb5f4","691fc170bcce2eb9e29d131f","index1","<span style='color:red'>Fail,<span style='color:red'>Fail,<span style='color:green'>Lift,<span style='color:green'>Lift,<span style='color:red'>Fail,<span style='color:red'>Fail,<span style='color:red'>Fail,<span style='color:red'>Fail,<span style='color:green'>Lift,<span style='color:red'>Fail,<span style='color:red'>Fail,<span style='color:green'>Lift","<span style='color:red'>Fail,<span style='color:red'>Fail,<span style='color:green'>Lift,<span style='color:green'>Lift,<span style='color:green'>Lift,<span style='color:green'>Lift,<span style='color:red'>Fail,<span style='color:green'>Lift,<span style='color:green'>Lift,<span style='color:green'>Lift,<span style='color:red'>Fail,<span style='color:green'>Lift","<span style='color:red'>Fail,<span style='color:green'>Lift,<span style='color:green'>Lift,<span style='color:red'>Fail,<span style='color:green'>Lift,<span style='color:green'>Lift","0,0,1,1,0,0,0,0,1,0,0,1","0,0,1,1,1,1,0,1,1,1,0,1","0,1,1,0,1,1",10,20,20,"","","","","{""Q0"":""""}","",NA,"",NA,NA,NA,NA,NA,NA,NA,NA,NA,NA,NA,NA,NA,NA,NA,NA,NA,NA,NA,NA,NA,NA,NA,NA,NA,NA,NA,NA,NA,NA,NA,NA,NA,NA,NA,NA,NA,NA,NA,NA,"[{""event"":""fullscreenenter"",""trial"":1,""time"":7340},{""event"":""fullscreenexit"",""trial"":2,""time"":9885},{""event"":""blur"",""trial"":2,""time"":15597},{""event"":""focus"",""trial"":2,""time"":28127},{""event"":""blur"",""trial"":2,""time"":31594},{""event"":""focus"",""trial"":2,""time"":43520},{""event"":""blur"",""trial"":2,""time"":50255},{""event"":""focus"",""trial"":2,""time"":53975},{""event"":""blur"",""trial"":2,""time"":57257},{""event"":""focus"",""trial"":2,""time"":61117},{""event"":""blur"",""trial"":2,""time"":65963},{""event"":""focus"",""trial"":2,""time"":70316},{""event"":""blur"",""trial"":2,""time"":74038},{""event"":""focus"",""trial"":2,""time"":85402},{""event"":""blur"",""trial"":2,""time"":91723},{""event"":""focus"",""trial"":2,""time"":96443},{""event"":""blur"",""trial"":2,""time"":100110},{""event"":""focus"",""trial"":2,""time"":110532},{""event"":""blur"",""trial"":2,""time"":115669},{""event"":""focus"",""trial"":2,""time"":121181},{""event"":""blur"",""trial"":2,""time"":126217},{""event"":""focus"",""trial"":2,""time"":130736},{""event"":""blur"",""trial"":2,""time"":135786},{""event"":""focus"",""trial"":2,""time"":141309},{""event"":""blur"",""trial"":4,""time"":149738},{""event"":""focus"",""trial"":4,""time"":164549},{""event"":""blur"",""trial"":4,""time"":170121},{""event"":""focus"",""trial"":4,""time"":174295},{""event"":""blur"",""trial"":4,""time"":178340},{""event"":""focus"",""trial"":4,""time"":184088},{""event"":""blur"",""trial"":4,""time"":189154},{""event"":""focus"",""trial"":4,""time"":195176},{""event"":""blur"",""trial"":4,""time"":200178},{""event"":""focus"",""trial"":4,""time"":203801},{""event"":""blur"",""trial"":4,""time"":205936},{""event"":""focus"",""trial"":4,""time"":209831},{""event"":""blur"",""trial"":4,""time"":212672},{""event"":""focus"",""trial"":4,""time"":223789},{""event"":""blur"",""trial"":4,""time"":230138},{""event"":""focus"",""trial"":4,""time"":239306},{""event"":""blur"",""trial"":4,""time"":243865},{""event"":""focus"",""trial"":4,""time"":251593},{""event"":""blur"",""trial"":4,""time"":256258},{""event"":""focus"",""trial"":4,""time"":265722},{""event"":""blur"",""trial"":5,""time"":278409},{""event"":""focus"",""trial"":5,""time"":283857},{""event"":""blur"",""trial"":5,""time"":289348},{""event"":""focus"",""trial"":5,""time"":294517},{""event"":""blur"",""trial"":8,""time"":306192},{""event"":""focus"",""trial"":8,""time"":308889},{""event"":""blur"",""trial"":8,""time"":312431},{""event"":""focus"",""trial"":8,""time"":329574},{""event"":""blur"",""trial"":8,""time"":337313},{""event"":""focus"",""trial"":8,""time"":360869},{""event"":""blur"",""trial"":8,""time"":365271},{""event"":""focus"",""trial"":8,""time"":376510},{""event"":""blur"",""trial"":9,""time"":395146},{""event"":""focus"",""trial"":9,""time"":398577},{""event"":""blur"",""trial"":9,""time"":401495},{""event"":""focus"",""trial"":9,""time"":432659},{""event"":""blur"",""trial"":10,""time"":449065},{""event"":""focus"",""trial"":10,""time"":454125},{""event"":""blur"",""trial"":10,""time"":457487},{""event"":""focus"",""trial"":10,""time"":460680},{""event"":""blur"",""trial"":10,""time"":468189},{""event"":""focus"",""trial"":10,""time"":486487},{""event"":""blur"",""trial"":11,""time"":500335},{""event"":""focus"",""trial"":11,""time"":515039},{""event"":""blur"",""trial"":12,""time"":525441},{""event"":""focus"",""trial"":12,""time"":542131},{""event"":""blur"",""trial"":12,""time"":550294},{""event"":""focus"",""trial"":12,""time"":552002},{""event"":""blur"",""trial"":14,""time"":566302},{""event"":""focus"",""trial"":14,""time"":579955},{""event"":""blur"",""trial"":15,""time"":595149},{""event"":""focus"",""trial"":15,""time"":608945},{""event"":""blur"",""trial"":16,""time"":620294},{""event"":""focus"",""trial"":16,""time"":637060},{""event"":""blur"",""trial"":17,""time"":652674},{""event"":""focus"",""trial"":17,""time"":666711},{""event"":""blur"",""trial"":18,""time"":676573},{""event"":""focus"",""trial"":18,""time"":693397},{""event"":""blur"",""trial"":18,""time"":699878},{""event"":""focus"",""trial"":18,""time"":701614},{""event"":""blur"",""trial"":20,""time"":716029},{""event"":""focus"",""trial"":20,""time"":728952},{""event"":""blur"",""trial"":21,""time"":743212},{""event"":""focus"",""trial"":21,""time"":759555},{""event"":""blur"",""trial"":22,""time"":769621},{""event"":""focus"",""trial"":22,""time"":783681},{""event"":""blur"",""trial"":23,""time"":798437},{""event"":""focus"",""trial"":23,""time"":815651},{""event"":""blur"",""trial"":24,""time"":824140},{""event"":""focus"",""trial"":24,""time"":840266},{""event"":""blur"",""trial"":26,""time"":859468},{""event"":""focus"",""trial"":26,""time"":871311},{""event"":""blur"",""trial"":33,""time"":937196},{""event"":""focus"",""trial"":33,""time"":951068},{""event"":""blur"",""trial"":34,""time"":963899},{""event"":""focus"",""trial"":34,""time"":977999},{""event"":""blur"",""trial"":35,""time"":989044},{""event"":""focus"",""trial"":35,""time"":1002199},{""event"":""blur"",""trial"":36,""time"":1015532},{""event"":""focus"",""trial"":36,""time"":1028059},{""event"":""blur"",""trial"":37,""time"":1038618},{""event"":""focus"",""trial"":37,""time"":1056925},{""event"":""blur"",""trial"":44,""time"":1132836},{""event"":""focus"",""trial"":44,""time"":1180651},{""event"":""blur"",""trial"":44,""time"":1181882},{""event"":""focus"",""trial"":44,""time"":1200654}]",3,3,NA,99,1,0.99,NA,NA,NA,2025-11-21 01:54:25
"8873.89999999106","https://psyc-201.github.io/xiang2023/exp/index1.html?PROLIFIC_PID=REDACTED&STUDY_ID=691f8ca61c6b4dcbb0aeb5f4&SESSION_ID=691fc170bcce2eb9e29d131f","html-button-response",46,1217184,"0.0-363.0","YlX2xc5lL70X025cEs8SbPS9OYc2z80VY1LqwAumNltUCRzK/vKx0IZyA266//lfnA8kXnenoN8N+MetH8RDLb0lRHfBbcGcp+nCv2IaWxOsb48x+1yO+bBgqcIHGBaBaM1gQm+WCJ1KbsSC7O7Vl/g7ET0m4hs/JUQvNDIyxXPasQvQLSa/DRq/KW9r3IiLjHyYtZu8b14bknyv7nF7z41f82NxAloZ2RHDVkvvjuj8R+6FI4zrL90dGyYexuKvHCyboKMBP5zjQxWfrewaAQMl/FrGCI4LGVgNynWAjs3YnDSOqa7jLsSZXgqSmiOCPdtcUpztlmVDKlJqCZhr5Q==","691f8ca61c6b4dcbb0aeb5f4","691fc170bcce2eb9e29d131f","index1","<span style='color:red'>Fail,<span style='color:red'>Fail,<span style='color:green'>Lift,<span style='color:green'>Lift,<span style='color:red'>Fail,<span style='color:red'>Fail,<span style='color:red'>Fail,<span style='color:red'>Fail,<span style='color:green'>Lift,<span style='color:red'>Fail,<span style='color:red'>Fail,<span style='color:green'>Lift","<span style='color:red'>Fail,<span style='color:red'>Fail,<span style='color:green'>Lift,<span style='color:green'>Lift,<span style='color:green'>Lift,<span style='color:green'>Lift,<span style='color:red'>Fail,<span style='color:green'>Lift,<span style='color:green'>Lift,<span style='color:green'>Lift,<span style='color:red'>Fail,<span style='color:green'>Lift","<span style='color:red'>Fail,<span style='color:green'>Lift,<span style='color:green'>Lift,<span style='color:red'>Fail,<span style='color:green'>Lift,<span style='color:green'>Lift","0,0,1,1,0,0,0,0,1,0,0,1","0,0,1,1,1,1,0,1,1,1,0,1","0,1,1,0,1,1",10,20,20,"","","<p> We randomly picked <b>Contest 3, Round 3</b> to calculate your bonus. </p><p> The outcome of Contestant E and F on that round is <span style='color:green'>Lift</span>. </p><p> The probability you entered was 99. </p><p><b> You won a bonus of $0.99!</b></p><p> IMPORTANT: Please click 'Next' to complete the game. </p>","","","",NA,"",NA,NA,NA,NA,NA,NA,NA,NA,NA,NA,NA,NA,NA,NA,NA,NA,NA,NA,NA,NA,NA,NA,NA,NA,NA,NA,NA,NA,NA,NA,NA,NA,NA,NA,NA,NA,NA,NA,NA,NA,"",NA,NA,NA,NA,NA,NA,0,1,0,2025-11-21 01:54:25
