"rt","url","trial_type","trial_index","time_elapsed","internal_node_id","encryptedProlificId","studyId","sessionId","expIndex","round1_outcomes","round2_outcomes","round3_outcomes","round1_o","round2_o","round3_o","round1_reward","round2_reward","round3_reward","success","view_history","stimulus","key_press","responses","question_order","button_pressed","j","Stage","stage","contest","round","strength_a","strength_b","effort_a","effort_b","outcome_a","outcome_b","reward","r1_strength_a","r1_strength_b","r1_effort_a","r1_effort_b","r1_outcome_a","r1_outcome_b","r1_reward","probability_a","probability_b","r2_prob_a","r2_prob_b","r2_strength_a","r2_strength_b","r2_effort_a","r2_effort_b","r2_outcome_a","r2_outcome_b","r2_reward","r3_prob_a","r3_prob_b","attention_check","count","r3_strength_a","r3_strength_b","r3_outcome_a","r3_outcome_b","r3_reward","r3_effort_a","r3_effort_b","screen","pick_contest","pick_round","pick_side","trial_probability","trial_outcome","bonus","attention_sum","attention","datapipe_meta.attributes.date_modified"
"3740.9000000953674","https://psyc-201.github.io/xiang2023/exp/index1.html?PROLIFIC_PID=REDACTED&STUDY_ID=691f8ca61c6b4dcbb0aeb5f4&SESSION_ID=691fc04d02c111efd2ff52e6","external-html",0,3898,"0.0-0.0","JpCRvBpZpcF4UEVwW6V9hBhXyHp3xcwoAa6EpEymPs42iaS2u/2tz3OfyAUv5XtvX73RxgaVmLs7nrcb1BBxQqatBZD46GN6fkWHsZe4iboRL9kqCcaNtIOG9UcfnZz3vcDEIakAS8npVZo27VR9Fgj/bUW5NhbJaEUzZGLRjkexDFXpcZ9efzVf115D/q2thbpuq6DMBb2WvBHaVT6qiTL/H3U7Q52LuKudrwTjOF6yuHrv5Njwzy17z9ZFfJm3KvX0zf+2pbNuGlNXGW7LdRY268Q5OWIgWMjy/EnV7tjiai+uHGwe1t8iZuDZxmk46NV0aXAEWTo1z87jnagh7g==","691f8ca61c6b4dcbb0aeb5f4","691fc04d02c111efd2ff52e6","index1","<span style='color:red'>Fail,<span style='color:red'>Fail,<span style='color:green'>Lift,<span style='color:green'>Lift,<span style='color:red'>Fail,<span style='color:red'>Fail,<span style='color:red'>Fail,<span style='color:red'>Fail,<span style='color:red'>Fail,<span style='color:green'>Lift,<span style='color:green'>Lift,<span style='color:red'>Fail","<span style='color:red'>Fail,<span style='color:red'>Fail,<span style='color:green'>Lift,<span style='color:green'>Lift,<span style='color:green'>Lift,<span style='color:green'>Lift,<span style='color:green'>Lift,<span style='color:red'>Fail,<span style='color:green'>Lift,<span style='color:green'>Lift,<span style='color:green'>Lift,<span style='color:red'>Fail","<span style='color:red'>Fail,<span style='color:green'>Lift,<span style='color:green'>Lift,<span style='color:red'>Fail,<span style='color:green'>Lift,<span style='color:green'>Lift","0,0,1,1,0,0,0,0,0,1,1,0","0,0,1,1,1,1,1,0,1,1,1,0","0,1,1,0,1,1",10,20,20,"","","","","","",NA,NA,"",NA,NA,NA,NA,NA,NA,NA,NA,NA,NA,NA,NA,NA,NA,NA,NA,NA,NA,NA,NA,NA,NA,NA,NA,NA,NA,NA,NA,NA,NA,NA,NA,NA,NA,NA,NA,NA,NA,NA,"",NA,NA,NA,NA,NA,NA,NA,NA,2025-11-21 01:50:11
"","https://psyc-201.github.io/xiang2023/exp/index1.html?PROLIFIC_PID=REDACTED&STUDY_ID=691f8ca61c6b4dcbb0aeb5f4&SESSION_ID=691fc04d02c111efd2ff52e6","fullscreen",1,10802,"0.0-1.0","JpCRvBpZpcF4UEVwW6V9hBhXyHp3xcwoAa6EpEymPs42iaS2u/2tz3OfyAUv5XtvX73RxgaVmLs7nrcb1BBxQqatBZD46GN6fkWHsZe4iboRL9kqCcaNtIOG9UcfnZz3vcDEIakAS8npVZo27VR9Fgj/bUW5NhbJaEUzZGLRjkexDFXpcZ9efzVf115D/q2thbpuq6DMBb2WvBHaVT6qiTL/H3U7Q52LuKudrwTjOF6yuHrv5Njwzy17z9ZFfJm3KvX0zf+2pbNuGlNXGW7LdRY268Q5OWIgWMjy/EnV7tjiai+uHGwe1t8iZuDZxmk46NV0aXAEWTo1z87jnagh7g==","691f8ca61c6b4dcbb0aeb5f4","691fc04d02c111efd2ff52e6","index1","<span style='color:red'>Fail,<span style='color:red'>Fail,<span style='color:green'>Lift,<span style='color:green'>Lift,<span style='color:red'>Fail,<span style='color:red'>Fail,<span style='color:red'>Fail,<span style='color:red'>Fail,<span style='color:red'>Fail,<span style='color:green'>Lift,<span style='color:green'>Lift,<span style='color:red'>Fail","<span style='color:red'>Fail,<span style='color:red'>Fail,<span style='color:green'>Lift,<span style='color:green'>Lift,<span style='color:green'>Lift,<span style='color:green'>Lift,<span style='color:green'>Lift,<span style='color:red'>Fail,<span style='color:green'>Lift,<span style='color:green'>Lift,<span style='color:green'>Lift,<span style='color:red'>Fail","<span style='color:red'>Fail,<span style='color:green'>Lift,<span style='color:green'>Lift,<span style='color:red'>Fail,<span style='color:green'>Lift,<span style='color:green'>Lift","0,0,1,1,0,0,0,0,0,1,1,0","0,0,1,1,1,1,1,0,1,1,1,0","0,1,1,0,1,1",10,20,20,"true","","","","","",NA,NA,"",NA,NA,NA,NA,NA,NA,NA,NA,NA,NA,NA,NA,NA,NA,NA,NA,NA,NA,NA,NA,NA,NA,NA,NA,NA,NA,NA,NA,NA,NA,NA,NA,NA,NA,NA,NA,NA,NA,NA,"",NA,NA,NA,NA,NA,NA,NA,NA,2025-11-21 01:50:11
"148768.90000009537","https://psyc-201.github.io/xiang2023/exp/index1.html?PROLIFIC_PID=REDACTED&STUDY_ID=691f8ca61c6b4dcbb0aeb5f4&SESSION_ID=691fc04d02c111efd2ff52e6","instructions",2,159564,"0.0-2.0","JpCRvBpZpcF4UEVwW6V9hBhXyHp3xcwoAa6EpEymPs42iaS2u/2tz3OfyAUv5XtvX73RxgaVmLs7nrcb1BBxQqatBZD46GN6fkWHsZe4iboRL9kqCcaNtIOG9UcfnZz3vcDEIakAS8npVZo27VR9Fgj/bUW5NhbJaEUzZGLRjkexDFXpcZ9efzVf115D/q2thbpuq6DMBb2WvBHaVT6qiTL/H3U7Q52LuKudrwTjOF6yuHrv5Njwzy17z9ZFfJm3KvX0zf+2pbNuGlNXGW7LdRY268Q5OWIgWMjy/EnV7tjiai+uHGwe1t8iZuDZxmk46NV0aXAEWTo1z87jnagh7g==","691f8ca61c6b4dcbb0aeb5f4","691fc04d02c111efd2ff52e6","index1","<span style='color:red'>Fail,<span style='color:red'>Fail,<span style='color:green'>Lift,<span style='color:green'>Lift,<span style='color:red'>Fail,<span style='color:red'>Fail,<span style='color:red'>Fail,<span style='color:red'>Fail,<span style='color:red'>Fail,<span style='color:green'>Lift,<span style='color:green'>Lift,<span style='color:red'>Fail","<span style='color:red'>Fail,<span style='color:red'>Fail,<span style='color:green'>Lift,<span style='color:green'>Lift,<span style='color:green'>Lift,<span style='color:green'>Lift,<span style='color:green'>Lift,<span style='color:red'>Fail,<span style='color:green'>Lift,<span style='color:green'>Lift,<span style='color:green'>Lift,<span style='color:red'>Fail","<span style='color:red'>Fail,<span style='color:green'>Lift,<span style='color:green'>Lift,<span style='color:red'>Fail,<span style='color:green'>Lift,<span style='color:green'>Lift","0,0,1,1,0,0,0,0,0,1,1,0","0,0,1,1,1,1,1,0,1,1,1,0","0,1,1,0,1,1",10,20,20,"","[{""page_index"":0,""viewing_time"":19277.5},{""page_index"":1,""viewing_time"":23600.60000014305},{""page_index"":2,""viewing_time"":31201.099999904633},{""page_index"":3,""viewing_time"":35384},{""page_index"":4,""viewing_time"":10286.799999952316},{""page_index"":5,""viewing_time"":15115.700000047684},{""page_index"":6,""viewing_time"":13902.799999952316}]","","","","",NA,NA,"",NA,NA,NA,NA,NA,NA,NA,NA,NA,NA,NA,NA,NA,NA,NA,NA,NA,NA,NA,NA,NA,NA,NA,NA,NA,NA,NA,NA,NA,NA,NA,NA,NA,NA,NA,NA,NA,NA,NA,"",NA,NA,NA,NA,NA,NA,NA,NA,2025-11-21 01:50:11
"null","https://psyc-201.github.io/xiang2023/exp/index1.html?PROLIFIC_PID=REDACTED&STUDY_ID=691f8ca61c6b4dcbb0aeb5f4&SESSION_ID=691fc04d02c111efd2ff52e6","html-keyboard-response",3,160567,"0.0-3.0","JpCRvBpZpcF4UEVwW6V9hBhXyHp3xcwoAa6EpEymPs42iaS2u/2tz3OfyAUv5XtvX73RxgaVmLs7nrcb1BBxQqatBZD46GN6fkWHsZe4iboRL9kqCcaNtIOG9UcfnZz3vcDEIakAS8npVZo27VR9Fgj/bUW5NhbJaEUzZGLRjkexDFXpcZ9efzVf115D/q2thbpuq6DMBb2WvBHaVT6qiTL/H3U7Q52LuKudrwTjOF6yuHrv5Njwzy17z9ZFfJm3KvX0zf+2pbNuGlNXGW7LdRY268Q5OWIgWMjy/EnV7tjiai+uHGwe1t8iZuDZxmk46NV0aXAEWTo1z87jnagh7g==","691f8ca61c6b4dcbb0aeb5f4","691fc04d02c111efd2ff52e6","index1","<span style='color:red'>Fail,<span style='color:red'>Fail,<span style='color:green'>Lift,<span style='color:green'>Lift,<span style='color:red'>Fail,<span style='color:red'>Fail,<span style='color:red'>Fail,<span style='color:red'>Fail,<span style='color:red'>Fail,<span style='color:green'>Lift,<span style='color:green'>Lift,<span style='color:red'>Fail","<span style='color:red'>Fail,<span style='color:red'>Fail,<span style='color:green'>Lift,<span style='color:green'>Lift,<span style='color:green'>Lift,<span style='color:green'>Lift,<span style='color:green'>Lift,<span style='color:red'>Fail,<span style='color:green'>Lift,<span style='color:green'>Lift,<span style='color:green'>Lift,<span style='color:red'>Fail","<span style='color:red'>Fail,<span style='color:green'>Lift,<span style='color:green'>Lift,<span style='color:red'>Fail,<span style='color:green'>Lift,<span style='color:green'>Lift","0,0,1,1,0,0,0,0,0,1,1,0","0,0,1,1,1,1,1,0,1,1,1,0","0,1,1,0,1,1",10,20,20,"",""," ","null","","",NA,NA,"",NA,NA,NA,NA,NA,NA,NA,NA,NA,NA,NA,NA,NA,NA,NA,NA,NA,NA,NA,NA,NA,NA,NA,NA,NA,NA,NA,NA,NA,NA,NA,NA,NA,NA,NA,NA,NA,NA,NA,"",NA,NA,NA,NA,NA,NA,NA,NA,2025-11-21 01:50:11
"39177.90000009537","https://psyc-201.github.io/xiang2023/exp/index1.html?PROLIFIC_PID=REDACTED&STUDY_ID=691f8ca61c6b4dcbb0aeb5f4&SESSION_ID=691fc04d02c111efd2ff52e6","survey-multi-choice",4,199746,"0.0-4.0","JpCRvBpZpcF4UEVwW6V9hBhXyHp3xcwoAa6EpEymPs42iaS2u/2tz3OfyAUv5XtvX73RxgaVmLs7nrcb1BBxQqatBZD46GN6fkWHsZe4iboRL9kqCcaNtIOG9UcfnZz3vcDEIakAS8npVZo27VR9Fgj/bUW5NhbJaEUzZGLRjkexDFXpcZ9efzVf115D/q2thbpuq6DMBb2WvBHaVT6qiTL/H3U7Q52LuKudrwTjOF6yuHrv5Njwzy17z9ZFfJm3KvX0zf+2pbNuGlNXGW7LdRY268Q5OWIgWMjy/EnV7tjiai+uHGwe1t8iZuDZxmk46NV0aXAEWTo1z87jnagh7g==","691f8ca61c6b4dcbb0aeb5f4","691fc04d02c111efd2ff52e6","index1","<span style='color:red'>Fail,<span style='color:red'>Fail,<span style='color:green'>Lift,<span style='color:green'>Lift,<span style='color:red'>Fail,<span style='color:red'>Fail,<span style='color:red'>Fail,<span style='color:red'>Fail,<span style='color:red'>Fail,<span style='color:green'>Lift,<span style='color:green'>Lift,<span style='color:red'>Fail","<span style='color:red'>Fail,<span style='color:red'>Fail,<span style='color:green'>Lift,<span style='color:green'>Lift,<span style='color:green'>Lift,<span style='color:green'>Lift,<span style='color:green'>Lift,<span style='color:red'>Fail,<span style='color:green'>Lift,<span style='color:green'>Lift,<span style='color:green'>Lift,<span style='color:red'>Fail","<span style='color:red'>Fail,<span style='color:green'>Lift,<span style='color:green'>Lift,<span style='color:red'>Fail,<span style='color:green'>Lift,<span style='color:green'>Lift","0,0,1,1,0,0,0,0,0,1,1,0","0,0,1,1,1,1,1,0,1,1,1,0","0,1,1,0,1,1",10,20,20,"","","","","{""Q0"":""It consists of multiple contests, each contest with three rounds."",""Q1"":""When a new round starts."",""Q2"":""The box weight always stays the same (equivalent to strength of 5)."",""Q3"":""They will split the $20, that is $10 for each."",""Q4"":""How close my guesses are to the actual outcome.""}","[0,1,2,3,4]",NA,NA,"",NA,NA,NA,NA,NA,NA,NA,NA,NA,NA,NA,NA,NA,NA,NA,NA,NA,NA,NA,NA,NA,NA,NA,NA,NA,NA,NA,NA,NA,NA,NA,NA,NA,NA,NA,NA,NA,NA,NA,"",NA,NA,NA,NA,NA,NA,NA,NA,2025-11-21 01:50:11
"4179.099999904633","https://psyc-201.github.io/xiang2023/exp/index1.html?PROLIFIC_PID=REDACTED&STUDY_ID=691f8ca61c6b4dcbb0aeb5f4&SESSION_ID=691fc04d02c111efd2ff52e6","html-button-response",5,203926,"0.0-5.0-1.0","JpCRvBpZpcF4UEVwW6V9hBhXyHp3xcwoAa6EpEymPs42iaS2u/2tz3OfyAUv5XtvX73RxgaVmLs7nrcb1BBxQqatBZD46GN6fkWHsZe4iboRL9kqCcaNtIOG9UcfnZz3vcDEIakAS8npVZo27VR9Fgj/bUW5NhbJaEUzZGLRjkexDFXpcZ9efzVf115D/q2thbpuq6DMBb2WvBHaVT6qiTL/H3U7Q52LuKudrwTjOF6yuHrv5Njwzy17z9ZFfJm3KvX0zf+2pbNuGlNXGW7LdRY268Q5OWIgWMjy/EnV7tjiai+uHGwe1t8iZuDZxmk46NV0aXAEWTo1z87jnagh7g==","691f8ca61c6b4dcbb0aeb5f4","691fc04d02c111efd2ff52e6","index1","<span style='color:red'>Fail,<span style='color:red'>Fail,<span style='color:green'>Lift,<span style='color:green'>Lift,<span style='color:red'>Fail,<span style='color:red'>Fail,<span style='color:red'>Fail,<span style='color:red'>Fail,<span style='color:red'>Fail,<span style='color:green'>Lift,<span style='color:green'>Lift,<span style='color:red'>Fail","<span style='color:red'>Fail,<span style='color:red'>Fail,<span style='color:green'>Lift,<span style='color:green'>Lift,<span style='color:green'>Lift,<span style='color:green'>Lift,<span style='color:green'>Lift,<span style='color:red'>Fail,<span style='color:green'>Lift,<span style='color:green'>Lift,<span style='color:green'>Lift,<span style='color:red'>Fail","<span style='color:red'>Fail,<span style='color:green'>Lift,<span style='color:green'>Lift,<span style='color:red'>Fail,<span style='color:green'>Lift,<span style='color:green'>Lift","0,0,1,1,0,0,0,0,0,1,1,0","0,0,1,1,1,1,1,0,1,1,1,0","0,1,1,0,1,1",10,20,20,"","","<p> Oops! You did not pass the comprehension check. <b>Please note that you have only 1 attempt(s) left.</b> </p>","","","",1,NA,"",NA,NA,NA,NA,NA,NA,NA,NA,NA,NA,NA,NA,NA,NA,NA,NA,NA,NA,NA,NA,NA,NA,NA,NA,NA,NA,NA,NA,NA,NA,NA,NA,NA,NA,NA,NA,NA,NA,NA,"",NA,NA,NA,NA,NA,NA,NA,NA,2025-11-21 01:50:11
"136479.09999990463","https://psyc-201.github.io/xiang2023/exp/index1.html?PROLIFIC_PID=REDACTED&STUDY_ID=691f8ca61c6b4dcbb0aeb5f4&SESSION_ID=691fc04d02c111efd2ff52e6","instructions",6,340399,"0.0-6.0-0.0","JpCRvBpZpcF4UEVwW6V9hBhXyHp3xcwoAa6EpEymPs42iaS2u/2tz3OfyAUv5XtvX73RxgaVmLs7nrcb1BBxQqatBZD46GN6fkWHsZe4iboRL9kqCcaNtIOG9UcfnZz3vcDEIakAS8npVZo27VR9Fgj/bUW5NhbJaEUzZGLRjkexDFXpcZ9efzVf115D/q2thbpuq6DMBb2WvBHaVT6qiTL/H3U7Q52LuKudrwTjOF6yuHrv5Njwzy17z9ZFfJm3KvX0zf+2pbNuGlNXGW7LdRY268Q5OWIgWMjy/EnV7tjiai+uHGwe1t8iZuDZxmk46NV0aXAEWTo1z87jnagh7g==","691f8ca61c6b4dcbb0aeb5f4","691fc04d02c111efd2ff52e6","index1","<span style='color:red'>Fail,<span style='color:red'>Fail,<span style='color:green'>Lift,<span style='color:green'>Lift,<span style='color:red'>Fail,<span style='color:red'>Fail,<span style='color:red'>Fail,<span style='color:red'>Fail,<span style='color:red'>Fail,<span style='color:green'>Lift,<span style='color:green'>Lift,<span style='color:red'>Fail","<span style='color:red'>Fail,<span style='color:red'>Fail,<span style='color:green'>Lift,<span style='color:green'>Lift,<span style='color:green'>Lift,<span style='color:green'>Lift,<span style='color:green'>Lift,<span style='color:red'>Fail,<span style='color:green'>Lift,<span style='color:green'>Lift,<span style='color:green'>Lift,<span style='color:red'>Fail","<span style='color:red'>Fail,<span style='color:green'>Lift,<span style='color:green'>Lift,<span style='color:red'>Fail,<span style='color:green'>Lift,<span style='color:green'>Lift","0,0,1,1,0,0,0,0,0,1,1,0","0,0,1,1,1,1,1,0,1,1,1,0","0,1,1,0,1,1",10,20,20,"","[{""page_index"":0,""viewing_time"":33722.299999952316},{""page_index"":1,""viewing_time"":25879.099999904633},{""page_index"":2,""viewing_time"":23918.60000014305},{""page_index"":3,""viewing_time"":21701.39999985695},{""page_index"":4,""viewing_time"":10699.5},{""page_index"":5,""viewing_time"":17254.800000190735},{""page_index"":6,""viewing_time"":3303.0999999046326}]","","","","",NA,NA,"",NA,NA,NA,NA,NA,NA,NA,NA,NA,NA,NA,NA,NA,NA,NA,NA,NA,NA,NA,NA,NA,NA,NA,NA,NA,NA,NA,NA,NA,NA,NA,NA,NA,NA,NA,NA,NA,NA,NA,"",NA,NA,NA,NA,NA,NA,NA,NA,2025-11-21 01:50:11
"null","https://psyc-201.github.io/xiang2023/exp/index1.html?PROLIFIC_PID=REDACTED&STUDY_ID=691f8ca61c6b4dcbb0aeb5f4&SESSION_ID=691fc04d02c111efd2ff52e6","html-keyboard-response",7,341401,"0.0-6.0-1.0","JpCRvBpZpcF4UEVwW6V9hBhXyHp3xcwoAa6EpEymPs42iaS2u/2tz3OfyAUv5XtvX73RxgaVmLs7nrcb1BBxQqatBZD46GN6fkWHsZe4iboRL9kqCcaNtIOG9UcfnZz3vcDEIakAS8npVZo27VR9Fgj/bUW5NhbJaEUzZGLRjkexDFXpcZ9efzVf115D/q2thbpuq6DMBb2WvBHaVT6qiTL/H3U7Q52LuKudrwTjOF6yuHrv5Njwzy17z9ZFfJm3KvX0zf+2pbNuGlNXGW7LdRY268Q5OWIgWMjy/EnV7tjiai+uHGwe1t8iZuDZxmk46NV0aXAEWTo1z87jnagh7g==","691f8ca61c6b4dcbb0aeb5f4","691fc04d02c111efd2ff52e6","index1","<span style='color:red'>Fail,<span style='color:red'>Fail,<span style='color:green'>Lift,<span style='color:green'>Lift,<span style='color:red'>Fail,<span style='color:red'>Fail,<span style='color:red'>Fail,<span style='color:red'>Fail,<span style='color:red'>Fail,<span style='color:green'>Lift,<span style='color:green'>Lift,<span style='color:red'>Fail","<span style='color:red'>Fail,<span style='color:red'>Fail,<span style='color:green'>Lift,<span style='color:green'>Lift,<span style='color:green'>Lift,<span style='color:green'>Lift,<span style='color:green'>Lift,<span style='color:red'>Fail,<span style='color:green'>Lift,<span style='color:green'>Lift,<span style='color:green'>Lift,<span style='color:red'>Fail","<span style='color:red'>Fail,<span style='color:green'>Lift,<span style='color:green'>Lift,<span style='color:red'>Fail,<span style='color:green'>Lift,<span style='color:green'>Lift","0,0,1,1,0,0,0,0,0,1,1,0","0,0,1,1,1,1,1,0,1,1,1,0","0,1,1,0,1,1",10,20,20,"",""," ","null","","",NA,NA,"",NA,NA,NA,NA,NA,NA,NA,NA,NA,NA,NA,NA,NA,NA,NA,NA,NA,NA,NA,NA,NA,NA,NA,NA,NA,NA,NA,NA,NA,NA,NA,NA,NA,NA,NA,NA,NA,NA,NA,"",NA,NA,NA,NA,NA,NA,NA,NA,2025-11-21 01:50:11
"144478.89999985695","https://psyc-201.github.io/xiang2023/exp/index1.html?PROLIFIC_PID=REDACTED&STUDY_ID=691f8ca61c6b4dcbb0aeb5f4&SESSION_ID=691fc04d02c111efd2ff52e6","survey-multi-choice",8,485874,"0.0-7.0-0.0","JpCRvBpZpcF4UEVwW6V9hBhXyHp3xcwoAa6EpEymPs42iaS2u/2tz3OfyAUv5XtvX73RxgaVmLs7nrcb1BBxQqatBZD46GN6fkWHsZe4iboRL9kqCcaNtIOG9UcfnZz3vcDEIakAS8npVZo27VR9Fgj/bUW5NhbJaEUzZGLRjkexDFXpcZ9efzVf115D/q2thbpuq6DMBb2WvBHaVT6qiTL/H3U7Q52LuKudrwTjOF6yuHrv5Njwzy17z9ZFfJm3KvX0zf+2pbNuGlNXGW7LdRY268Q5OWIgWMjy/EnV7tjiai+uHGwe1t8iZuDZxmk46NV0aXAEWTo1z87jnagh7g==","691f8ca61c6b4dcbb0aeb5f4","691fc04d02c111efd2ff52e6","index1","<span style='color:red'>Fail,<span style='color:red'>Fail,<span style='color:green'>Lift,<span style='color:green'>Lift,<span style='color:red'>Fail,<span style='color:red'>Fail,<span style='color:red'>Fail,<span style='color:red'>Fail,<span style='color:red'>Fail,<span style='color:green'>Lift,<span style='color:green'>Lift,<span style='color:red'>Fail","<span style='color:red'>Fail,<span style='color:red'>Fail,<span style='color:green'>Lift,<span style='color:green'>Lift,<span style='color:green'>Lift,<span style='color:green'>Lift,<span style='color:green'>Lift,<span style='color:red'>Fail,<span style='color:green'>Lift,<span style='color:green'>Lift,<span style='color:green'>Lift,<span style='color:red'>Fail","<span style='color:red'>Fail,<span style='color:green'>Lift,<span style='color:green'>Lift,<span style='color:red'>Fail,<span style='color:green'>Lift,<span style='color:green'>Lift","0,0,1,1,0,0,0,0,0,1,1,0","0,0,1,1,1,1,1,0,1,1,1,0","0,1,1,0,1,1",10,20,20,"","","","","{""Q0"":""It consists of multiple contests, each contest with three rounds."",""Q1"":""When a new contest begins."",""Q2"":""The box weight always stays the same (equivalent to strength of 5)."",""Q3"":""Each will get $20."",""Q4"":""How close my guesses are to the actual outcome.""}","[0,1,2,3,4]",NA,NA,"",NA,NA,NA,NA,NA,NA,NA,NA,NA,NA,NA,NA,NA,NA,NA,NA,NA,NA,NA,NA,NA,NA,NA,NA,NA,NA,NA,NA,NA,NA,NA,NA,NA,NA,NA,NA,NA,NA,NA,"",NA,NA,NA,NA,NA,NA,NA,NA,2025-11-21 01:50:11
"14614","https://psyc-201.github.io/xiang2023/exp/index1.html?PROLIFIC_PID=REDACTED&STUDY_ID=691f8ca61c6b4dcbb0aeb5f4&SESSION_ID=691fc04d02c111efd2ff52e6","instructions",9,500489,"0.0-305.0","JpCRvBpZpcF4UEVwW6V9hBhXyHp3xcwoAa6EpEymPs42iaS2u/2tz3OfyAUv5XtvX73RxgaVmLs7nrcb1BBxQqatBZD46GN6fkWHsZe4iboRL9kqCcaNtIOG9UcfnZz3vcDEIakAS8npVZo27VR9Fgj/bUW5NhbJaEUzZGLRjkexDFXpcZ9efzVf115D/q2thbpuq6DMBb2WvBHaVT6qiTL/H3U7Q52LuKudrwTjOF6yuHrv5Njwzy17z9ZFfJm3KvX0zf+2pbNuGlNXGW7LdRY268Q5OWIgWMjy/EnV7tjiai+uHGwe1t8iZuDZxmk46NV0aXAEWTo1z87jnagh7g==","691f8ca61c6b4dcbb0aeb5f4","691fc04d02c111efd2ff52e6","index1","<span style='color:red'>Fail,<span style='color:red'>Fail,<span style='color:green'>Lift,<span style='color:green'>Lift,<span style='color:red'>Fail,<span style='color:red'>Fail,<span style='color:red'>Fail,<span style='color:red'>Fail,<span style='color:red'>Fail,<span style='color:green'>Lift,<span style='color:green'>Lift,<span style='color:red'>Fail","<span style='color:red'>Fail,<span style='color:red'>Fail,<span style='color:green'>Lift,<span style='color:green'>Lift,<span style='color:green'>Lift,<span style='color:green'>Lift,<span style='color:green'>Lift,<span style='color:red'>Fail,<span style='color:green'>Lift,<span style='color:green'>Lift,<span style='color:green'>Lift,<span style='color:red'>Fail","<span style='color:red'>Fail,<span style='color:green'>Lift,<span style='color:green'>Lift,<span style='color:red'>Fail,<span style='color:green'>Lift,<span style='color:green'>Lift","0,0,1,1,0,0,0,0,0,1,1,0","0,0,1,1,1,1,1,0,1,1,1,0","0,1,1,0,1,1",10,20,20,"","[{""page_index"":0,""viewing_time"":9246.899999856949},{""page_index"":1,""viewing_time"":5366.799999952316}]","","","","",NA,NA,"",NA,NA,NA,NA,NA,NA,NA,NA,NA,NA,NA,NA,NA,NA,NA,NA,NA,NA,NA,NA,NA,NA,NA,NA,NA,NA,NA,NA,NA,NA,NA,NA,NA,NA,NA,NA,NA,NA,NA,"",NA,NA,NA,NA,NA,NA,NA,NA,2025-11-21 01:50:11
"null","https://psyc-201.github.io/xiang2023/exp/index1.html?PROLIFIC_PID=REDACTED&STUDY_ID=691f8ca61c6b4dcbb0aeb5f4&SESSION_ID=691fc04d02c111efd2ff52e6","html-keyboard-response",10,501491,"0.0-306.0","JpCRvBpZpcF4UEVwW6V9hBhXyHp3xcwoAa6EpEymPs42iaS2u/2tz3OfyAUv5XtvX73RxgaVmLs7nrcb1BBxQqatBZD46GN6fkWHsZe4iboRL9kqCcaNtIOG9UcfnZz3vcDEIakAS8npVZo27VR9Fgj/bUW5NhbJaEUzZGLRjkexDFXpcZ9efzVf115D/q2thbpuq6DMBb2WvBHaVT6qiTL/H3U7Q52LuKudrwTjOF6yuHrv5Njwzy17z9ZFfJm3KvX0zf+2pbNuGlNXGW7LdRY268Q5OWIgWMjy/EnV7tjiai+uHGwe1t8iZuDZxmk46NV0aXAEWTo1z87jnagh7g==","691f8ca61c6b4dcbb0aeb5f4","691fc04d02c111efd2ff52e6","index1","<span style='color:red'>Fail,<span style='color:red'>Fail,<span style='color:green'>Lift,<span style='color:green'>Lift,<span style='color:red'>Fail,<span style='color:red'>Fail,<span style='color:red'>Fail,<span style='color:red'>Fail,<span style='color:red'>Fail,<span style='color:green'>Lift,<span style='color:green'>Lift,<span style='color:red'>Fail","<span style='color:red'>Fail,<span style='color:red'>Fail,<span style='color:green'>Lift,<span style='color:green'>Lift,<span style='color:green'>Lift,<span style='color:green'>Lift,<span style='color:green'>Lift,<span style='color:red'>Fail,<span style='color:green'>Lift,<span style='color:green'>Lift,<span style='color:green'>Lift,<span style='color:red'>Fail","<span style='color:red'>Fail,<span style='color:green'>Lift,<span style='color:green'>Lift,<span style='color:red'>Fail,<span style='color:green'>Lift,<span style='color:green'>Lift","0,0,1,1,0,0,0,0,0,1,1,0","0,0,1,1,1,1,1,0,1,1,1,0","0,1,1,0,1,1",10,20,20,"",""," ","null","","",NA,1,"",NA,NA,NA,NA,NA,NA,NA,NA,NA,NA,NA,NA,NA,NA,NA,NA,NA,NA,NA,NA,NA,NA,NA,NA,NA,NA,NA,NA,NA,NA,NA,NA,NA,NA,NA,NA,NA,NA,NA,"",NA,NA,NA,NA,NA,NA,NA,NA,2025-11-21 01:50:11
"null","https://psyc-201.github.io/xiang2023/exp/index1.html?PROLIFIC_PID=REDACTED&STUDY_ID=691f8ca61c6b4dcbb0aeb5f4&SESSION_ID=691fc04d02c111efd2ff52e6","html-keyboard-response",11,504494,"0.0-307.0","JpCRvBpZpcF4UEVwW6V9hBhXyHp3xcwoAa6EpEymPs42iaS2u/2tz3OfyAUv5XtvX73RxgaVmLs7nrcb1BBxQqatBZD46GN6fkWHsZe4iboRL9kqCcaNtIOG9UcfnZz3vcDEIakAS8npVZo27VR9Fgj/bUW5NhbJaEUzZGLRjkexDFXpcZ9efzVf115D/q2thbpuq6DMBb2WvBHaVT6qiTL/H3U7Q52LuKudrwTjOF6yuHrv5Njwzy17z9ZFfJm3KvX0zf+2pbNuGlNXGW7LdRY268Q5OWIgWMjy/EnV7tjiai+uHGwe1t8iZuDZxmk46NV0aXAEWTo1z87jnagh7g==","691f8ca61c6b4dcbb0aeb5f4","691fc04d02c111efd2ff52e6","index1","<span style='color:red'>Fail,<span style='color:red'>Fail,<span style='color:green'>Lift,<span style='color:green'>Lift,<span style='color:red'>Fail,<span style='color:red'>Fail,<span style='color:red'>Fail,<span style='color:red'>Fail,<span style='color:red'>Fail,<span style='color:green'>Lift,<span style='color:green'>Lift,<span style='color:red'>Fail","<span style='color:red'>Fail,<span style='color:red'>Fail,<span style='color:green'>Lift,<span style='color:green'>Lift,<span style='color:green'>Lift,<span style='color:green'>Lift,<span style='color:green'>Lift,<span style='color:red'>Fail,<span style='color:green'>Lift,<span style='color:green'>Lift,<span style='color:green'>Lift,<span style='color:red'>Fail","<span style='color:red'>Fail,<span style='color:green'>Lift,<span style='color:green'>Lift,<span style='color:red'>Fail,<span style='color:green'>Lift,<span style='color:green'>Lift","0,0,1,1,0,0,0,0,0,1,1,0","0,0,1,1,1,1,1,0,1,1,1,0","0,1,1,0,1,1",10,20,20,"","","<p style='font-size:30px'><b> New Contest! </b></p>","null","","",NA,1,"",NA,NA,NA,NA,NA,NA,NA,NA,NA,NA,NA,NA,NA,NA,NA,NA,NA,NA,NA,NA,NA,NA,NA,NA,NA,NA,NA,NA,NA,NA,NA,NA,NA,NA,NA,NA,NA,NA,NA,"",NA,NA,NA,NA,NA,NA,NA,NA,2025-11-21 01:50:11
"26010.300000190735","https://psyc-201.github.io/xiang2023/exp/index1.html?PROLIFIC_PID=REDACTED&STUDY_ID=691f8ca61c6b4dcbb0aeb5f4&SESSION_ID=691fc04d02c111efd2ff52e6","survey-html-form",12,530506,"0.0-308.0","JpCRvBpZpcF4UEVwW6V9hBhXyHp3xcwoAa6EpEymPs42iaS2u/2tz3OfyAUv5XtvX73RxgaVmLs7nrcb1BBxQqatBZD46GN6fkWHsZe4iboRL9kqCcaNtIOG9UcfnZz3vcDEIakAS8npVZo27VR9Fgj/bUW5NhbJaEUzZGLRjkexDFXpcZ9efzVf115D/q2thbpuq6DMBb2WvBHaVT6qiTL/H3U7Q52LuKudrwTjOF6yuHrv5Njwzy17z9ZFfJm3KvX0zf+2pbNuGlNXGW7LdRY268Q5OWIgWMjy/EnV7tjiai+uHGwe1t8iZuDZxmk46NV0aXAEWTo1z87jnagh7g==","691f8ca61c6b4dcbb0aeb5f4","691fc04d02c111efd2ff52e6","index1","<span style='color:red'>Fail,<span style='color:red'>Fail,<span style='color:green'>Lift,<span style='color:green'>Lift,<span style='color:red'>Fail,<span style='color:red'>Fail,<span style='color:red'>Fail,<span style='color:red'>Fail,<span style='color:red'>Fail,<span style='color:green'>Lift,<span style='color:green'>Lift,<span style='color:red'>Fail","<span style='color:red'>Fail,<span style='color:red'>Fail,<span style='color:green'>Lift,<span style='color:green'>Lift,<span style='color:green'>Lift,<span style='color:green'>Lift,<span style='color:green'>Lift,<span style='color:red'>Fail,<span style='color:green'>Lift,<span style='color:green'>Lift,<span style='color:green'>Lift,<span style='color:red'>Fail","<span style='color:red'>Fail,<span style='color:green'>Lift,<span style='color:green'>Lift,<span style='color:red'>Fail,<span style='color:green'>Lift,<span style='color:green'>Lift","0,0,1,1,0,0,0,0,0,1,1,0","0,0,1,1,1,1,1,0,1,1,1,0","0,1,1,0,1,1",10,20,20,"","","","","{""box1"":""3"",""box2"":""5""}","",NA,1,"round1_outcome",1,1,1,3,5,NA,NA,0,0,10,3,5,NA,NA,0,0,10,NA,NA,NA,NA,NA,NA,NA,NA,NA,NA,NA,NA,NA,NA,NA,NA,NA,NA,NA,NA,NA,NA,"",NA,NA,NA,NA,NA,NA,NA,NA,2025-11-21 01:50:11
"36036.299999952316","https://psyc-201.github.io/xiang2023/exp/index1.html?PROLIFIC_PID=REDACTED&STUDY_ID=691f8ca61c6b4dcbb0aeb5f4&SESSION_ID=691fc04d02c111efd2ff52e6","survey-html-form",13,566543,"0.0-309.0","JpCRvBpZpcF4UEVwW6V9hBhXyHp3xcwoAa6EpEymPs42iaS2u/2tz3OfyAUv5XtvX73RxgaVmLs7nrcb1BBxQqatBZD46GN6fkWHsZe4iboRL9kqCcaNtIOG9UcfnZz3vcDEIakAS8npVZo27VR9Fgj/bUW5NhbJaEUzZGLRjkexDFXpcZ9efzVf115D/q2thbpuq6DMBb2WvBHaVT6qiTL/H3U7Q52LuKudrwTjOF6yuHrv5Njwzy17z9ZFfJm3KvX0zf+2pbNuGlNXGW7LdRY268Q5OWIgWMjy/EnV7tjiai+uHGwe1t8iZuDZxmk46NV0aXAEWTo1z87jnagh7g==","691f8ca61c6b4dcbb0aeb5f4","691fc04d02c111efd2ff52e6","index1","<span style='color:red'>Fail,<span style='color:red'>Fail,<span style='color:green'>Lift,<span style='color:green'>Lift,<span style='color:red'>Fail,<span style='color:red'>Fail,<span style='color:red'>Fail,<span style='color:red'>Fail,<span style='color:red'>Fail,<span style='color:green'>Lift,<span style='color:green'>Lift,<span style='color:red'>Fail","<span style='color:red'>Fail,<span style='color:red'>Fail,<span style='color:green'>Lift,<span style='color:green'>Lift,<span style='color:green'>Lift,<span style='color:green'>Lift,<span style='color:green'>Lift,<span style='color:red'>Fail,<span style='color:green'>Lift,<span style='color:green'>Lift,<span style='color:green'>Lift,<span style='color:red'>Fail","<span style='color:red'>Fail,<span style='color:green'>Lift,<span style='color:green'>Lift,<span style='color:red'>Fail,<span style='color:green'>Lift,<span style='color:green'>Lift","0,0,1,1,0,0,0,0,0,1,1,0","0,0,1,1,1,1,1,0,1,1,1,0","0,1,1,0,1,1",10,20,20,"","","","","{""box1"":""30"",""box2"":""50""}","",NA,1,"round2_ready",2,1,2,NA,NA,NA,NA,NA,NA,NA,NA,NA,NA,NA,NA,NA,NA,30,50,30,50,NA,NA,NA,NA,NA,NA,NA,NA,NA,NA,NA,NA,NA,NA,NA,NA,NA,NA,"",NA,NA,NA,NA,NA,NA,NA,NA,2025-11-21 01:50:11
"21644","https://psyc-201.github.io/xiang2023/exp/index1.html?PROLIFIC_PID=REDACTED&STUDY_ID=691f8ca61c6b4dcbb0aeb5f4&SESSION_ID=691fc04d02c111efd2ff52e6","survey-html-form",14,588188,"0.0-310.0","JpCRvBpZpcF4UEVwW6V9hBhXyHp3xcwoAa6EpEymPs42iaS2u/2tz3OfyAUv5XtvX73RxgaVmLs7nrcb1BBxQqatBZD46GN6fkWHsZe4iboRL9kqCcaNtIOG9UcfnZz3vcDEIakAS8npVZo27VR9Fgj/bUW5NhbJaEUzZGLRjkexDFXpcZ9efzVf115D/q2thbpuq6DMBb2WvBHaVT6qiTL/H3U7Q52LuKudrwTjOF6yuHrv5Njwzy17z9ZFfJm3KvX0zf+2pbNuGlNXGW7LdRY268Q5OWIgWMjy/EnV7tjiai+uHGwe1t8iZuDZxmk46NV0aXAEWTo1z87jnagh7g==","691f8ca61c6b4dcbb0aeb5f4","691fc04d02c111efd2ff52e6","index1","<span style='color:red'>Fail,<span style='color:red'>Fail,<span style='color:green'>Lift,<span style='color:green'>Lift,<span style='color:red'>Fail,<span style='color:red'>Fail,<span style='color:red'>Fail,<span style='color:red'>Fail,<span style='color:red'>Fail,<span style='color:green'>Lift,<span style='color:green'>Lift,<span style='color:red'>Fail","<span style='color:red'>Fail,<span style='color:red'>Fail,<span style='color:green'>Lift,<span style='color:green'>Lift,<span style='color:green'>Lift,<span style='color:green'>Lift,<span style='color:green'>Lift,<span style='color:red'>Fail,<span style='color:green'>Lift,<span style='color:green'>Lift,<span style='color:green'>Lift,<span style='color:red'>Fail","<span style='color:red'>Fail,<span style='color:green'>Lift,<span style='color:green'>Lift,<span style='color:red'>Fail,<span style='color:green'>Lift,<span style='color:green'>Lift","0,0,1,1,0,0,0,0,0,1,1,0","0,0,1,1,1,1,1,0,1,1,1,0","0,1,1,0,1,1",10,20,20,"","","","","{""box1"":""2"",""box2"":""4""}","",NA,1,"round2_outcome",3,1,2,2,4,NA,NA,0,0,20,NA,NA,NA,NA,NA,NA,NA,NA,NA,NA,NA,2,4,NA,NA,0,0,20,NA,NA,NA,NA,NA,NA,NA,NA,NA,NA,NA,"",NA,NA,NA,NA,NA,NA,NA,NA,2025-11-21 01:50:11
"13216.700000047684","https://psyc-201.github.io/xiang2023/exp/index1.html?PROLIFIC_PID=REDACTED&STUDY_ID=691f8ca61c6b4dcbb0aeb5f4&SESSION_ID=691fc04d02c111efd2ff52e6","survey-html-form",15,601406,"0.0-311.0","JpCRvBpZpcF4UEVwW6V9hBhXyHp3xcwoAa6EpEymPs42iaS2u/2tz3OfyAUv5XtvX73RxgaVmLs7nrcb1BBxQqatBZD46GN6fkWHsZe4iboRL9kqCcaNtIOG9UcfnZz3vcDEIakAS8npVZo27VR9Fgj/bUW5NhbJaEUzZGLRjkexDFXpcZ9efzVf115D/q2thbpuq6DMBb2WvBHaVT6qiTL/H3U7Q52LuKudrwTjOF6yuHrv5Njwzy17z9ZFfJm3KvX0zf+2pbNuGlNXGW7LdRY268Q5OWIgWMjy/EnV7tjiai+uHGwe1t8iZuDZxmk46NV0aXAEWTo1z87jnagh7g==","691f8ca61c6b4dcbb0aeb5f4","691fc04d02c111efd2ff52e6","index1","<span style='color:red'>Fail,<span style='color:red'>Fail,<span style='color:green'>Lift,<span style='color:green'>Lift,<span style='color:red'>Fail,<span style='color:red'>Fail,<span style='color:red'>Fail,<span style='color:red'>Fail,<span style='color:red'>Fail,<span style='color:green'>Lift,<span style='color:green'>Lift,<span style='color:red'>Fail","<span style='color:red'>Fail,<span style='color:red'>Fail,<span style='color:green'>Lift,<span style='color:green'>Lift,<span style='color:green'>Lift,<span style='color:green'>Lift,<span style='color:green'>Lift,<span style='color:red'>Fail,<span style='color:green'>Lift,<span style='color:green'>Lift,<span style='color:green'>Lift,<span style='color:red'>Fail","<span style='color:red'>Fail,<span style='color:green'>Lift,<span style='color:green'>Lift,<span style='color:red'>Fail,<span style='color:green'>Lift,<span style='color:green'>Lift","0,0,1,1,0,0,0,0,0,1,1,0","0,0,1,1,1,1,1,0,1,1,1,0","0,1,1,0,1,1",10,20,20,"","","","","{""box1"":""75""}","",NA,1,"round3_ready",4,1,3,NA,NA,NA,NA,NA,NA,NA,NA,NA,NA,NA,NA,NA,NA,75,75,NA,NA,NA,NA,NA,NA,NA,NA,NA,75,75,NA,NA,NA,NA,NA,NA,NA,NA,NA,"",NA,NA,NA,NA,NA,NA,NA,NA,2025-11-21 01:50:11
"24373.300000190735","https://psyc-201.github.io/xiang2023/exp/index1.html?PROLIFIC_PID=REDACTED&STUDY_ID=691f8ca61c6b4dcbb0aeb5f4&SESSION_ID=691fc04d02c111efd2ff52e6","survey-html-form",16,625780,"0.0-313.0-0.0","JpCRvBpZpcF4UEVwW6V9hBhXyHp3xcwoAa6EpEymPs42iaS2u/2tz3OfyAUv5XtvX73RxgaVmLs7nrcb1BBxQqatBZD46GN6fkWHsZe4iboRL9kqCcaNtIOG9UcfnZz3vcDEIakAS8npVZo27VR9Fgj/bUW5NhbJaEUzZGLRjkexDFXpcZ9efzVf115D/q2thbpuq6DMBb2WvBHaVT6qiTL/H3U7Q52LuKudrwTjOF6yuHrv5Njwzy17z9ZFfJm3KvX0zf+2pbNuGlNXGW7LdRY268Q5OWIgWMjy/EnV7tjiai+uHGwe1t8iZuDZxmk46NV0aXAEWTo1z87jnagh7g==","691f8ca61c6b4dcbb0aeb5f4","691fc04d02c111efd2ff52e6","index1","<span style='color:red'>Fail,<span style='color:red'>Fail,<span style='color:green'>Lift,<span style='color:green'>Lift,<span style='color:red'>Fail,<span style='color:red'>Fail,<span style='color:red'>Fail,<span style='color:red'>Fail,<span style='color:red'>Fail,<span style='color:green'>Lift,<span style='color:green'>Lift,<span style='color:red'>Fail","<span style='color:red'>Fail,<span style='color:red'>Fail,<span style='color:green'>Lift,<span style='color:green'>Lift,<span style='color:green'>Lift,<span style='color:green'>Lift,<span style='color:green'>Lift,<span style='color:red'>Fail,<span style='color:green'>Lift,<span style='color:green'>Lift,<span style='color:green'>Lift,<span style='color:red'>Fail","<span style='color:red'>Fail,<span style='color:green'>Lift,<span style='color:green'>Lift,<span style='color:red'>Fail,<span style='color:green'>Lift,<span style='color:green'>Lift","0,0,1,1,0,0,0,0,0,1,1,0","0,0,1,1,1,1,1,0,1,1,1,0","0,1,1,0,1,1",10,20,20,"","","","","{""box1"":""1"",""box2"":""3"",""box3"":""999"",""box4"":""999""}","",NA,2,"round3_fail",5,1,3,1,3,NA,NA,0,0,20,NA,NA,NA,NA,NA,NA,NA,NA,NA,NA,NA,NA,NA,NA,NA,NA,NA,NA,NA,NA,1,1,1,3,0,0,20,NA,NA,"",NA,NA,NA,NA,NA,NA,NA,NA,2025-11-21 01:50:11
"null","https://psyc-201.github.io/xiang2023/exp/index1.html?PROLIFIC_PID=REDACTED&STUDY_ID=691f8ca61c6b4dcbb0aeb5f4&SESSION_ID=691fc04d02c111efd2ff52e6","html-keyboard-response",17,628783,"0.0-316.0","JpCRvBpZpcF4UEVwW6V9hBhXyHp3xcwoAa6EpEymPs42iaS2u/2tz3OfyAUv5XtvX73RxgaVmLs7nrcb1BBxQqatBZD46GN6fkWHsZe4iboRL9kqCcaNtIOG9UcfnZz3vcDEIakAS8npVZo27VR9Fgj/bUW5NhbJaEUzZGLRjkexDFXpcZ9efzVf115D/q2thbpuq6DMBb2WvBHaVT6qiTL/H3U7Q52LuKudrwTjOF6yuHrv5Njwzy17z9ZFfJm3KvX0zf+2pbNuGlNXGW7LdRY268Q5OWIgWMjy/EnV7tjiai+uHGwe1t8iZuDZxmk46NV0aXAEWTo1z87jnagh7g==","691f8ca61c6b4dcbb0aeb5f4","691fc04d02c111efd2ff52e6","index1","<span style='color:red'>Fail,<span style='color:red'>Fail,<span style='color:green'>Lift,<span style='color:green'>Lift,<span style='color:red'>Fail,<span style='color:red'>Fail,<span style='color:red'>Fail,<span style='color:red'>Fail,<span style='color:red'>Fail,<span style='color:green'>Lift,<span style='color:green'>Lift,<span style='color:red'>Fail","<span style='color:red'>Fail,<span style='color:red'>Fail,<span style='color:green'>Lift,<span style='color:green'>Lift,<span style='color:green'>Lift,<span style='color:green'>Lift,<span style='color:green'>Lift,<span style='color:red'>Fail,<span style='color:green'>Lift,<span style='color:green'>Lift,<span style='color:green'>Lift,<span style='color:red'>Fail","<span style='color:red'>Fail,<span style='color:green'>Lift,<span style='color:green'>Lift,<span style='color:red'>Fail,<span style='color:green'>Lift,<span style='color:green'>Lift","0,0,1,1,0,0,0,0,0,1,1,0","0,0,1,1,1,1,1,0,1,1,1,0","0,1,1,0,1,1",10,20,20,"","","<p style='font-size:30px'><b> New Contest! </b></p>","null","","",NA,2,"",NA,NA,NA,NA,NA,NA,NA,NA,NA,NA,NA,NA,NA,NA,NA,NA,NA,NA,NA,NA,NA,NA,NA,NA,NA,NA,NA,NA,NA,NA,NA,NA,NA,NA,NA,NA,NA,NA,NA,"",NA,NA,NA,NA,NA,NA,NA,NA,2025-11-21 01:50:11
"27825.400000095367","https://psyc-201.github.io/xiang2023/exp/index1.html?PROLIFIC_PID=REDACTED&STUDY_ID=691f8ca61c6b4dcbb0aeb5f4&SESSION_ID=691fc04d02c111efd2ff52e6","survey-html-form",18,656609,"0.0-317.0","JpCRvBpZpcF4UEVwW6V9hBhXyHp3xcwoAa6EpEymPs42iaS2u/2tz3OfyAUv5XtvX73RxgaVmLs7nrcb1BBxQqatBZD46GN6fkWHsZe4iboRL9kqCcaNtIOG9UcfnZz3vcDEIakAS8npVZo27VR9Fgj/bUW5NhbJaEUzZGLRjkexDFXpcZ9efzVf115D/q2thbpuq6DMBb2WvBHaVT6qiTL/H3U7Q52LuKudrwTjOF6yuHrv5Njwzy17z9ZFfJm3KvX0zf+2pbNuGlNXGW7LdRY268Q5OWIgWMjy/EnV7tjiai+uHGwe1t8iZuDZxmk46NV0aXAEWTo1z87jnagh7g==","691f8ca61c6b4dcbb0aeb5f4","691fc04d02c111efd2ff52e6","index1","<span style='color:red'>Fail,<span style='color:red'>Fail,<span style='color:green'>Lift,<span style='color:green'>Lift,<span style='color:red'>Fail,<span style='color:red'>Fail,<span style='color:red'>Fail,<span style='color:red'>Fail,<span style='color:red'>Fail,<span style='color:green'>Lift,<span style='color:green'>Lift,<span style='color:red'>Fail","<span style='color:red'>Fail,<span style='color:red'>Fail,<span style='color:green'>Lift,<span style='color:green'>Lift,<span style='color:green'>Lift,<span style='color:green'>Lift,<span style='color:green'>Lift,<span style='color:red'>Fail,<span style='color:green'>Lift,<span style='color:green'>Lift,<span style='color:green'>Lift,<span style='color:red'>Fail","<span style='color:red'>Fail,<span style='color:green'>Lift,<span style='color:green'>Lift,<span style='color:red'>Fail,<span style='color:green'>Lift,<span style='color:green'>Lift","0,0,1,1,0,0,0,0,0,1,1,0","0,0,1,1,1,1,1,0,1,1,1,0","0,1,1,0,1,1",10,20,20,"","","","","{""box1"":""7"",""box2"":""3"",""box3"":""30""}","",NA,2,"round1_outcome",1,2,1,7,3,30,NA,1,0,10,7,3,30,NA,1,0,10,NA,NA,NA,NA,NA,NA,NA,NA,NA,NA,NA,NA,NA,NA,NA,NA,NA,NA,NA,NA,NA,NA,"",NA,NA,NA,NA,NA,NA,NA,NA,2025-11-21 01:50:11
"16262.5","https://psyc-201.github.io/xiang2023/exp/index1.html?PROLIFIC_PID=REDACTED&STUDY_ID=691f8ca61c6b4dcbb0aeb5f4&SESSION_ID=691fc04d02c111efd2ff52e6","survey-html-form",19,672872,"0.0-318.0","JpCRvBpZpcF4UEVwW6V9hBhXyHp3xcwoAa6EpEymPs42iaS2u/2tz3OfyAUv5XtvX73RxgaVmLs7nrcb1BBxQqatBZD46GN6fkWHsZe4iboRL9kqCcaNtIOG9UcfnZz3vcDEIakAS8npVZo27VR9Fgj/bUW5NhbJaEUzZGLRjkexDFXpcZ9efzVf115D/q2thbpuq6DMBb2WvBHaVT6qiTL/H3U7Q52LuKudrwTjOF6yuHrv5Njwzy17z9ZFfJm3KvX0zf+2pbNuGlNXGW7LdRY268Q5OWIgWMjy/EnV7tjiai+uHGwe1t8iZuDZxmk46NV0aXAEWTo1z87jnagh7g==","691f8ca61c6b4dcbb0aeb5f4","691fc04d02c111efd2ff52e6","index1","<span style='color:red'>Fail,<span style='color:red'>Fail,<span style='color:green'>Lift,<span style='color:green'>Lift,<span style='color:red'>Fail,<span style='color:red'>Fail,<span style='color:red'>Fail,<span style='color:red'>Fail,<span style='color:red'>Fail,<span style='color:green'>Lift,<span style='color:green'>Lift,<span style='color:red'>Fail","<span style='color:red'>Fail,<span style='color:red'>Fail,<span style='color:green'>Lift,<span style='color:green'>Lift,<span style='color:green'>Lift,<span style='color:green'>Lift,<span style='color:green'>Lift,<span style='color:red'>Fail,<span style='color:green'>Lift,<span style='color:green'>Lift,<span style='color:green'>Lift,<span style='color:red'>Fail","<span style='color:red'>Fail,<span style='color:green'>Lift,<span style='color:green'>Lift,<span style='color:red'>Fail,<span style='color:green'>Lift,<span style='color:green'>Lift","0,0,1,1,0,0,0,0,0,1,1,0","0,0,1,1,1,1,1,0,1,1,1,0","0,1,1,0,1,1",10,20,20,"","","","","{""box1"":""80"",""box2"":""50""}","",NA,2,"round2_ready",2,2,2,NA,NA,NA,NA,NA,NA,NA,NA,NA,NA,NA,NA,NA,NA,80,50,80,50,NA,NA,NA,NA,NA,NA,NA,NA,NA,NA,NA,NA,NA,NA,NA,NA,NA,NA,"",NA,NA,NA,NA,NA,NA,NA,NA,2025-11-21 01:50:11
"24737.599999904633","https://psyc-201.github.io/xiang2023/exp/index1.html?PROLIFIC_PID=REDACTED&STUDY_ID=691f8ca61c6b4dcbb0aeb5f4&SESSION_ID=691fc04d02c111efd2ff52e6","survey-html-form",20,697617,"0.0-319.0","JpCRvBpZpcF4UEVwW6V9hBhXyHp3xcwoAa6EpEymPs42iaS2u/2tz3OfyAUv5XtvX73RxgaVmLs7nrcb1BBxQqatBZD46GN6fkWHsZe4iboRL9kqCcaNtIOG9UcfnZz3vcDEIakAS8npVZo27VR9Fgj/bUW5NhbJaEUzZGLRjkexDFXpcZ9efzVf115D/q2thbpuq6DMBb2WvBHaVT6qiTL/H3U7Q52LuKudrwTjOF6yuHrv5Njwzy17z9ZFfJm3KvX0zf+2pbNuGlNXGW7LdRY268Q5OWIgWMjy/EnV7tjiai+uHGwe1t8iZuDZxmk46NV0aXAEWTo1z87jnagh7g==","691f8ca61c6b4dcbb0aeb5f4","691fc04d02c111efd2ff52e6","index1","<span style='color:red'>Fail,<span style='color:red'>Fail,<span style='color:green'>Lift,<span style='color:green'>Lift,<span style='color:red'>Fail,<span style='color:red'>Fail,<span style='color:red'>Fail,<span style='color:red'>Fail,<span style='color:red'>Fail,<span style='color:green'>Lift,<span style='color:green'>Lift,<span style='color:red'>Fail","<span style='color:red'>Fail,<span style='color:red'>Fail,<span style='color:green'>Lift,<span style='color:green'>Lift,<span style='color:green'>Lift,<span style='color:green'>Lift,<span style='color:green'>Lift,<span style='color:red'>Fail,<span style='color:green'>Lift,<span style='color:green'>Lift,<span style='color:green'>Lift,<span style='color:red'>Fail","<span style='color:red'>Fail,<span style='color:green'>Lift,<span style='color:green'>Lift,<span style='color:red'>Fail,<span style='color:green'>Lift,<span style='color:green'>Lift","0,0,1,1,0,0,0,0,0,1,1,0","0,0,1,1,1,1,1,0,1,1,1,0","0,1,1,0,1,1",10,20,20,"","","","","{""box1"":""8"",""box2"":""2"",""box3"":""90""}","",NA,2,"round2_outcome",3,2,2,8,2,90,NA,1,0,20,NA,NA,NA,NA,NA,NA,NA,NA,NA,NA,NA,8,2,90,NA,1,0,20,NA,NA,NA,NA,NA,NA,NA,NA,NA,NA,NA,"",NA,NA,NA,NA,NA,NA,NA,NA,2025-11-21 01:50:11
"7947.5","https://psyc-201.github.io/xiang2023/exp/index1.html?PROLIFIC_PID=REDACTED&STUDY_ID=691f8ca61c6b4dcbb0aeb5f4&SESSION_ID=691fc04d02c111efd2ff52e6","survey-html-form",21,705569,"0.0-320.0","JpCRvBpZpcF4UEVwW6V9hBhXyHp3xcwoAa6EpEymPs42iaS2u/2tz3OfyAUv5XtvX73RxgaVmLs7nrcb1BBxQqatBZD46GN6fkWHsZe4iboRL9kqCcaNtIOG9UcfnZz3vcDEIakAS8npVZo27VR9Fgj/bUW5NhbJaEUzZGLRjkexDFXpcZ9efzVf115D/q2thbpuq6DMBb2WvBHaVT6qiTL/H3U7Q52LuKudrwTjOF6yuHrv5Njwzy17z9ZFfJm3KvX0zf+2pbNuGlNXGW7LdRY268Q5OWIgWMjy/EnV7tjiai+uHGwe1t8iZuDZxmk46NV0aXAEWTo1z87jnagh7g==","691f8ca61c6b4dcbb0aeb5f4","691fc04d02c111efd2ff52e6","index1","<span style='color:red'>Fail,<span style='color:red'>Fail,<span style='color:green'>Lift,<span style='color:green'>Lift,<span style='color:red'>Fail,<span style='color:red'>Fail,<span style='color:red'>Fail,<span style='color:red'>Fail,<span style='color:red'>Fail,<span style='color:green'>Lift,<span style='color:green'>Lift,<span style='color:red'>Fail","<span style='color:red'>Fail,<span style='color:red'>Fail,<span style='color:green'>Lift,<span style='color:green'>Lift,<span style='color:green'>Lift,<span style='color:green'>Lift,<span style='color:green'>Lift,<span style='color:red'>Fail,<span style='color:green'>Lift,<span style='color:green'>Lift,<span style='color:green'>Lift,<span style='color:red'>Fail","<span style='color:red'>Fail,<span style='color:green'>Lift,<span style='color:green'>Lift,<span style='color:red'>Fail,<span style='color:green'>Lift,<span style='color:green'>Lift","0,0,1,1,0,0,0,0,0,1,1,0","0,0,1,1,1,1,1,0,1,1,1,0","0,1,1,0,1,1",10,20,20,"","","","","{""box1"":""95""}","",NA,2,"round3_ready",4,2,3,NA,NA,NA,NA,NA,NA,NA,NA,NA,NA,NA,NA,NA,NA,95,95,NA,NA,NA,NA,NA,NA,NA,NA,NA,95,95,NA,NA,NA,NA,NA,NA,NA,NA,NA,"",NA,NA,NA,NA,NA,NA,NA,NA,2025-11-21 01:50:11
"23446.300000190735","https://psyc-201.github.io/xiang2023/exp/index1.html?PROLIFIC_PID=REDACTED&STUDY_ID=691f8ca61c6b4dcbb0aeb5f4&SESSION_ID=691fc04d02c111efd2ff52e6","survey-html-form",22,729019,"0.0-321.0-0.0","JpCRvBpZpcF4UEVwW6V9hBhXyHp3xcwoAa6EpEymPs42iaS2u/2tz3OfyAUv5XtvX73RxgaVmLs7nrcb1BBxQqatBZD46GN6fkWHsZe4iboRL9kqCcaNtIOG9UcfnZz3vcDEIakAS8npVZo27VR9Fgj/bUW5NhbJaEUzZGLRjkexDFXpcZ9efzVf115D/q2thbpuq6DMBb2WvBHaVT6qiTL/H3U7Q52LuKudrwTjOF6yuHrv5Njwzy17z9ZFfJm3KvX0zf+2pbNuGlNXGW7LdRY268Q5OWIgWMjy/EnV7tjiai+uHGwe1t8iZuDZxmk46NV0aXAEWTo1z87jnagh7g==","691f8ca61c6b4dcbb0aeb5f4","691fc04d02c111efd2ff52e6","index1","<span style='color:red'>Fail,<span style='color:red'>Fail,<span style='color:green'>Lift,<span style='color:green'>Lift,<span style='color:red'>Fail,<span style='color:red'>Fail,<span style='color:red'>Fail,<span style='color:red'>Fail,<span style='color:red'>Fail,<span style='color:green'>Lift,<span style='color:green'>Lift,<span style='color:red'>Fail","<span style='color:red'>Fail,<span style='color:red'>Fail,<span style='color:green'>Lift,<span style='color:green'>Lift,<span style='color:green'>Lift,<span style='color:green'>Lift,<span style='color:green'>Lift,<span style='color:red'>Fail,<span style='color:green'>Lift,<span style='color:green'>Lift,<span style='color:green'>Lift,<span style='color:red'>Fail","<span style='color:red'>Fail,<span style='color:green'>Lift,<span style='color:green'>Lift,<span style='color:red'>Fail,<span style='color:green'>Lift,<span style='color:green'>Lift","0,0,1,1,0,0,0,0,0,1,1,0","0,0,1,1,1,1,1,0,1,1,1,0","0,1,1,0,1,1",10,20,20,"","","","","{""box1"":""8"",""box2"":""2"",""box3"":""90"",""box4"":""50""}","",NA,3,"round3_lift",5,2,3,8,2,90,50,1,1,20,NA,NA,NA,NA,NA,NA,NA,NA,NA,NA,NA,NA,NA,NA,NA,NA,NA,NA,NA,NA,NA,NA,8,2,1,1,20,90,50,"",NA,NA,NA,NA,NA,NA,NA,NA,2025-11-21 01:50:11
"null","https://psyc-201.github.io/xiang2023/exp/index1.html?PROLIFIC_PID=REDACTED&STUDY_ID=691f8ca61c6b4dcbb0aeb5f4&SESSION_ID=691fc04d02c111efd2ff52e6","html-keyboard-response",23,732022,"0.0-325.0","JpCRvBpZpcF4UEVwW6V9hBhXyHp3xcwoAa6EpEymPs42iaS2u/2tz3OfyAUv5XtvX73RxgaVmLs7nrcb1BBxQqatBZD46GN6fkWHsZe4iboRL9kqCcaNtIOG9UcfnZz3vcDEIakAS8npVZo27VR9Fgj/bUW5NhbJaEUzZGLRjkexDFXpcZ9efzVf115D/q2thbpuq6DMBb2WvBHaVT6qiTL/H3U7Q52LuKudrwTjOF6yuHrv5Njwzy17z9ZFfJm3KvX0zf+2pbNuGlNXGW7LdRY268Q5OWIgWMjy/EnV7tjiai+uHGwe1t8iZuDZxmk46NV0aXAEWTo1z87jnagh7g==","691f8ca61c6b4dcbb0aeb5f4","691fc04d02c111efd2ff52e6","index1","<span style='color:red'>Fail,<span style='color:red'>Fail,<span style='color:green'>Lift,<span style='color:green'>Lift,<span style='color:red'>Fail,<span style='color:red'>Fail,<span style='color:red'>Fail,<span style='color:red'>Fail,<span style='color:red'>Fail,<span style='color:green'>Lift,<span style='color:green'>Lift,<span style='color:red'>Fail","<span style='color:red'>Fail,<span style='color:red'>Fail,<span style='color:green'>Lift,<span style='color:green'>Lift,<span style='color:green'>Lift,<span style='color:green'>Lift,<span style='color:green'>Lift,<span style='color:red'>Fail,<span style='color:green'>Lift,<span style='color:green'>Lift,<span style='color:green'>Lift,<span style='color:red'>Fail","<span style='color:red'>Fail,<span style='color:green'>Lift,<span style='color:green'>Lift,<span style='color:red'>Fail,<span style='color:green'>Lift,<span style='color:green'>Lift","0,0,1,1,0,0,0,0,0,1,1,0","0,0,1,1,1,1,1,0,1,1,1,0","0,1,1,0,1,1",10,20,20,"","","<p style='font-size:30px'><b> New Contest! </b></p>","null","","",NA,3,"",NA,NA,NA,NA,NA,NA,NA,NA,NA,NA,NA,NA,NA,NA,NA,NA,NA,NA,NA,NA,NA,NA,NA,NA,NA,NA,NA,NA,NA,NA,NA,NA,NA,NA,NA,NA,NA,NA,NA,"",NA,NA,NA,NA,NA,NA,NA,NA,2025-11-21 01:50:11
"12544.5","https://psyc-201.github.io/xiang2023/exp/index1.html?PROLIFIC_PID=REDACTED&STUDY_ID=691f8ca61c6b4dcbb0aeb5f4&SESSION_ID=691fc04d02c111efd2ff52e6","survey-html-form",24,744569,"0.0-326.0","JpCRvBpZpcF4UEVwW6V9hBhXyHp3xcwoAa6EpEymPs42iaS2u/2tz3OfyAUv5XtvX73RxgaVmLs7nrcb1BBxQqatBZD46GN6fkWHsZe4iboRL9kqCcaNtIOG9UcfnZz3vcDEIakAS8npVZo27VR9Fgj/bUW5NhbJaEUzZGLRjkexDFXpcZ9efzVf115D/q2thbpuq6DMBb2WvBHaVT6qiTL/H3U7Q52LuKudrwTjOF6yuHrv5Njwzy17z9ZFfJm3KvX0zf+2pbNuGlNXGW7LdRY268Q5OWIgWMjy/EnV7tjiai+uHGwe1t8iZuDZxmk46NV0aXAEWTo1z87jnagh7g==","691f8ca61c6b4dcbb0aeb5f4","691fc04d02c111efd2ff52e6","index1","<span style='color:red'>Fail,<span style='color:red'>Fail,<span style='color:green'>Lift,<span style='color:green'>Lift,<span style='color:red'>Fail,<span style='color:red'>Fail,<span style='color:red'>Fail,<span style='color:red'>Fail,<span style='color:red'>Fail,<span style='color:green'>Lift,<span style='color:green'>Lift,<span style='color:red'>Fail","<span style='color:red'>Fail,<span style='color:red'>Fail,<span style='color:green'>Lift,<span style='color:green'>Lift,<span style='color:green'>Lift,<span style='color:green'>Lift,<span style='color:green'>Lift,<span style='color:red'>Fail,<span style='color:green'>Lift,<span style='color:green'>Lift,<span style='color:green'>Lift,<span style='color:red'>Fail","<span style='color:red'>Fail,<span style='color:green'>Lift,<span style='color:green'>Lift,<span style='color:red'>Fail,<span style='color:green'>Lift,<span style='color:green'>Lift","0,0,1,1,0,0,0,0,0,1,1,0","0,0,1,1,1,1,1,0,1,1,1,0","0,1,1,0,1,1",10,20,20,"","","","","{""box1"":""4"",""box2"":""6""}","",NA,3,"round1_outcome",1,3,1,4,6,NA,NA,0,0,10,4,6,NA,NA,0,0,10,NA,NA,NA,NA,NA,NA,NA,NA,NA,NA,NA,NA,NA,NA,NA,NA,NA,NA,NA,NA,NA,NA,"",NA,NA,NA,NA,NA,NA,NA,NA,2025-11-21 01:50:11
"11496.100000143051","https://psyc-201.github.io/xiang2023/exp/index1.html?PROLIFIC_PID=REDACTED&STUDY_ID=691f8ca61c6b4dcbb0aeb5f4&SESSION_ID=691fc04d02c111efd2ff52e6","survey-html-form",25,756067,"0.0-327.0","JpCRvBpZpcF4UEVwW6V9hBhXyHp3xcwoAa6EpEymPs42iaS2u/2tz3OfyAUv5XtvX73RxgaVmLs7nrcb1BBxQqatBZD46GN6fkWHsZe4iboRL9kqCcaNtIOG9UcfnZz3vcDEIakAS8npVZo27VR9Fgj/bUW5NhbJaEUzZGLRjkexDFXpcZ9efzVf115D/q2thbpuq6DMBb2WvBHaVT6qiTL/H3U7Q52LuKudrwTjOF6yuHrv5Njwzy17z9ZFfJm3KvX0zf+2pbNuGlNXGW7LdRY268Q5OWIgWMjy/EnV7tjiai+uHGwe1t8iZuDZxmk46NV0aXAEWTo1z87jnagh7g==","691f8ca61c6b4dcbb0aeb5f4","691fc04d02c111efd2ff52e6","index1","<span style='color:red'>Fail,<span style='color:red'>Fail,<span style='color:green'>Lift,<span style='color:green'>Lift,<span style='color:red'>Fail,<span style='color:red'>Fail,<span style='color:red'>Fail,<span style='color:red'>Fail,<span style='color:red'>Fail,<span style='color:green'>Lift,<span style='color:green'>Lift,<span style='color:red'>Fail","<span style='color:red'>Fail,<span style='color:red'>Fail,<span style='color:green'>Lift,<span style='color:green'>Lift,<span style='color:green'>Lift,<span style='color:green'>Lift,<span style='color:green'>Lift,<span style='color:red'>Fail,<span style='color:green'>Lift,<span style='color:green'>Lift,<span style='color:green'>Lift,<span style='color:red'>Fail","<span style='color:red'>Fail,<span style='color:green'>Lift,<span style='color:green'>Lift,<span style='color:red'>Fail,<span style='color:green'>Lift,<span style='color:green'>Lift","0,0,1,1,0,0,0,0,0,1,1,0","0,0,1,1,1,1,1,0,1,1,1,0","0,1,1,0,1,1",10,20,20,"","","","","{""box1"":""40"",""box2"":""60""}","",NA,3,"round2_ready",2,3,2,NA,NA,NA,NA,NA,NA,NA,NA,NA,NA,NA,NA,NA,NA,40,60,40,60,NA,NA,NA,NA,NA,NA,NA,NA,NA,NA,NA,NA,NA,NA,NA,NA,NA,NA,"",NA,NA,NA,NA,NA,NA,NA,NA,2025-11-21 01:50:11
"34319.700000047684","https://psyc-201.github.io/xiang2023/exp/index1.html?PROLIFIC_PID=REDACTED&STUDY_ID=691f8ca61c6b4dcbb0aeb5f4&SESSION_ID=691fc04d02c111efd2ff52e6","survey-html-form",26,790387,"0.0-328.0","JpCRvBpZpcF4UEVwW6V9hBhXyHp3xcwoAa6EpEymPs42iaS2u/2tz3OfyAUv5XtvX73RxgaVmLs7nrcb1BBxQqatBZD46GN6fkWHsZe4iboRL9kqCcaNtIOG9UcfnZz3vcDEIakAS8npVZo27VR9Fgj/bUW5NhbJaEUzZGLRjkexDFXpcZ9efzVf115D/q2thbpuq6DMBb2WvBHaVT6qiTL/H3U7Q52LuKudrwTjOF6yuHrv5Njwzy17z9ZFfJm3KvX0zf+2pbNuGlNXGW7LdRY268Q5OWIgWMjy/EnV7tjiai+uHGwe1t8iZuDZxmk46NV0aXAEWTo1z87jnagh7g==","691f8ca61c6b4dcbb0aeb5f4","691fc04d02c111efd2ff52e6","index1","<span style='color:red'>Fail,<span style='color:red'>Fail,<span style='color:green'>Lift,<span style='color:green'>Lift,<span style='color:red'>Fail,<span style='color:red'>Fail,<span style='color:red'>Fail,<span style='color:red'>Fail,<span style='color:red'>Fail,<span style='color:green'>Lift,<span style='color:green'>Lift,<span style='color:red'>Fail","<span style='color:red'>Fail,<span style='color:red'>Fail,<span style='color:green'>Lift,<span style='color:green'>Lift,<span style='color:green'>Lift,<span style='color:green'>Lift,<span style='color:green'>Lift,<span style='color:red'>Fail,<span style='color:green'>Lift,<span style='color:green'>Lift,<span style='color:green'>Lift,<span style='color:red'>Fail","<span style='color:red'>Fail,<span style='color:green'>Lift,<span style='color:green'>Lift,<span style='color:red'>Fail,<span style='color:green'>Lift,<span style='color:green'>Lift","0,0,1,1,0,0,0,0,0,1,1,0","0,0,1,1,1,1,1,0,1,1,1,0","0,1,1,0,1,1",10,20,20,"","","","","{""box1"":""6"",""box2"":""7"",""box3"":""60"",""box4"":""70""}","",NA,3,"round2_outcome",3,3,2,6,7,60,70,1,1,20,NA,NA,NA,NA,NA,NA,NA,NA,NA,NA,NA,6,7,60,70,1,1,20,NA,NA,NA,NA,NA,NA,NA,NA,NA,NA,NA,"",NA,NA,NA,NA,NA,NA,NA,NA,2025-11-21 01:50:11
"6918.5","https://psyc-201.github.io/xiang2023/exp/index1.html?PROLIFIC_PID=REDACTED&STUDY_ID=691f8ca61c6b4dcbb0aeb5f4&SESSION_ID=691fc04d02c111efd2ff52e6","survey-html-form",27,797306,"0.0-329.0","JpCRvBpZpcF4UEVwW6V9hBhXyHp3xcwoAa6EpEymPs42iaS2u/2tz3OfyAUv5XtvX73RxgaVmLs7nrcb1BBxQqatBZD46GN6fkWHsZe4iboRL9kqCcaNtIOG9UcfnZz3vcDEIakAS8npVZo27VR9Fgj/bUW5NhbJaEUzZGLRjkexDFXpcZ9efzVf115D/q2thbpuq6DMBb2WvBHaVT6qiTL/H3U7Q52LuKudrwTjOF6yuHrv5Njwzy17z9ZFfJm3KvX0zf+2pbNuGlNXGW7LdRY268Q5OWIgWMjy/EnV7tjiai+uHGwe1t8iZuDZxmk46NV0aXAEWTo1z87jnagh7g==","691f8ca61c6b4dcbb0aeb5f4","691fc04d02c111efd2ff52e6","index1","<span style='color:red'>Fail,<span style='color:red'>Fail,<span style='color:green'>Lift,<span style='color:green'>Lift,<span style='color:red'>Fail,<span style='color:red'>Fail,<span style='color:red'>Fail,<span style='color:red'>Fail,<span style='color:red'>Fail,<span style='color:green'>Lift,<span style='color:green'>Lift,<span style='color:red'>Fail","<span style='color:red'>Fail,<span style='color:red'>Fail,<span style='color:green'>Lift,<span style='color:green'>Lift,<span style='color:green'>Lift,<span style='color:green'>Lift,<span style='color:green'>Lift,<span style='color:red'>Fail,<span style='color:green'>Lift,<span style='color:green'>Lift,<span style='color:green'>Lift,<span style='color:red'>Fail","<span style='color:red'>Fail,<span style='color:green'>Lift,<span style='color:green'>Lift,<span style='color:red'>Fail,<span style='color:green'>Lift,<span style='color:green'>Lift","0,0,1,1,0,0,0,0,0,1,1,0","0,0,1,1,1,1,1,0,1,1,1,0","0,1,1,0,1,1",10,20,20,"","","","","{""box1"":""100""}","",NA,3,"round3_ready",4,3,3,NA,NA,NA,NA,NA,NA,NA,NA,NA,NA,NA,NA,NA,NA,100,100,NA,NA,NA,NA,NA,NA,NA,NA,NA,100,100,NA,NA,NA,NA,NA,NA,NA,NA,NA,"",NA,NA,NA,NA,NA,NA,NA,NA,2025-11-21 01:50:11
"31249.39999985695","https://psyc-201.github.io/xiang2023/exp/index1.html?PROLIFIC_PID=REDACTED&STUDY_ID=691f8ca61c6b4dcbb0aeb5f4&SESSION_ID=691fc04d02c111efd2ff52e6","survey-html-form",28,828556,"0.0-330.0-0.0","JpCRvBpZpcF4UEVwW6V9hBhXyHp3xcwoAa6EpEymPs42iaS2u/2tz3OfyAUv5XtvX73RxgaVmLs7nrcb1BBxQqatBZD46GN6fkWHsZe4iboRL9kqCcaNtIOG9UcfnZz3vcDEIakAS8npVZo27VR9Fgj/bUW5NhbJaEUzZGLRjkexDFXpcZ9efzVf115D/q2thbpuq6DMBb2WvBHaVT6qiTL/H3U7Q52LuKudrwTjOF6yuHrv5Njwzy17z9ZFfJm3KvX0zf+2pbNuGlNXGW7LdRY268Q5OWIgWMjy/EnV7tjiai+uHGwe1t8iZuDZxmk46NV0aXAEWTo1z87jnagh7g==","691f8ca61c6b4dcbb0aeb5f4","691fc04d02c111efd2ff52e6","index1","<span style='color:red'>Fail,<span style='color:red'>Fail,<span style='color:green'>Lift,<span style='color:green'>Lift,<span style='color:red'>Fail,<span style='color:red'>Fail,<span style='color:red'>Fail,<span style='color:red'>Fail,<span style='color:red'>Fail,<span style='color:green'>Lift,<span style='color:green'>Lift,<span style='color:red'>Fail","<span style='color:red'>Fail,<span style='color:red'>Fail,<span style='color:green'>Lift,<span style='color:green'>Lift,<span style='color:green'>Lift,<span style='color:green'>Lift,<span style='color:green'>Lift,<span style='color:red'>Fail,<span style='color:green'>Lift,<span style='color:green'>Lift,<span style='color:green'>Lift,<span style='color:red'>Fail","<span style='color:red'>Fail,<span style='color:green'>Lift,<span style='color:green'>Lift,<span style='color:red'>Fail,<span style='color:green'>Lift,<span style='color:green'>Lift","0,0,1,1,0,0,0,0,0,1,1,0","0,0,1,1,1,1,1,0,1,1,1,0","0,1,1,0,1,1",10,20,20,"","","","","{""box1"":""6"",""box2"":""7"",""box3"":""80"",""box4"":""70""}","",NA,4,"round3_lift",5,3,3,6,7,80,70,1,1,20,NA,NA,NA,NA,NA,NA,NA,NA,NA,NA,NA,NA,NA,NA,NA,NA,NA,NA,NA,NA,NA,NA,6,7,1,1,20,80,70,"",NA,NA,NA,NA,NA,NA,NA,NA,2025-11-21 01:50:11
"null","https://psyc-201.github.io/xiang2023/exp/index1.html?PROLIFIC_PID=REDACTED&STUDY_ID=691f8ca61c6b4dcbb0aeb5f4&SESSION_ID=691fc04d02c111efd2ff52e6","html-keyboard-response",29,831559,"0.0-334.0","JpCRvBpZpcF4UEVwW6V9hBhXyHp3xcwoAa6EpEymPs42iaS2u/2tz3OfyAUv5XtvX73RxgaVmLs7nrcb1BBxQqatBZD46GN6fkWHsZe4iboRL9kqCcaNtIOG9UcfnZz3vcDEIakAS8npVZo27VR9Fgj/bUW5NhbJaEUzZGLRjkexDFXpcZ9efzVf115D/q2thbpuq6DMBb2WvBHaVT6qiTL/H3U7Q52LuKudrwTjOF6yuHrv5Njwzy17z9ZFfJm3KvX0zf+2pbNuGlNXGW7LdRY268Q5OWIgWMjy/EnV7tjiai+uHGwe1t8iZuDZxmk46NV0aXAEWTo1z87jnagh7g==","691f8ca61c6b4dcbb0aeb5f4","691fc04d02c111efd2ff52e6","index1","<span style='color:red'>Fail,<span style='color:red'>Fail,<span style='color:green'>Lift,<span style='color:green'>Lift,<span style='color:red'>Fail,<span style='color:red'>Fail,<span style='color:red'>Fail,<span style='color:red'>Fail,<span style='color:red'>Fail,<span style='color:green'>Lift,<span style='color:green'>Lift,<span style='color:red'>Fail","<span style='color:red'>Fail,<span style='color:red'>Fail,<span style='color:green'>Lift,<span style='color:green'>Lift,<span style='color:green'>Lift,<span style='color:green'>Lift,<span style='color:green'>Lift,<span style='color:red'>Fail,<span style='color:green'>Lift,<span style='color:green'>Lift,<span style='color:green'>Lift,<span style='color:red'>Fail","<span style='color:red'>Fail,<span style='color:green'>Lift,<span style='color:green'>Lift,<span style='color:red'>Fail,<span style='color:green'>Lift,<span style='color:green'>Lift","0,0,1,1,0,0,0,0,0,1,1,0","0,0,1,1,1,1,1,0,1,1,1,0","0,1,1,0,1,1",10,20,20,"","","<p style='font-size:30px'><b> New Contest! </b></p>","null","","",NA,4,"",NA,NA,NA,NA,NA,NA,NA,NA,NA,NA,NA,NA,NA,NA,NA,NA,NA,NA,NA,NA,NA,NA,NA,NA,NA,NA,NA,NA,NA,NA,NA,NA,NA,NA,NA,NA,NA,NA,NA,"",NA,NA,NA,NA,NA,NA,NA,NA,2025-11-21 01:50:11
"18510.5","https://psyc-201.github.io/xiang2023/exp/index1.html?PROLIFIC_PID=REDACTED&STUDY_ID=691f8ca61c6b4dcbb0aeb5f4&SESSION_ID=691fc04d02c111efd2ff52e6","survey-html-form",30,850070,"0.0-335.0","JpCRvBpZpcF4UEVwW6V9hBhXyHp3xcwoAa6EpEymPs42iaS2u/2tz3OfyAUv5XtvX73RxgaVmLs7nrcb1BBxQqatBZD46GN6fkWHsZe4iboRL9kqCcaNtIOG9UcfnZz3vcDEIakAS8npVZo27VR9Fgj/bUW5NhbJaEUzZGLRjkexDFXpcZ9efzVf115D/q2thbpuq6DMBb2WvBHaVT6qiTL/H3U7Q52LuKudrwTjOF6yuHrv5Njwzy17z9ZFfJm3KvX0zf+2pbNuGlNXGW7LdRY268Q5OWIgWMjy/EnV7tjiai+uHGwe1t8iZuDZxmk46NV0aXAEWTo1z87jnagh7g==","691f8ca61c6b4dcbb0aeb5f4","691fc04d02c111efd2ff52e6","index1","<span style='color:red'>Fail,<span style='color:red'>Fail,<span style='color:green'>Lift,<span style='color:green'>Lift,<span style='color:red'>Fail,<span style='color:red'>Fail,<span style='color:red'>Fail,<span style='color:red'>Fail,<span style='color:red'>Fail,<span style='color:green'>Lift,<span style='color:green'>Lift,<span style='color:red'>Fail","<span style='color:red'>Fail,<span style='color:red'>Fail,<span style='color:green'>Lift,<span style='color:green'>Lift,<span style='color:green'>Lift,<span style='color:green'>Lift,<span style='color:green'>Lift,<span style='color:red'>Fail,<span style='color:green'>Lift,<span style='color:green'>Lift,<span style='color:green'>Lift,<span style='color:red'>Fail","<span style='color:red'>Fail,<span style='color:green'>Lift,<span style='color:green'>Lift,<span style='color:red'>Fail,<span style='color:green'>Lift,<span style='color:green'>Lift","0,0,1,1,0,0,0,0,0,1,1,0","0,0,1,1,1,1,1,0,1,1,1,0","0,1,1,0,1,1",10,20,20,"","","","","{""box1"":""4"",""box2"":""7"",""box4"":""80""}","",NA,4,"round1_outcome",1,4,1,4,7,NA,80,0,1,10,4,7,NA,80,0,1,10,NA,NA,NA,NA,NA,NA,NA,NA,NA,NA,NA,NA,NA,NA,NA,NA,NA,NA,NA,NA,NA,NA,"",NA,NA,NA,NA,NA,NA,NA,NA,2025-11-21 01:50:11
"12379.599999904633","https://psyc-201.github.io/xiang2023/exp/index1.html?PROLIFIC_PID=REDACTED&STUDY_ID=691f8ca61c6b4dcbb0aeb5f4&SESSION_ID=691fc04d02c111efd2ff52e6","survey-html-form",31,862450,"0.0-336.0","JpCRvBpZpcF4UEVwW6V9hBhXyHp3xcwoAa6EpEymPs42iaS2u/2tz3OfyAUv5XtvX73RxgaVmLs7nrcb1BBxQqatBZD46GN6fkWHsZe4iboRL9kqCcaNtIOG9UcfnZz3vcDEIakAS8npVZo27VR9Fgj/bUW5NhbJaEUzZGLRjkexDFXpcZ9efzVf115D/q2thbpuq6DMBb2WvBHaVT6qiTL/H3U7Q52LuKudrwTjOF6yuHrv5Njwzy17z9ZFfJm3KvX0zf+2pbNuGlNXGW7LdRY268Q5OWIgWMjy/EnV7tjiai+uHGwe1t8iZuDZxmk46NV0aXAEWTo1z87jnagh7g==","691f8ca61c6b4dcbb0aeb5f4","691fc04d02c111efd2ff52e6","index1","<span style='color:red'>Fail,<span style='color:red'>Fail,<span style='color:green'>Lift,<span style='color:green'>Lift,<span style='color:red'>Fail,<span style='color:red'>Fail,<span style='color:red'>Fail,<span style='color:red'>Fail,<span style='color:red'>Fail,<span style='color:green'>Lift,<span style='color:green'>Lift,<span style='color:red'>Fail","<span style='color:red'>Fail,<span style='color:red'>Fail,<span style='color:green'>Lift,<span style='color:green'>Lift,<span style='color:green'>Lift,<span style='color:green'>Lift,<span style='color:green'>Lift,<span style='color:red'>Fail,<span style='color:green'>Lift,<span style='color:green'>Lift,<span style='color:green'>Lift,<span style='color:red'>Fail","<span style='color:red'>Fail,<span style='color:green'>Lift,<span style='color:green'>Lift,<span style='color:red'>Fail,<span style='color:green'>Lift,<span style='color:green'>Lift","0,0,1,1,0,0,0,0,0,1,1,0","0,0,1,1,1,1,1,0,1,1,1,0","0,1,1,0,1,1",10,20,20,"","","","","{""box1"":""60"",""box2"":""90""}","",NA,4,"round2_ready",2,4,2,NA,NA,NA,NA,NA,NA,NA,NA,NA,NA,NA,NA,NA,NA,60,90,60,90,NA,NA,NA,NA,NA,NA,NA,NA,NA,NA,NA,NA,NA,NA,NA,NA,NA,NA,"",NA,NA,NA,NA,NA,NA,NA,NA,2025-11-21 01:50:11
"21102.89999985695","https://psyc-201.github.io/xiang2023/exp/index1.html?PROLIFIC_PID=REDACTED&STUDY_ID=691f8ca61c6b4dcbb0aeb5f4&SESSION_ID=691fc04d02c111efd2ff52e6","survey-html-form",32,883553,"0.0-337.0","JpCRvBpZpcF4UEVwW6V9hBhXyHp3xcwoAa6EpEymPs42iaS2u/2tz3OfyAUv5XtvX73RxgaVmLs7nrcb1BBxQqatBZD46GN6fkWHsZe4iboRL9kqCcaNtIOG9UcfnZz3vcDEIakAS8npVZo27VR9Fgj/bUW5NhbJaEUzZGLRjkexDFXpcZ9efzVf115D/q2thbpuq6DMBb2WvBHaVT6qiTL/H3U7Q52LuKudrwTjOF6yuHrv5Njwzy17z9ZFfJm3KvX0zf+2pbNuGlNXGW7LdRY268Q5OWIgWMjy/EnV7tjiai+uHGwe1t8iZuDZxmk46NV0aXAEWTo1z87jnagh7g==","691f8ca61c6b4dcbb0aeb5f4","691fc04d02c111efd2ff52e6","index1","<span style='color:red'>Fail,<span style='color:red'>Fail,<span style='color:green'>Lift,<span style='color:green'>Lift,<span style='color:red'>Fail,<span style='color:red'>Fail,<span style='color:red'>Fail,<span style='color:red'>Fail,<span style='color:red'>Fail,<span style='color:green'>Lift,<span style='color:green'>Lift,<span style='color:red'>Fail","<span style='color:red'>Fail,<span style='color:red'>Fail,<span style='color:green'>Lift,<span style='color:green'>Lift,<span style='color:green'>Lift,<span style='color:green'>Lift,<span style='color:green'>Lift,<span style='color:red'>Fail,<span style='color:green'>Lift,<span style='color:green'>Lift,<span style='color:green'>Lift,<span style='color:red'>Fail","<span style='color:red'>Fail,<span style='color:green'>Lift,<span style='color:green'>Lift,<span style='color:red'>Fail,<span style='color:green'>Lift,<span style='color:green'>Lift","0,0,1,1,0,0,0,0,0,1,1,0","0,0,1,1,1,1,1,0,1,1,1,0","0,1,1,0,1,1",10,20,20,"","","","","{""box1"":""6"",""box2"":""8"",""box3"":""90"",""box4"":""70""}","",NA,4,"round2_outcome",3,4,2,6,8,90,70,1,1,20,NA,NA,NA,NA,NA,NA,NA,NA,NA,NA,NA,6,8,90,70,1,1,20,NA,NA,NA,NA,NA,NA,NA,NA,NA,NA,NA,"",NA,NA,NA,NA,NA,NA,NA,NA,2025-11-21 01:50:11
"6063.5","https://psyc-201.github.io/xiang2023/exp/index1.html?PROLIFIC_PID=REDACTED&STUDY_ID=691f8ca61c6b4dcbb0aeb5f4&SESSION_ID=691fc04d02c111efd2ff52e6","survey-html-form",33,889617,"0.0-338.0","JpCRvBpZpcF4UEVwW6V9hBhXyHp3xcwoAa6EpEymPs42iaS2u/2tz3OfyAUv5XtvX73RxgaVmLs7nrcb1BBxQqatBZD46GN6fkWHsZe4iboRL9kqCcaNtIOG9UcfnZz3vcDEIakAS8npVZo27VR9Fgj/bUW5NhbJaEUzZGLRjkexDFXpcZ9efzVf115D/q2thbpuq6DMBb2WvBHaVT6qiTL/H3U7Q52LuKudrwTjOF6yuHrv5Njwzy17z9ZFfJm3KvX0zf+2pbNuGlNXGW7LdRY268Q5OWIgWMjy/EnV7tjiai+uHGwe1t8iZuDZxmk46NV0aXAEWTo1z87jnagh7g==","691f8ca61c6b4dcbb0aeb5f4","691fc04d02c111efd2ff52e6","index1","<span style='color:red'>Fail,<span style='color:red'>Fail,<span style='color:green'>Lift,<span style='color:green'>Lift,<span style='color:red'>Fail,<span style='color:red'>Fail,<span style='color:red'>Fail,<span style='color:red'>Fail,<span style='color:red'>Fail,<span style='color:green'>Lift,<span style='color:green'>Lift,<span style='color:red'>Fail","<span style='color:red'>Fail,<span style='color:red'>Fail,<span style='color:green'>Lift,<span style='color:green'>Lift,<span style='color:green'>Lift,<span style='color:green'>Lift,<span style='color:green'>Lift,<span style='color:red'>Fail,<span style='color:green'>Lift,<span style='color:green'>Lift,<span style='color:green'>Lift,<span style='color:red'>Fail","<span style='color:red'>Fail,<span style='color:green'>Lift,<span style='color:green'>Lift,<span style='color:red'>Fail,<span style='color:green'>Lift,<span style='color:green'>Lift","0,0,1,1,0,0,0,0,0,1,1,0","0,0,1,1,1,1,1,0,1,1,1,0","0,1,1,0,1,1",10,20,20,"","","","","{""box1"":""95""}","",NA,4,"round3_ready",4,4,3,NA,NA,NA,NA,NA,NA,NA,NA,NA,NA,NA,NA,NA,NA,95,95,NA,NA,NA,NA,NA,NA,NA,NA,NA,95,95,NA,NA,NA,NA,NA,NA,NA,NA,NA,"",NA,NA,NA,NA,NA,NA,NA,NA,2025-11-21 01:50:11
"20217.299999952316","https://psyc-201.github.io/xiang2023/exp/index1.html?PROLIFIC_PID=REDACTED&STUDY_ID=691f8ca61c6b4dcbb0aeb5f4&SESSION_ID=691fc04d02c111efd2ff52e6","survey-html-form",34,909835,"0.0-339.0-0.0","JpCRvBpZpcF4UEVwW6V9hBhXyHp3xcwoAa6EpEymPs42iaS2u/2tz3OfyAUv5XtvX73RxgaVmLs7nrcb1BBxQqatBZD46GN6fkWHsZe4iboRL9kqCcaNtIOG9UcfnZz3vcDEIakAS8npVZo27VR9Fgj/bUW5NhbJaEUzZGLRjkexDFXpcZ9efzVf115D/q2thbpuq6DMBb2WvBHaVT6qiTL/H3U7Q52LuKudrwTjOF6yuHrv5Njwzy17z9ZFfJm3KvX0zf+2pbNuGlNXGW7LdRY268Q5OWIgWMjy/EnV7tjiai+uHGwe1t8iZuDZxmk46NV0aXAEWTo1z87jnagh7g==","691f8ca61c6b4dcbb0aeb5f4","691fc04d02c111efd2ff52e6","index1","<span style='color:red'>Fail,<span style='color:red'>Fail,<span style='color:green'>Lift,<span style='color:green'>Lift,<span style='color:red'>Fail,<span style='color:red'>Fail,<span style='color:red'>Fail,<span style='color:red'>Fail,<span style='color:red'>Fail,<span style='color:green'>Lift,<span style='color:green'>Lift,<span style='color:red'>Fail","<span style='color:red'>Fail,<span style='color:red'>Fail,<span style='color:green'>Lift,<span style='color:green'>Lift,<span style='color:green'>Lift,<span style='color:green'>Lift,<span style='color:green'>Lift,<span style='color:red'>Fail,<span style='color:green'>Lift,<span style='color:green'>Lift,<span style='color:green'>Lift,<span style='color:red'>Fail","<span style='color:red'>Fail,<span style='color:green'>Lift,<span style='color:green'>Lift,<span style='color:red'>Fail,<span style='color:green'>Lift,<span style='color:green'>Lift","0,0,1,1,0,0,0,0,0,1,1,0","0,0,1,1,1,1,1,0,1,1,1,0","0,1,1,0,1,1",10,20,20,"","","","","{""box1"":""7"",""box2"":""9"",""box3"":""80"",""box4"":""60""}","",NA,5,"round3_lift",5,4,3,7,9,80,60,1,1,20,NA,NA,NA,NA,NA,NA,NA,NA,NA,NA,NA,NA,NA,NA,NA,NA,NA,NA,NA,NA,NA,NA,7,9,1,1,20,80,60,"",NA,NA,NA,NA,NA,NA,NA,NA,2025-11-21 01:50:11
"null","https://psyc-201.github.io/xiang2023/exp/index1.html?PROLIFIC_PID=REDACTED&STUDY_ID=691f8ca61c6b4dcbb0aeb5f4&SESSION_ID=691fc04d02c111efd2ff52e6","html-keyboard-response",35,912838,"0.0-343.0","JpCRvBpZpcF4UEVwW6V9hBhXyHp3xcwoAa6EpEymPs42iaS2u/2tz3OfyAUv5XtvX73RxgaVmLs7nrcb1BBxQqatBZD46GN6fkWHsZe4iboRL9kqCcaNtIOG9UcfnZz3vcDEIakAS8npVZo27VR9Fgj/bUW5NhbJaEUzZGLRjkexDFXpcZ9efzVf115D/q2thbpuq6DMBb2WvBHaVT6qiTL/H3U7Q52LuKudrwTjOF6yuHrv5Njwzy17z9ZFfJm3KvX0zf+2pbNuGlNXGW7LdRY268Q5OWIgWMjy/EnV7tjiai+uHGwe1t8iZuDZxmk46NV0aXAEWTo1z87jnagh7g==","691f8ca61c6b4dcbb0aeb5f4","691fc04d02c111efd2ff52e6","index1","<span style='color:red'>Fail,<span style='color:red'>Fail,<span style='color:green'>Lift,<span style='color:green'>Lift,<span style='color:red'>Fail,<span style='color:red'>Fail,<span style='color:red'>Fail,<span style='color:red'>Fail,<span style='color:red'>Fail,<span style='color:green'>Lift,<span style='color:green'>Lift,<span style='color:red'>Fail","<span style='color:red'>Fail,<span style='color:red'>Fail,<span style='color:green'>Lift,<span style='color:green'>Lift,<span style='color:green'>Lift,<span style='color:green'>Lift,<span style='color:green'>Lift,<span style='color:red'>Fail,<span style='color:green'>Lift,<span style='color:green'>Lift,<span style='color:green'>Lift,<span style='color:red'>Fail","<span style='color:red'>Fail,<span style='color:green'>Lift,<span style='color:green'>Lift,<span style='color:red'>Fail,<span style='color:green'>Lift,<span style='color:green'>Lift","0,0,1,1,0,0,0,0,0,1,1,0","0,0,1,1,1,1,1,0,1,1,1,0","0,1,1,0,1,1",10,20,20,"","","<p style='font-size:30px'><b> New Contest! </b></p>","null","","",NA,5,"",NA,NA,NA,NA,NA,NA,NA,NA,NA,NA,NA,NA,NA,NA,NA,NA,NA,NA,NA,NA,NA,NA,NA,NA,NA,NA,NA,NA,NA,NA,NA,NA,NA,NA,NA,NA,NA,NA,NA,"",NA,NA,NA,NA,NA,NA,NA,NA,2025-11-21 01:50:11
"18253.099999904633","https://psyc-201.github.io/xiang2023/exp/index1.html?PROLIFIC_PID=REDACTED&STUDY_ID=691f8ca61c6b4dcbb0aeb5f4&SESSION_ID=691fc04d02c111efd2ff52e6","survey-html-form",36,931093,"0.0-344.0","JpCRvBpZpcF4UEVwW6V9hBhXyHp3xcwoAa6EpEymPs42iaS2u/2tz3OfyAUv5XtvX73RxgaVmLs7nrcb1BBxQqatBZD46GN6fkWHsZe4iboRL9kqCcaNtIOG9UcfnZz3vcDEIakAS8npVZo27VR9Fgj/bUW5NhbJaEUzZGLRjkexDFXpcZ9efzVf115D/q2thbpuq6DMBb2WvBHaVT6qiTL/H3U7Q52LuKudrwTjOF6yuHrv5Njwzy17z9ZFfJm3KvX0zf+2pbNuGlNXGW7LdRY268Q5OWIgWMjy/EnV7tjiai+uHGwe1t8iZuDZxmk46NV0aXAEWTo1z87jnagh7g==","691f8ca61c6b4dcbb0aeb5f4","691fc04d02c111efd2ff52e6","index1","<span style='color:red'>Fail,<span style='color:red'>Fail,<span style='color:green'>Lift,<span style='color:green'>Lift,<span style='color:red'>Fail,<span style='color:red'>Fail,<span style='color:red'>Fail,<span style='color:red'>Fail,<span style='color:red'>Fail,<span style='color:green'>Lift,<span style='color:green'>Lift,<span style='color:red'>Fail","<span style='color:red'>Fail,<span style='color:red'>Fail,<span style='color:green'>Lift,<span style='color:green'>Lift,<span style='color:green'>Lift,<span style='color:green'>Lift,<span style='color:green'>Lift,<span style='color:red'>Fail,<span style='color:green'>Lift,<span style='color:green'>Lift,<span style='color:green'>Lift,<span style='color:red'>Fail","<span style='color:red'>Fail,<span style='color:green'>Lift,<span style='color:green'>Lift,<span style='color:red'>Fail,<span style='color:green'>Lift,<span style='color:green'>Lift","0,0,1,1,0,0,0,0,0,1,1,0","0,0,1,1,1,1,1,0,1,1,1,0","0,1,1,0,1,1",10,20,20,"","","","","{""box1"":""7"",""box2"":""7"",""box3"":""80"",""box4"":""80""}","",NA,5,"round1_outcome",1,5,1,7,7,80,80,1,1,10,7,7,80,80,1,1,10,NA,NA,NA,NA,NA,NA,NA,NA,NA,NA,NA,NA,NA,NA,NA,NA,NA,NA,NA,NA,NA,NA,"",NA,NA,NA,NA,NA,NA,NA,NA,2025-11-21 01:50:11
"28796.599999904633","https://psyc-201.github.io/xiang2023/exp/index1.html?PROLIFIC_PID=REDACTED&STUDY_ID=691f8ca61c6b4dcbb0aeb5f4&SESSION_ID=691fc04d02c111efd2ff52e6","survey-html-form",37,959890,"0.0-345.0","JpCRvBpZpcF4UEVwW6V9hBhXyHp3xcwoAa6EpEymPs42iaS2u/2tz3OfyAUv5XtvX73RxgaVmLs7nrcb1BBxQqatBZD46GN6fkWHsZe4iboRL9kqCcaNtIOG9UcfnZz3vcDEIakAS8npVZo27VR9Fgj/bUW5NhbJaEUzZGLRjkexDFXpcZ9efzVf115D/q2thbpuq6DMBb2WvBHaVT6qiTL/H3U7Q52LuKudrwTjOF6yuHrv5Njwzy17z9ZFfJm3KvX0zf+2pbNuGlNXGW7LdRY268Q5OWIgWMjy/EnV7tjiai+uHGwe1t8iZuDZxmk46NV0aXAEWTo1z87jnagh7g==","691f8ca61c6b4dcbb0aeb5f4","691fc04d02c111efd2ff52e6","index1","<span style='color:red'>Fail,<span style='color:red'>Fail,<span style='color:green'>Lift,<span style='color:green'>Lift,<span style='color:red'>Fail,<span style='color:red'>Fail,<span style='color:red'>Fail,<span style='color:red'>Fail,<span style='color:red'>Fail,<span style='color:green'>Lift,<span style='color:green'>Lift,<span style='color:red'>Fail","<span style='color:red'>Fail,<span style='color:red'>Fail,<span style='color:green'>Lift,<span style='color:green'>Lift,<span style='color:green'>Lift,<span style='color:green'>Lift,<span style='color:green'>Lift,<span style='color:red'>Fail,<span style='color:green'>Lift,<span style='color:green'>Lift,<span style='color:green'>Lift,<span style='color:red'>Fail","<span style='color:red'>Fail,<span style='color:green'>Lift,<span style='color:green'>Lift,<span style='color:red'>Fail,<span style='color:green'>Lift,<span style='color:green'>Lift","0,0,1,1,0,0,0,0,0,1,1,0","0,0,1,1,1,1,1,0,1,1,1,0","0,1,1,0,1,1",10,20,20,"","","","","{""box1"":""90"",""box2"":""90""}","",NA,5,"round2_ready",2,5,2,NA,NA,NA,NA,NA,NA,NA,NA,NA,NA,NA,NA,NA,NA,90,90,90,90,NA,NA,NA,NA,NA,NA,NA,NA,NA,NA,NA,NA,NA,NA,NA,NA,NA,NA,"",NA,NA,NA,NA,NA,NA,NA,NA,2025-11-21 01:50:11
"21144.5","https://psyc-201.github.io/xiang2023/exp/index1.html?PROLIFIC_PID=REDACTED&STUDY_ID=691f8ca61c6b4dcbb0aeb5f4&SESSION_ID=691fc04d02c111efd2ff52e6","survey-html-form",38,981035,"0.0-346.0","JpCRvBpZpcF4UEVwW6V9hBhXyHp3xcwoAa6EpEymPs42iaS2u/2tz3OfyAUv5XtvX73RxgaVmLs7nrcb1BBxQqatBZD46GN6fkWHsZe4iboRL9kqCcaNtIOG9UcfnZz3vcDEIakAS8npVZo27VR9Fgj/bUW5NhbJaEUzZGLRjkexDFXpcZ9efzVf115D/q2thbpuq6DMBb2WvBHaVT6qiTL/H3U7Q52LuKudrwTjOF6yuHrv5Njwzy17z9ZFfJm3KvX0zf+2pbNuGlNXGW7LdRY268Q5OWIgWMjy/EnV7tjiai+uHGwe1t8iZuDZxmk46NV0aXAEWTo1z87jnagh7g==","691f8ca61c6b4dcbb0aeb5f4","691fc04d02c111efd2ff52e6","index1","<span style='color:red'>Fail,<span style='color:red'>Fail,<span style='color:green'>Lift,<span style='color:green'>Lift,<span style='color:red'>Fail,<span style='color:red'>Fail,<span style='color:red'>Fail,<span style='color:red'>Fail,<span style='color:red'>Fail,<span style='color:green'>Lift,<span style='color:green'>Lift,<span style='color:red'>Fail","<span style='color:red'>Fail,<span style='color:red'>Fail,<span style='color:green'>Lift,<span style='color:green'>Lift,<span style='color:green'>Lift,<span style='color:green'>Lift,<span style='color:green'>Lift,<span style='color:red'>Fail,<span style='color:green'>Lift,<span style='color:green'>Lift,<span style='color:green'>Lift,<span style='color:red'>Fail","<span style='color:red'>Fail,<span style='color:green'>Lift,<span style='color:green'>Lift,<span style='color:red'>Fail,<span style='color:green'>Lift,<span style='color:green'>Lift","0,0,1,1,0,0,0,0,0,1,1,0","0,0,1,1,1,1,1,0,1,1,1,0","0,1,1,0,1,1",10,20,20,"","","","","{""box1"":""8"",""box2"":""8"",""box3"":""70"",""box4"":""70""}","",NA,5,"round2_outcome",3,5,2,8,8,70,70,1,1,20,NA,NA,NA,NA,NA,NA,NA,NA,NA,NA,NA,8,8,70,70,1,1,20,NA,NA,NA,NA,NA,NA,NA,NA,NA,NA,NA,"",NA,NA,NA,NA,NA,NA,NA,NA,2025-11-21 01:50:11
"6113.100000143051","https://psyc-201.github.io/xiang2023/exp/index1.html?PROLIFIC_PID=REDACTED&STUDY_ID=691f8ca61c6b4dcbb0aeb5f4&SESSION_ID=691fc04d02c111efd2ff52e6","survey-html-form",39,987149,"0.0-347.0","JpCRvBpZpcF4UEVwW6V9hBhXyHp3xcwoAa6EpEymPs42iaS2u/2tz3OfyAUv5XtvX73RxgaVmLs7nrcb1BBxQqatBZD46GN6fkWHsZe4iboRL9kqCcaNtIOG9UcfnZz3vcDEIakAS8npVZo27VR9Fgj/bUW5NhbJaEUzZGLRjkexDFXpcZ9efzVf115D/q2thbpuq6DMBb2WvBHaVT6qiTL/H3U7Q52LuKudrwTjOF6yuHrv5Njwzy17z9ZFfJm3KvX0zf+2pbNuGlNXGW7LdRY268Q5OWIgWMjy/EnV7tjiai+uHGwe1t8iZuDZxmk46NV0aXAEWTo1z87jnagh7g==","691f8ca61c6b4dcbb0aeb5f4","691fc04d02c111efd2ff52e6","index1","<span style='color:red'>Fail,<span style='color:red'>Fail,<span style='color:green'>Lift,<span style='color:green'>Lift,<span style='color:red'>Fail,<span style='color:red'>Fail,<span style='color:red'>Fail,<span style='color:red'>Fail,<span style='color:red'>Fail,<span style='color:green'>Lift,<span style='color:green'>Lift,<span style='color:red'>Fail","<span style='color:red'>Fail,<span style='color:red'>Fail,<span style='color:green'>Lift,<span style='color:green'>Lift,<span style='color:green'>Lift,<span style='color:green'>Lift,<span style='color:green'>Lift,<span style='color:red'>Fail,<span style='color:green'>Lift,<span style='color:green'>Lift,<span style='color:green'>Lift,<span style='color:red'>Fail","<span style='color:red'>Fail,<span style='color:green'>Lift,<span style='color:green'>Lift,<span style='color:red'>Fail,<span style='color:green'>Lift,<span style='color:green'>Lift","0,0,1,1,0,0,0,0,0,1,1,0","0,0,1,1,1,1,1,0,1,1,1,0","0,1,1,0,1,1",10,20,20,"","","","","{""box1"":""100""}","",NA,5,"round3_ready",4,5,3,NA,NA,NA,NA,NA,NA,NA,NA,NA,NA,NA,NA,NA,NA,100,100,NA,NA,NA,NA,NA,NA,NA,NA,NA,100,100,NA,NA,NA,NA,NA,NA,NA,NA,NA,"",NA,NA,NA,NA,NA,NA,NA,NA,2025-11-21 01:50:11
"42368.40000009537","https://psyc-201.github.io/xiang2023/exp/index1.html?PROLIFIC_PID=REDACTED&STUDY_ID=691f8ca61c6b4dcbb0aeb5f4&SESSION_ID=691fc04d02c111efd2ff52e6","survey-html-form",40,1029516,"0.0-348.0-0.0","JpCRvBpZpcF4UEVwW6V9hBhXyHp3xcwoAa6EpEymPs42iaS2u/2tz3OfyAUv5XtvX73RxgaVmLs7nrcb1BBxQqatBZD46GN6fkWHsZe4iboRL9kqCcaNtIOG9UcfnZz3vcDEIakAS8npVZo27VR9Fgj/bUW5NhbJaEUzZGLRjkexDFXpcZ9efzVf115D/q2thbpuq6DMBb2WvBHaVT6qiTL/H3U7Q52LuKudrwTjOF6yuHrv5Njwzy17z9ZFfJm3KvX0zf+2pbNuGlNXGW7LdRY268Q5OWIgWMjy/EnV7tjiai+uHGwe1t8iZuDZxmk46NV0aXAEWTo1z87jnagh7g==","691f8ca61c6b4dcbb0aeb5f4","691fc04d02c111efd2ff52e6","index1","<span style='color:red'>Fail,<span style='color:red'>Fail,<span style='color:green'>Lift,<span style='color:green'>Lift,<span style='color:red'>Fail,<span style='color:red'>Fail,<span style='color:red'>Fail,<span style='color:red'>Fail,<span style='color:red'>Fail,<span style='color:green'>Lift,<span style='color:green'>Lift,<span style='color:red'>Fail","<span style='color:red'>Fail,<span style='color:red'>Fail,<span style='color:green'>Lift,<span style='color:green'>Lift,<span style='color:green'>Lift,<span style='color:green'>Lift,<span style='color:green'>Lift,<span style='color:red'>Fail,<span style='color:green'>Lift,<span style='color:green'>Lift,<span style='color:green'>Lift,<span style='color:red'>Fail","<span style='color:red'>Fail,<span style='color:green'>Lift,<span style='color:green'>Lift,<span style='color:red'>Fail,<span style='color:green'>Lift,<span style='color:green'>Lift","0,0,1,1,0,0,0,0,0,1,1,0","0,0,1,1,1,1,1,0,1,1,1,0","0,1,1,0,1,1",10,20,20,"","","","","{""box1"":""7"",""box2"":""8"",""box3"":""70"",""box4"":""60""}","",NA,6,"round3_lift",5,5,3,7,8,70,60,1,1,20,NA,NA,NA,NA,NA,NA,NA,NA,NA,NA,NA,NA,NA,NA,NA,NA,NA,NA,NA,NA,NA,NA,7,8,1,1,20,70,60,"",NA,NA,NA,NA,NA,NA,NA,NA,2025-11-21 01:50:11
"null","https://psyc-201.github.io/xiang2023/exp/index1.html?PROLIFIC_PID=REDACTED&STUDY_ID=691f8ca61c6b4dcbb0aeb5f4&SESSION_ID=691fc04d02c111efd2ff52e6","html-keyboard-response",41,1032518,"0.0-352.0","JpCRvBpZpcF4UEVwW6V9hBhXyHp3xcwoAa6EpEymPs42iaS2u/2tz3OfyAUv5XtvX73RxgaVmLs7nrcb1BBxQqatBZD46GN6fkWHsZe4iboRL9kqCcaNtIOG9UcfnZz3vcDEIakAS8npVZo27VR9Fgj/bUW5NhbJaEUzZGLRjkexDFXpcZ9efzVf115D/q2thbpuq6DMBb2WvBHaVT6qiTL/H3U7Q52LuKudrwTjOF6yuHrv5Njwzy17z9ZFfJm3KvX0zf+2pbNuGlNXGW7LdRY268Q5OWIgWMjy/EnV7tjiai+uHGwe1t8iZuDZxmk46NV0aXAEWTo1z87jnagh7g==","691f8ca61c6b4dcbb0aeb5f4","691fc04d02c111efd2ff52e6","index1","<span style='color:red'>Fail,<span style='color:red'>Fail,<span style='color:green'>Lift,<span style='color:green'>Lift,<span style='color:red'>Fail,<span style='color:red'>Fail,<span style='color:red'>Fail,<span style='color:red'>Fail,<span style='color:red'>Fail,<span style='color:green'>Lift,<span style='color:green'>Lift,<span style='color:red'>Fail","<span style='color:red'>Fail,<span style='color:red'>Fail,<span style='color:green'>Lift,<span style='color:green'>Lift,<span style='color:green'>Lift,<span style='color:green'>Lift,<span style='color:green'>Lift,<span style='color:red'>Fail,<span style='color:green'>Lift,<span style='color:green'>Lift,<span style='color:green'>Lift,<span style='color:red'>Fail","<span style='color:red'>Fail,<span style='color:green'>Lift,<span style='color:green'>Lift,<span style='color:red'>Fail,<span style='color:green'>Lift,<span style='color:green'>Lift","0,0,1,1,0,0,0,0,0,1,1,0","0,0,1,1,1,1,1,0,1,1,1,0","0,1,1,0,1,1",10,20,20,"","","<p style='font-size:30px'><b> New Contest! </b></p>","null","","",NA,6,"",NA,NA,NA,NA,NA,NA,NA,NA,NA,NA,NA,NA,NA,NA,NA,NA,NA,NA,NA,NA,NA,NA,NA,NA,NA,NA,NA,NA,NA,NA,NA,NA,NA,NA,NA,NA,NA,NA,NA,"",NA,NA,NA,NA,NA,NA,NA,NA,2025-11-21 01:50:11
"21863.700000047684","https://psyc-201.github.io/xiang2023/exp/index1.html?PROLIFIC_PID=REDACTED&STUDY_ID=691f8ca61c6b4dcbb0aeb5f4&SESSION_ID=691fc04d02c111efd2ff52e6","survey-html-form",42,1054383,"0.0-353.0","JpCRvBpZpcF4UEVwW6V9hBhXyHp3xcwoAa6EpEymPs42iaS2u/2tz3OfyAUv5XtvX73RxgaVmLs7nrcb1BBxQqatBZD46GN6fkWHsZe4iboRL9kqCcaNtIOG9UcfnZz3vcDEIakAS8npVZo27VR9Fgj/bUW5NhbJaEUzZGLRjkexDFXpcZ9efzVf115D/q2thbpuq6DMBb2WvBHaVT6qiTL/H3U7Q52LuKudrwTjOF6yuHrv5Njwzy17z9ZFfJm3KvX0zf+2pbNuGlNXGW7LdRY268Q5OWIgWMjy/EnV7tjiai+uHGwe1t8iZuDZxmk46NV0aXAEWTo1z87jnagh7g==","691f8ca61c6b4dcbb0aeb5f4","691fc04d02c111efd2ff52e6","index1","<span style='color:red'>Fail,<span style='color:red'>Fail,<span style='color:green'>Lift,<span style='color:green'>Lift,<span style='color:red'>Fail,<span style='color:red'>Fail,<span style='color:red'>Fail,<span style='color:red'>Fail,<span style='color:red'>Fail,<span style='color:green'>Lift,<span style='color:green'>Lift,<span style='color:red'>Fail","<span style='color:red'>Fail,<span style='color:red'>Fail,<span style='color:green'>Lift,<span style='color:green'>Lift,<span style='color:green'>Lift,<span style='color:green'>Lift,<span style='color:green'>Lift,<span style='color:red'>Fail,<span style='color:green'>Lift,<span style='color:green'>Lift,<span style='color:green'>Lift,<span style='color:red'>Fail","<span style='color:red'>Fail,<span style='color:green'>Lift,<span style='color:green'>Lift,<span style='color:red'>Fail,<span style='color:green'>Lift,<span style='color:green'>Lift","0,0,1,1,0,0,0,0,0,1,1,0","0,0,1,1,1,1,1,0,1,1,1,0","0,1,1,0,1,1",10,20,20,"","","","","{""box1"":""5"",""box2"":""5""}","",NA,6,"round1_outcome",1,6,1,5,5,NA,NA,0,0,10,5,5,NA,NA,0,0,10,NA,NA,NA,NA,NA,NA,NA,NA,NA,NA,NA,NA,NA,NA,NA,NA,NA,NA,NA,NA,NA,NA,"",NA,NA,NA,NA,NA,NA,NA,NA,2025-11-21 01:50:11
"80522.5","https://psyc-201.github.io/xiang2023/exp/index1.html?PROLIFIC_PID=REDACTED&STUDY_ID=691f8ca61c6b4dcbb0aeb5f4&SESSION_ID=691fc04d02c111efd2ff52e6","survey-html-form",43,1134904,"0.0-354.0","JpCRvBpZpcF4UEVwW6V9hBhXyHp3xcwoAa6EpEymPs42iaS2u/2tz3OfyAUv5XtvX73RxgaVmLs7nrcb1BBxQqatBZD46GN6fkWHsZe4iboRL9kqCcaNtIOG9UcfnZz3vcDEIakAS8npVZo27VR9Fgj/bUW5NhbJaEUzZGLRjkexDFXpcZ9efzVf115D/q2thbpuq6DMBb2WvBHaVT6qiTL/H3U7Q52LuKudrwTjOF6yuHrv5Njwzy17z9ZFfJm3KvX0zf+2pbNuGlNXGW7LdRY268Q5OWIgWMjy/EnV7tjiai+uHGwe1t8iZuDZxmk46NV0aXAEWTo1z87jnagh7g==","691f8ca61c6b4dcbb0aeb5f4","691fc04d02c111efd2ff52e6","index1","<span style='color:red'>Fail,<span style='color:red'>Fail,<span style='color:green'>Lift,<span style='color:green'>Lift,<span style='color:red'>Fail,<span style='color:red'>Fail,<span style='color:red'>Fail,<span style='color:red'>Fail,<span style='color:red'>Fail,<span style='color:green'>Lift,<span style='color:green'>Lift,<span style='color:red'>Fail","<span style='color:red'>Fail,<span style='color:red'>Fail,<span style='color:green'>Lift,<span style='color:green'>Lift,<span style='color:green'>Lift,<span style='color:green'>Lift,<span style='color:green'>Lift,<span style='color:red'>Fail,<span style='color:green'>Lift,<span style='color:green'>Lift,<span style='color:green'>Lift,<span style='color:red'>Fail","<span style='color:red'>Fail,<span style='color:green'>Lift,<span style='color:green'>Lift,<span style='color:red'>Fail,<span style='color:green'>Lift,<span style='color:green'>Lift","0,0,1,1,0,0,0,0,0,1,1,0","0,0,1,1,1,1,1,0,1,1,1,0","0,1,1,0,1,1",10,20,20,"","","","","{""box1"":""60"",""box2"":""70""}","",NA,6,"round2_ready",2,6,2,NA,NA,NA,NA,NA,NA,NA,NA,NA,NA,NA,NA,NA,NA,60,70,60,70,NA,NA,NA,NA,NA,NA,NA,NA,NA,NA,NA,NA,NA,NA,NA,NA,NA,NA,"",NA,NA,NA,NA,NA,NA,NA,NA,2025-11-21 01:50:11
"34545","https://psyc-201.github.io/xiang2023/exp/index1.html?PROLIFIC_PID=REDACTED&STUDY_ID=691f8ca61c6b4dcbb0aeb5f4&SESSION_ID=691fc04d02c111efd2ff52e6","survey-html-form",44,1169449,"0.0-355.0","JpCRvBpZpcF4UEVwW6V9hBhXyHp3xcwoAa6EpEymPs42iaS2u/2tz3OfyAUv5XtvX73RxgaVmLs7nrcb1BBxQqatBZD46GN6fkWHsZe4iboRL9kqCcaNtIOG9UcfnZz3vcDEIakAS8npVZo27VR9Fgj/bUW5NhbJaEUzZGLRjkexDFXpcZ9efzVf115D/q2thbpuq6DMBb2WvBHaVT6qiTL/H3U7Q52LuKudrwTjOF6yuHrv5Njwzy17z9ZFfJm3KvX0zf+2pbNuGlNXGW7LdRY268Q5OWIgWMjy/EnV7tjiai+uHGwe1t8iZuDZxmk46NV0aXAEWTo1z87jnagh7g==","691f8ca61c6b4dcbb0aeb5f4","691fc04d02c111efd2ff52e6","index1","<span style='color:red'>Fail,<span style='color:red'>Fail,<span style='color:green'>Lift,<span style='color:green'>Lift,<span style='color:red'>Fail,<span style='color:red'>Fail,<span style='color:red'>Fail,<span style='color:red'>Fail,<span style='color:red'>Fail,<span style='color:green'>Lift,<span style='color:green'>Lift,<span style='color:red'>Fail","<span style='color:red'>Fail,<span style='color:red'>Fail,<span style='color:green'>Lift,<span style='color:green'>Lift,<span style='color:green'>Lift,<span style='color:green'>Lift,<span style='color:green'>Lift,<span style='color:red'>Fail,<span style='color:green'>Lift,<span style='color:green'>Lift,<span style='color:green'>Lift,<span style='color:red'>Fail","<span style='color:red'>Fail,<span style='color:green'>Lift,<span style='color:green'>Lift,<span style='color:red'>Fail,<span style='color:green'>Lift,<span style='color:green'>Lift","0,0,1,1,0,0,0,0,0,1,1,0","0,0,1,1,1,1,1,0,1,1,1,0","0,1,1,0,1,1",10,20,20,"","","","","{""box1"":""7"",""box2"":""4"",""box3"":""80""}","",NA,6,"round2_outcome",3,6,2,7,4,80,NA,1,0,20,NA,NA,NA,NA,NA,NA,NA,NA,NA,NA,NA,7,4,80,NA,1,0,20,NA,NA,NA,NA,NA,NA,NA,NA,NA,NA,NA,"",NA,NA,NA,NA,NA,NA,NA,NA,2025-11-21 01:50:11
"6483.900000095367","https://psyc-201.github.io/xiang2023/exp/index1.html?PROLIFIC_PID=REDACTED&STUDY_ID=691f8ca61c6b4dcbb0aeb5f4&SESSION_ID=691fc04d02c111efd2ff52e6","survey-html-form",45,1175934,"0.0-356.0","JpCRvBpZpcF4UEVwW6V9hBhXyHp3xcwoAa6EpEymPs42iaS2u/2tz3OfyAUv5XtvX73RxgaVmLs7nrcb1BBxQqatBZD46GN6fkWHsZe4iboRL9kqCcaNtIOG9UcfnZz3vcDEIakAS8npVZo27VR9Fgj/bUW5NhbJaEUzZGLRjkexDFXpcZ9efzVf115D/q2thbpuq6DMBb2WvBHaVT6qiTL/H3U7Q52LuKudrwTjOF6yuHrv5Njwzy17z9ZFfJm3KvX0zf+2pbNuGlNXGW7LdRY268Q5OWIgWMjy/EnV7tjiai+uHGwe1t8iZuDZxmk46NV0aXAEWTo1z87jnagh7g==","691f8ca61c6b4dcbb0aeb5f4","691fc04d02c111efd2ff52e6","index1","<span style='color:red'>Fail,<span style='color:red'>Fail,<span style='color:green'>Lift,<span style='color:green'>Lift,<span style='color:red'>Fail,<span style='color:red'>Fail,<span style='color:red'>Fail,<span style='color:red'>Fail,<span style='color:red'>Fail,<span style='color:green'>Lift,<span style='color:green'>Lift,<span style='color:red'>Fail","<span style='color:red'>Fail,<span style='color:red'>Fail,<span style='color:green'>Lift,<span style='color:green'>Lift,<span style='color:green'>Lift,<span style='color:green'>Lift,<span style='color:green'>Lift,<span style='color:red'>Fail,<span style='color:green'>Lift,<span style='color:green'>Lift,<span style='color:green'>Lift,<span style='color:red'>Fail","<span style='color:red'>Fail,<span style='color:green'>Lift,<span style='color:green'>Lift,<span style='color:red'>Fail,<span style='color:green'>Lift,<span style='color:green'>Lift","0,0,1,1,0,0,0,0,0,1,1,0","0,0,1,1,1,1,1,0,1,1,1,0","0,1,1,0,1,1",10,20,20,"","","","","{""box1"":""60""}","",NA,6,"round3_ready",4,6,3,NA,NA,NA,NA,NA,NA,NA,NA,NA,NA,NA,NA,NA,NA,60,60,NA,NA,NA,NA,NA,NA,NA,NA,NA,60,60,NA,NA,NA,NA,NA,NA,NA,NA,NA,"",NA,NA,NA,NA,NA,NA,NA,NA,2025-11-21 01:50:11
"22764.099999904633","https://psyc-201.github.io/xiang2023/exp/index1.html?PROLIFIC_PID=REDACTED&STUDY_ID=691f8ca61c6b4dcbb0aeb5f4&SESSION_ID=691fc04d02c111efd2ff52e6","survey-html-form",46,1198699,"0.0-358.0-0.0","JpCRvBpZpcF4UEVwW6V9hBhXyHp3xcwoAa6EpEymPs42iaS2u/2tz3OfyAUv5XtvX73RxgaVmLs7nrcb1BBxQqatBZD46GN6fkWHsZe4iboRL9kqCcaNtIOG9UcfnZz3vcDEIakAS8npVZo27VR9Fgj/bUW5NhbJaEUzZGLRjkexDFXpcZ9efzVf115D/q2thbpuq6DMBb2WvBHaVT6qiTL/H3U7Q52LuKudrwTjOF6yuHrv5Njwzy17z9ZFfJm3KvX0zf+2pbNuGlNXGW7LdRY268Q5OWIgWMjy/EnV7tjiai+uHGwe1t8iZuDZxmk46NV0aXAEWTo1z87jnagh7g==","691f8ca61c6b4dcbb0aeb5f4","691fc04d02c111efd2ff52e6","index1","<span style='color:red'>Fail,<span style='color:red'>Fail,<span style='color:green'>Lift,<span style='color:green'>Lift,<span style='color:red'>Fail,<span style='color:red'>Fail,<span style='color:red'>Fail,<span style='color:red'>Fail,<span style='color:red'>Fail,<span style='color:green'>Lift,<span style='color:green'>Lift,<span style='color:red'>Fail","<span style='color:red'>Fail,<span style='color:red'>Fail,<span style='color:green'>Lift,<span style='color:green'>Lift,<span style='color:green'>Lift,<span style='color:green'>Lift,<span style='color:green'>Lift,<span style='color:red'>Fail,<span style='color:green'>Lift,<span style='color:green'>Lift,<span style='color:green'>Lift,<span style='color:red'>Fail","<span style='color:red'>Fail,<span style='color:green'>Lift,<span style='color:green'>Lift,<span style='color:red'>Fail,<span style='color:green'>Lift,<span style='color:green'>Lift","0,0,1,1,0,0,0,0,0,1,1,0","0,0,1,1,1,1,1,0,1,1,1,0","0,1,1,0,1,1",10,20,20,"","","","","{""box1"":""4"",""box2"":""3"",""box3"":""999"",""box4"":""999""}","",NA,6,"round3_fail",5,6,3,4,3,NA,NA,0,0,20,NA,NA,NA,NA,NA,NA,NA,NA,NA,NA,NA,NA,NA,NA,NA,NA,NA,NA,NA,NA,1,1,4,3,0,0,20,NA,NA,"",NA,NA,NA,NA,NA,NA,NA,NA,2025-11-21 01:50:11
"62334","https://psyc-201.github.io/xiang2023/exp/index1.html?PROLIFIC_PID=REDACTED&STUDY_ID=691f8ca61c6b4dcbb0aeb5f4&SESSION_ID=691fc04d02c111efd2ff52e6","survey-text",47,1261033,"0.0-361.0","JpCRvBpZpcF4UEVwW6V9hBhXyHp3xcwoAa6EpEymPs42iaS2u/2tz3OfyAUv5XtvX73RxgaVmLs7nrcb1BBxQqatBZD46GN6fkWHsZe4iboRL9kqCcaNtIOG9UcfnZz3vcDEIakAS8npVZo27VR9Fgj/bUW5NhbJaEUzZGLRjkexDFXpcZ9efzVf115D/q2thbpuq6DMBb2WvBHaVT6qiTL/H3U7Q52LuKudrwTjOF6yuHrv5Njwzy17z9ZFfJm3KvX0zf+2pbNuGlNXGW7LdRY268Q5OWIgWMjy/EnV7tjiai+uHGwe1t8iZuDZxmk46NV0aXAEWTo1z87jnagh7g==","691f8ca61c6b4dcbb0aeb5f4","691fc04d02c111efd2ff52e6","index1","<span style='color:red'>Fail,<span style='color:red'>Fail,<span style='color:green'>Lift,<span style='color:green'>Lift,<span style='color:red'>Fail,<span style='color:red'>Fail,<span style='color:red'>Fail,<span style='color:red'>Fail,<span style='color:red'>Fail,<span style='color:green'>Lift,<span style='color:green'>Lift,<span style='color:red'>Fail","<span style='color:red'>Fail,<span style='color:red'>Fail,<span style='color:green'>Lift,<span style='color:green'>Lift,<span style='color:green'>Lift,<span style='color:green'>Lift,<span style='color:green'>Lift,<span style='color:red'>Fail,<span style='color:green'>Lift,<span style='color:green'>Lift,<span style='color:green'>Lift,<span style='color:red'>Fail","<span style='color:red'>Fail,<span style='color:green'>Lift,<span style='color:green'>Lift,<span style='color:red'>Fail,<span style='color:green'>Lift,<span style='color:green'>Lift","0,0,1,1,0,0,0,0,0,1,1,0","0,0,1,1,1,1,1,0,1,1,1,0","0,1,1,0,1,1",10,20,20,"","","","","{""Q0"":""Guess the strength of contestants and the percentage they had of lifting the box - first independently then together.""}","",NA,NA,"",NA,NA,NA,NA,NA,NA,NA,NA,NA,NA,NA,NA,NA,NA,NA,NA,NA,NA,NA,NA,NA,NA,NA,NA,NA,NA,NA,NA,NA,NA,NA,NA,NA,NA,NA,NA,NA,NA,NA,"",NA,NA,NA,NA,NA,NA,NA,NA,2025-11-21 01:50:11
"5946.400000095367","https://psyc-201.github.io/xiang2023/exp/index1.html?PROLIFIC_PID=REDACTED&STUDY_ID=691f8ca61c6b4dcbb0aeb5f4&SESSION_ID=691fc04d02c111efd2ff52e6","survey-text",48,1266980,"0.0-362.0","JpCRvBpZpcF4UEVwW6V9hBhXyHp3xcwoAa6EpEymPs42iaS2u/2tz3OfyAUv5XtvX73RxgaVmLs7nrcb1BBxQqatBZD46GN6fkWHsZe4iboRL9kqCcaNtIOG9UcfnZz3vcDEIakAS8npVZo27VR9Fgj/bUW5NhbJaEUzZGLRjkexDFXpcZ9efzVf115D/q2thbpuq6DMBb2WvBHaVT6qiTL/H3U7Q52LuKudrwTjOF6yuHrv5Njwzy17z9ZFfJm3KvX0zf+2pbNuGlNXGW7LdRY268Q5OWIgWMjy/EnV7tjiai+uHGwe1t8iZuDZxmk46NV0aXAEWTo1z87jnagh7g==","691f8ca61c6b4dcbb0aeb5f4","691fc04d02c111efd2ff52e6","index1","<span style='color:red'>Fail,<span style='color:red'>Fail,<span style='color:green'>Lift,<span style='color:green'>Lift,<span style='color:red'>Fail,<span style='color:red'>Fail,<span style='color:red'>Fail,<span style='color:red'>Fail,<span style='color:red'>Fail,<span style='color:green'>Lift,<span style='color:green'>Lift,<span style='color:red'>Fail","<span style='color:red'>Fail,<span style='color:red'>Fail,<span style='color:green'>Lift,<span style='color:green'>Lift,<span style='color:green'>Lift,<span style='color:green'>Lift,<span style='color:green'>Lift,<span style='color:red'>Fail,<span style='color:green'>Lift,<span style='color:green'>Lift,<span style='color:green'>Lift,<span style='color:red'>Fail","<span style='color:red'>Fail,<span style='color:green'>Lift,<span style='color:green'>Lift,<span style='color:red'>Fail,<span style='color:green'>Lift,<span style='color:green'>Lift","0,0,1,1,0,0,0,0,0,1,1,0","0,0,1,1,1,1,1,0,1,1,1,0","0,1,1,0,1,1",10,20,20,"","","","","{""Q0"":""""}","",NA,NA,"",NA,NA,NA,NA,NA,NA,NA,NA,NA,NA,NA,NA,NA,NA,NA,NA,NA,NA,NA,NA,NA,NA,NA,NA,NA,NA,NA,NA,NA,NA,NA,NA,NA,NA,NA,NA,NA,NA,NA,"[{""event"":""fullscreenenter"",""trial"":1,""time"":9828}]",5,2,1,90,1,0.9,NA,NA,2025-11-21 01:50:11
"5985","https://psyc-201.github.io/xiang2023/exp/index1.html?PROLIFIC_PID=REDACTED&STUDY_ID=691f8ca61c6b4dcbb0aeb5f4&SESSION_ID=691fc04d02c111efd2ff52e6","html-button-response",49,1272966,"0.0-363.0","JpCRvBpZpcF4UEVwW6V9hBhXyHp3xcwoAa6EpEymPs42iaS2u/2tz3OfyAUv5XtvX73RxgaVmLs7nrcb1BBxQqatBZD46GN6fkWHsZe4iboRL9kqCcaNtIOG9UcfnZz3vcDEIakAS8npVZo27VR9Fgj/bUW5NhbJaEUzZGLRjkexDFXpcZ9efzVf115D/q2thbpuq6DMBb2WvBHaVT6qiTL/H3U7Q52LuKudrwTjOF6yuHrv5Njwzy17z9ZFfJm3KvX0zf+2pbNuGlNXGW7LdRY268Q5OWIgWMjy/EnV7tjiai+uHGwe1t8iZuDZxmk46NV0aXAEWTo1z87jnagh7g==","691f8ca61c6b4dcbb0aeb5f4","691fc04d02c111efd2ff52e6","index1","<span style='color:red'>Fail,<span style='color:red'>Fail,<span style='color:green'>Lift,<span style='color:green'>Lift,<span style='color:red'>Fail,<span style='color:red'>Fail,<span style='color:red'>Fail,<span style='color:red'>Fail,<span style='color:red'>Fail,<span style='color:green'>Lift,<span style='color:green'>Lift,<span style='color:red'>Fail","<span style='color:red'>Fail,<span style='color:red'>Fail,<span style='color:green'>Lift,<span style='color:green'>Lift,<span style='color:green'>Lift,<span style='color:green'>Lift,<span style='color:green'>Lift,<span style='color:red'>Fail,<span style='color:green'>Lift,<span style='color:green'>Lift,<span style='color:green'>Lift,<span style='color:red'>Fail","<span style='color:red'>Fail,<span style='color:green'>Lift,<span style='color:green'>Lift,<span style='color:red'>Fail,<span style='color:green'>Lift,<span style='color:green'>Lift","0,0,1,1,0,0,0,0,0,1,1,0","0,0,1,1,1,1,1,0,1,1,1,0","0,1,1,0,1,1",10,20,20,"","","<p> We randomly picked <b>Contest 5, Round 2</b> to calculate your bonus. </p><p> The outcome of Contestant J on that round is <span style='color:green'>Lift</span>. </p><p> The probability you entered was 90. </p><p><b> You won a bonus of $0.90!</b></p><p> IMPORTANT: Please click 'Next' to complete the game.</p>","","","",0,NA,"",NA,NA,NA,NA,NA,NA,NA,NA,NA,NA,NA,NA,NA,NA,NA,NA,NA,NA,NA,NA,NA,NA,NA,NA,NA,NA,NA,NA,NA,NA,NA,NA,NA,NA,NA,NA,NA,NA,NA,"",NA,NA,NA,NA,NA,NA,2,1,2025-11-21 01:50:11
