"rt","url","trial_type","trial_index","time_elapsed","internal_node_id","encryptedProlificId","studyId","sessionId","expIndex","round1_outcomes","round2_outcomes","round3_outcomes","round1_o","round2_o","round3_o","round1_reward","round2_reward","round3_reward","success","view_history","stimulus","key_press","responses","question_order","button_pressed","j","Stage","stage","contest","round","strength_a","strength_b","effort_a","effort_b","outcome_a","outcome_b","reward","r1_strength_a","r1_strength_b","r1_effort_a","r1_effort_b","r1_outcome_a","r1_outcome_b","r1_reward","probability_a","probability_b","r2_prob_a","r2_prob_b","r2_strength_a","r2_strength_b","r2_effort_a","r2_effort_b","r2_outcome_a","r2_outcome_b","r2_reward","r3_prob_a","r3_prob_b","r3_strength_a","r3_strength_b","r3_effort_a","r3_effort_b","r3_outcome_a","r3_outcome_b","r3_reward","attention_check","count","screen","pick_contest","pick_round","pick_side","trial_probability","trial_outcome","bonus","attention_sum","attention","datapipe_meta.attributes.date_modified"
"3965.7999999523163","https://psyc-201.github.io/xiang2023/exp/index1.html?PROLIFIC_PID=REDACTED&STUDY_ID=69168b21477cff9ada6cb980&SESSION_ID=691bd46bcdd5e877c02610e6","external-html",0,4067,"0.0-0.0","qqw+6O/bmICv0iLz6CgEWGDcPB0HX5+sUUVykZwRai9KQQRWmombCzTQ/PEttFMWKs/1pNPyEwijxsSbr4jvIAJEg1b6M/Djd6fTKIZAz5pIhl/q6GLnFauyk6V1phG4mUWatPouLx0yV9U/8mT2SmgSRcNzAw+B14aq8jzrYN98bwtX1UVdAr+cIMjFRzmvEo9wq5HArbOBVYp60wnNQWpzEjYCZFgRuv7admnEximdmlMGDWrn4N5BvPU1zCGsxoicHT2NREIymUqiwWT8mPdxlNErN4S7tP/DkymwR8jieLEqG9N0BX2KLmrJyrDkptojsdrOtvgogvej3M5X1g==","69168b21477cff9ada6cb980","691bd46bcdd5e877c02610e6","index1","<span style='color:red'>Fail,<span style='color:red'>Fail,<span style='color:green'>Lift,<span style='color:green'>Lift,<span style='color:red'>Fail,<span style='color:red'>Fail,<span style='color:red'>Fail,<span style='color:red'>Fail,<span style='color:green'>Lift,<span style='color:red'>Fail,<span style='color:green'>Lift,<span style='color:red'>Fail","<span style='color:red'>Fail,<span style='color:red'>Fail,<span style='color:green'>Lift,<span style='color:green'>Lift,<span style='color:green'>Lift,<span style='color:green'>Lift,<span style='color:red'>Fail,<span style='color:green'>Lift,<span style='color:green'>Lift,<span style='color:green'>Lift,<span style='color:green'>Lift,<span style='color:red'>Fail","<span style='color:red'>Fail,<span style='color:green'>Lift,<span style='color:green'>Lift,<span style='color:red'>Fail,<span style='color:green'>Lift,<span style='color:green'>Lift","0,0,1,1,0,0,0,0,1,0,1,0","0,0,1,1,1,1,0,1,1,1,1,0","0,1,1,0,1,1",10,20,20,"","","","","","",NA,NA,"",NA,NA,NA,NA,NA,NA,NA,NA,NA,NA,NA,NA,NA,NA,NA,NA,NA,NA,NA,NA,NA,NA,NA,NA,NA,NA,NA,NA,NA,NA,NA,NA,NA,NA,NA,NA,NA,NA,NA,"",NA,NA,NA,NA,NA,NA,NA,NA,2025-11-18 02:23:16
"","https://psyc-201.github.io/xiang2023/exp/index1.html?PROLIFIC_PID=REDACTED&STUDY_ID=69168b21477cff9ada6cb980&SESSION_ID=691bd46bcdd5e877c02610e6","fullscreen",1,9745,"0.0-1.0","qqw+6O/bmICv0iLz6CgEWGDcPB0HX5+sUUVykZwRai9KQQRWmombCzTQ/PEttFMWKs/1pNPyEwijxsSbr4jvIAJEg1b6M/Djd6fTKIZAz5pIhl/q6GLnFauyk6V1phG4mUWatPouLx0yV9U/8mT2SmgSRcNzAw+B14aq8jzrYN98bwtX1UVdAr+cIMjFRzmvEo9wq5HArbOBVYp60wnNQWpzEjYCZFgRuv7admnEximdmlMGDWrn4N5BvPU1zCGsxoicHT2NREIymUqiwWT8mPdxlNErN4S7tP/DkymwR8jieLEqG9N0BX2KLmrJyrDkptojsdrOtvgogvej3M5X1g==","69168b21477cff9ada6cb980","691bd46bcdd5e877c02610e6","index1","<span style='color:red'>Fail,<span style='color:red'>Fail,<span style='color:green'>Lift,<span style='color:green'>Lift,<span style='color:red'>Fail,<span style='color:red'>Fail,<span style='color:red'>Fail,<span style='color:red'>Fail,<span style='color:green'>Lift,<span style='color:red'>Fail,<span style='color:green'>Lift,<span style='color:red'>Fail","<span style='color:red'>Fail,<span style='color:red'>Fail,<span style='color:green'>Lift,<span style='color:green'>Lift,<span style='color:green'>Lift,<span style='color:green'>Lift,<span style='color:red'>Fail,<span style='color:green'>Lift,<span style='color:green'>Lift,<span style='color:green'>Lift,<span style='color:green'>Lift,<span style='color:red'>Fail","<span style='color:red'>Fail,<span style='color:green'>Lift,<span style='color:green'>Lift,<span style='color:red'>Fail,<span style='color:green'>Lift,<span style='color:green'>Lift","0,0,1,1,0,0,0,0,1,0,1,0","0,0,1,1,1,1,0,1,1,1,1,0","0,1,1,0,1,1",10,20,20,"true","","","","","",NA,NA,"",NA,NA,NA,NA,NA,NA,NA,NA,NA,NA,NA,NA,NA,NA,NA,NA,NA,NA,NA,NA,NA,NA,NA,NA,NA,NA,NA,NA,NA,NA,NA,NA,NA,NA,NA,NA,NA,NA,NA,"",NA,NA,NA,NA,NA,NA,NA,NA,2025-11-18 02:23:16
"274034.40000009537","https://psyc-201.github.io/xiang2023/exp/index1.html?PROLIFIC_PID=REDACTED&STUDY_ID=69168b21477cff9ada6cb980&SESSION_ID=691bd46bcdd5e877c02610e6","instructions",2,283782,"0.0-2.0","qqw+6O/bmICv0iLz6CgEWGDcPB0HX5+sUUVykZwRai9KQQRWmombCzTQ/PEttFMWKs/1pNPyEwijxsSbr4jvIAJEg1b6M/Djd6fTKIZAz5pIhl/q6GLnFauyk6V1phG4mUWatPouLx0yV9U/8mT2SmgSRcNzAw+B14aq8jzrYN98bwtX1UVdAr+cIMjFRzmvEo9wq5HArbOBVYp60wnNQWpzEjYCZFgRuv7admnEximdmlMGDWrn4N5BvPU1zCGsxoicHT2NREIymUqiwWT8mPdxlNErN4S7tP/DkymwR8jieLEqG9N0BX2KLmrJyrDkptojsdrOtvgogvej3M5X1g==","69168b21477cff9ada6cb980","691bd46bcdd5e877c02610e6","index1","<span style='color:red'>Fail,<span style='color:red'>Fail,<span style='color:green'>Lift,<span style='color:green'>Lift,<span style='color:red'>Fail,<span style='color:red'>Fail,<span style='color:red'>Fail,<span style='color:red'>Fail,<span style='color:green'>Lift,<span style='color:red'>Fail,<span style='color:green'>Lift,<span style='color:red'>Fail","<span style='color:red'>Fail,<span style='color:red'>Fail,<span style='color:green'>Lift,<span style='color:green'>Lift,<span style='color:green'>Lift,<span style='color:green'>Lift,<span style='color:red'>Fail,<span style='color:green'>Lift,<span style='color:green'>Lift,<span style='color:green'>Lift,<span style='color:green'>Lift,<span style='color:red'>Fail","<span style='color:red'>Fail,<span style='color:green'>Lift,<span style='color:green'>Lift,<span style='color:red'>Fail,<span style='color:green'>Lift,<span style='color:green'>Lift","0,0,1,1,0,0,0,0,1,0,1,0","0,0,1,1,1,1,0,1,1,1,1,0","0,1,1,0,1,1",10,20,20,"","[{""page_index"":0,""viewing_time"":105683.40000009537},{""page_index"":1,""viewing_time"":19720.299999952316},{""page_index"":2,""viewing_time"":110329.29999995232},{""page_index"":3,""viewing_time"":14357},{""page_index"":4,""viewing_time"":7146.299999952316},{""page_index"":5,""viewing_time"":12086},{""page_index"":6,""viewing_time"":4711.299999952316}]","","","","",NA,NA,"",NA,NA,NA,NA,NA,NA,NA,NA,NA,NA,NA,NA,NA,NA,NA,NA,NA,NA,NA,NA,NA,NA,NA,NA,NA,NA,NA,NA,NA,NA,NA,NA,NA,NA,NA,NA,NA,NA,NA,"",NA,NA,NA,NA,NA,NA,NA,NA,2025-11-18 02:23:16
"null","https://psyc-201.github.io/xiang2023/exp/index1.html?PROLIFIC_PID=REDACTED&STUDY_ID=69168b21477cff9ada6cb980&SESSION_ID=691bd46bcdd5e877c02610e6","html-keyboard-response",3,284801,"0.0-3.0","qqw+6O/bmICv0iLz6CgEWGDcPB0HX5+sUUVykZwRai9KQQRWmombCzTQ/PEttFMWKs/1pNPyEwijxsSbr4jvIAJEg1b6M/Djd6fTKIZAz5pIhl/q6GLnFauyk6V1phG4mUWatPouLx0yV9U/8mT2SmgSRcNzAw+B14aq8jzrYN98bwtX1UVdAr+cIMjFRzmvEo9wq5HArbOBVYp60wnNQWpzEjYCZFgRuv7admnEximdmlMGDWrn4N5BvPU1zCGsxoicHT2NREIymUqiwWT8mPdxlNErN4S7tP/DkymwR8jieLEqG9N0BX2KLmrJyrDkptojsdrOtvgogvej3M5X1g==","69168b21477cff9ada6cb980","691bd46bcdd5e877c02610e6","index1","<span style='color:red'>Fail,<span style='color:red'>Fail,<span style='color:green'>Lift,<span style='color:green'>Lift,<span style='color:red'>Fail,<span style='color:red'>Fail,<span style='color:red'>Fail,<span style='color:red'>Fail,<span style='color:green'>Lift,<span style='color:red'>Fail,<span style='color:green'>Lift,<span style='color:red'>Fail","<span style='color:red'>Fail,<span style='color:red'>Fail,<span style='color:green'>Lift,<span style='color:green'>Lift,<span style='color:green'>Lift,<span style='color:green'>Lift,<span style='color:red'>Fail,<span style='color:green'>Lift,<span style='color:green'>Lift,<span style='color:green'>Lift,<span style='color:green'>Lift,<span style='color:red'>Fail","<span style='color:red'>Fail,<span style='color:green'>Lift,<span style='color:green'>Lift,<span style='color:red'>Fail,<span style='color:green'>Lift,<span style='color:green'>Lift","0,0,1,1,0,0,0,0,1,0,1,0","0,0,1,1,1,1,0,1,1,1,1,0","0,1,1,0,1,1",10,20,20,"",""," ","null","","",NA,NA,"",NA,NA,NA,NA,NA,NA,NA,NA,NA,NA,NA,NA,NA,NA,NA,NA,NA,NA,NA,NA,NA,NA,NA,NA,NA,NA,NA,NA,NA,NA,NA,NA,NA,NA,NA,NA,NA,NA,NA,"",NA,NA,NA,NA,NA,NA,NA,NA,2025-11-18 02:23:16
"39137.5","https://psyc-201.github.io/xiang2023/exp/index1.html?PROLIFIC_PID=REDACTED&STUDY_ID=69168b21477cff9ada6cb980&SESSION_ID=691bd46bcdd5e877c02610e6","survey-multi-choice",4,323941,"0.0-4.0","qqw+6O/bmICv0iLz6CgEWGDcPB0HX5+sUUVykZwRai9KQQRWmombCzTQ/PEttFMWKs/1pNPyEwijxsSbr4jvIAJEg1b6M/Djd6fTKIZAz5pIhl/q6GLnFauyk6V1phG4mUWatPouLx0yV9U/8mT2SmgSRcNzAw+B14aq8jzrYN98bwtX1UVdAr+cIMjFRzmvEo9wq5HArbOBVYp60wnNQWpzEjYCZFgRuv7admnEximdmlMGDWrn4N5BvPU1zCGsxoicHT2NREIymUqiwWT8mPdxlNErN4S7tP/DkymwR8jieLEqG9N0BX2KLmrJyrDkptojsdrOtvgogvej3M5X1g==","69168b21477cff9ada6cb980","691bd46bcdd5e877c02610e6","index1","<span style='color:red'>Fail,<span style='color:red'>Fail,<span style='color:green'>Lift,<span style='color:green'>Lift,<span style='color:red'>Fail,<span style='color:red'>Fail,<span style='color:red'>Fail,<span style='color:red'>Fail,<span style='color:green'>Lift,<span style='color:red'>Fail,<span style='color:green'>Lift,<span style='color:red'>Fail","<span style='color:red'>Fail,<span style='color:red'>Fail,<span style='color:green'>Lift,<span style='color:green'>Lift,<span style='color:green'>Lift,<span style='color:green'>Lift,<span style='color:red'>Fail,<span style='color:green'>Lift,<span style='color:green'>Lift,<span style='color:green'>Lift,<span style='color:green'>Lift,<span style='color:red'>Fail","<span style='color:red'>Fail,<span style='color:green'>Lift,<span style='color:green'>Lift,<span style='color:red'>Fail,<span style='color:green'>Lift,<span style='color:green'>Lift","0,0,1,1,0,0,0,0,1,0,1,0","0,0,1,1,1,1,0,1,1,1,1,0","0,1,1,0,1,1",10,20,20,"","","","","{""Q0"":""It consists of multiple contests, each contest with three rounds."",""Q1"":""Contestants are always the same across contests."",""Q2"":""The box weight always stays the same (equivalent to strength of 5)."",""Q3"":""They will split the $20, that is $10 for each."",""Q4"":""How close my guesses are to the actual outcome.""}","[0,1,2,3,4]",NA,NA,"",NA,NA,NA,NA,NA,NA,NA,NA,NA,NA,NA,NA,NA,NA,NA,NA,NA,NA,NA,NA,NA,NA,NA,NA,NA,NA,NA,NA,NA,NA,NA,NA,NA,NA,NA,NA,NA,NA,NA,"",NA,NA,NA,NA,NA,NA,NA,NA,2025-11-18 02:23:16
"2212.4000000953674","https://psyc-201.github.io/xiang2023/exp/index1.html?PROLIFIC_PID=REDACTED&STUDY_ID=69168b21477cff9ada6cb980&SESSION_ID=691bd46bcdd5e877c02610e6","html-button-response",5,326156,"0.0-5.0-0.0","qqw+6O/bmICv0iLz6CgEWGDcPB0HX5+sUUVykZwRai9KQQRWmombCzTQ/PEttFMWKs/1pNPyEwijxsSbr4jvIAJEg1b6M/Djd6fTKIZAz5pIhl/q6GLnFauyk6V1phG4mUWatPouLx0yV9U/8mT2SmgSRcNzAw+B14aq8jzrYN98bwtX1UVdAr+cIMjFRzmvEo9wq5HArbOBVYp60wnNQWpzEjYCZFgRuv7admnEximdmlMGDWrn4N5BvPU1zCGsxoicHT2NREIymUqiwWT8mPdxlNErN4S7tP/DkymwR8jieLEqG9N0BX2KLmrJyrDkptojsdrOtvgogvej3M5X1g==","69168b21477cff9ada6cb980","691bd46bcdd5e877c02610e6","index1","<span style='color:red'>Fail,<span style='color:red'>Fail,<span style='color:green'>Lift,<span style='color:green'>Lift,<span style='color:red'>Fail,<span style='color:red'>Fail,<span style='color:red'>Fail,<span style='color:red'>Fail,<span style='color:green'>Lift,<span style='color:red'>Fail,<span style='color:green'>Lift,<span style='color:red'>Fail","<span style='color:red'>Fail,<span style='color:red'>Fail,<span style='color:green'>Lift,<span style='color:green'>Lift,<span style='color:green'>Lift,<span style='color:green'>Lift,<span style='color:red'>Fail,<span style='color:green'>Lift,<span style='color:green'>Lift,<span style='color:green'>Lift,<span style='color:green'>Lift,<span style='color:red'>Fail","<span style='color:red'>Fail,<span style='color:green'>Lift,<span style='color:green'>Lift,<span style='color:red'>Fail,<span style='color:green'>Lift,<span style='color:green'>Lift","0,0,1,1,0,0,0,0,1,0,1,0","0,0,1,1,1,1,0,1,1,1,1,0","0,1,1,0,1,1",10,20,20,"","","<p> Oops! You did not pass the comprehension check.</p>","","","",1,NA,"",NA,NA,NA,NA,NA,NA,NA,NA,NA,NA,NA,NA,NA,NA,NA,NA,NA,NA,NA,NA,NA,NA,NA,NA,NA,NA,NA,NA,NA,NA,NA,NA,NA,NA,NA,NA,NA,NA,NA,"",NA,NA,NA,NA,NA,NA,NA,NA,2025-11-18 02:23:16
"22875.89999985695","https://psyc-201.github.io/xiang2023/exp/index1.html?PROLIFIC_PID=REDACTED&STUDY_ID=69168b21477cff9ada6cb980&SESSION_ID=691bd46bcdd5e877c02610e6","instructions",6,349034,"0.0-6.0-0.0","qqw+6O/bmICv0iLz6CgEWGDcPB0HX5+sUUVykZwRai9KQQRWmombCzTQ/PEttFMWKs/1pNPyEwijxsSbr4jvIAJEg1b6M/Djd6fTKIZAz5pIhl/q6GLnFauyk6V1phG4mUWatPouLx0yV9U/8mT2SmgSRcNzAw+B14aq8jzrYN98bwtX1UVdAr+cIMjFRzmvEo9wq5HArbOBVYp60wnNQWpzEjYCZFgRuv7admnEximdmlMGDWrn4N5BvPU1zCGsxoicHT2NREIymUqiwWT8mPdxlNErN4S7tP/DkymwR8jieLEqG9N0BX2KLmrJyrDkptojsdrOtvgogvej3M5X1g==","69168b21477cff9ada6cb980","691bd46bcdd5e877c02610e6","index1","<span style='color:red'>Fail,<span style='color:red'>Fail,<span style='color:green'>Lift,<span style='color:green'>Lift,<span style='color:red'>Fail,<span style='color:red'>Fail,<span style='color:red'>Fail,<span style='color:red'>Fail,<span style='color:green'>Lift,<span style='color:red'>Fail,<span style='color:green'>Lift,<span style='color:red'>Fail","<span style='color:red'>Fail,<span style='color:red'>Fail,<span style='color:green'>Lift,<span style='color:green'>Lift,<span style='color:green'>Lift,<span style='color:green'>Lift,<span style='color:red'>Fail,<span style='color:green'>Lift,<span style='color:green'>Lift,<span style='color:green'>Lift,<span style='color:green'>Lift,<span style='color:red'>Fail","<span style='color:red'>Fail,<span style='color:green'>Lift,<span style='color:green'>Lift,<span style='color:red'>Fail,<span style='color:green'>Lift,<span style='color:green'>Lift","0,0,1,1,0,0,0,0,1,0,1,0","0,0,1,1,1,1,0,1,1,1,1,0","0,1,1,0,1,1",10,20,20,"","[{""page_index"":0,""viewing_time"":9834},{""page_index"":1,""viewing_time"":2497.7999999523163},{""page_index"":2,""viewing_time"":4624.099999904633},{""page_index"":3,""viewing_time"":2083.800000190735},{""page_index"":4,""viewing_time"":1293},{""page_index"":5,""viewing_time"":886.7999999523163},{""page_index"":6,""viewing_time"":1655.5999999046326}]","","","","",NA,NA,"",NA,NA,NA,NA,NA,NA,NA,NA,NA,NA,NA,NA,NA,NA,NA,NA,NA,NA,NA,NA,NA,NA,NA,NA,NA,NA,NA,NA,NA,NA,NA,NA,NA,NA,NA,NA,NA,NA,NA,"",NA,NA,NA,NA,NA,NA,NA,NA,2025-11-18 02:23:16
"null","https://psyc-201.github.io/xiang2023/exp/index1.html?PROLIFIC_PID=REDACTED&STUDY_ID=69168b21477cff9ada6cb980&SESSION_ID=691bd46bcdd5e877c02610e6","html-keyboard-response",7,350051,"0.0-6.0-1.0","qqw+6O/bmICv0iLz6CgEWGDcPB0HX5+sUUVykZwRai9KQQRWmombCzTQ/PEttFMWKs/1pNPyEwijxsSbr4jvIAJEg1b6M/Djd6fTKIZAz5pIhl/q6GLnFauyk6V1phG4mUWatPouLx0yV9U/8mT2SmgSRcNzAw+B14aq8jzrYN98bwtX1UVdAr+cIMjFRzmvEo9wq5HArbOBVYp60wnNQWpzEjYCZFgRuv7admnEximdmlMGDWrn4N5BvPU1zCGsxoicHT2NREIymUqiwWT8mPdxlNErN4S7tP/DkymwR8jieLEqG9N0BX2KLmrJyrDkptojsdrOtvgogvej3M5X1g==","69168b21477cff9ada6cb980","691bd46bcdd5e877c02610e6","index1","<span style='color:red'>Fail,<span style='color:red'>Fail,<span style='color:green'>Lift,<span style='color:green'>Lift,<span style='color:red'>Fail,<span style='color:red'>Fail,<span style='color:red'>Fail,<span style='color:red'>Fail,<span style='color:green'>Lift,<span style='color:red'>Fail,<span style='color:green'>Lift,<span style='color:red'>Fail","<span style='color:red'>Fail,<span style='color:red'>Fail,<span style='color:green'>Lift,<span style='color:green'>Lift,<span style='color:green'>Lift,<span style='color:green'>Lift,<span style='color:red'>Fail,<span style='color:green'>Lift,<span style='color:green'>Lift,<span style='color:green'>Lift,<span style='color:green'>Lift,<span style='color:red'>Fail","<span style='color:red'>Fail,<span style='color:green'>Lift,<span style='color:green'>Lift,<span style='color:red'>Fail,<span style='color:green'>Lift,<span style='color:green'>Lift","0,0,1,1,0,0,0,0,1,0,1,0","0,0,1,1,1,1,0,1,1,1,1,0","0,1,1,0,1,1",10,20,20,"",""," ","null","","",NA,NA,"",NA,NA,NA,NA,NA,NA,NA,NA,NA,NA,NA,NA,NA,NA,NA,NA,NA,NA,NA,NA,NA,NA,NA,NA,NA,NA,NA,NA,NA,NA,NA,NA,NA,NA,NA,NA,NA,NA,NA,"",NA,NA,NA,NA,NA,NA,NA,NA,2025-11-18 02:23:16
"24159.799999952316","https://psyc-201.github.io/xiang2023/exp/index1.html?PROLIFIC_PID=REDACTED&STUDY_ID=69168b21477cff9ada6cb980&SESSION_ID=691bd46bcdd5e877c02610e6","survey-multi-choice",8,374214,"0.0-7.0-0.0","qqw+6O/bmICv0iLz6CgEWGDcPB0HX5+sUUVykZwRai9KQQRWmombCzTQ/PEttFMWKs/1pNPyEwijxsSbr4jvIAJEg1b6M/Djd6fTKIZAz5pIhl/q6GLnFauyk6V1phG4mUWatPouLx0yV9U/8mT2SmgSRcNzAw+B14aq8jzrYN98bwtX1UVdAr+cIMjFRzmvEo9wq5HArbOBVYp60wnNQWpzEjYCZFgRuv7admnEximdmlMGDWrn4N5BvPU1zCGsxoicHT2NREIymUqiwWT8mPdxlNErN4S7tP/DkymwR8jieLEqG9N0BX2KLmrJyrDkptojsdrOtvgogvej3M5X1g==","69168b21477cff9ada6cb980","691bd46bcdd5e877c02610e6","index1","<span style='color:red'>Fail,<span style='color:red'>Fail,<span style='color:green'>Lift,<span style='color:green'>Lift,<span style='color:red'>Fail,<span style='color:red'>Fail,<span style='color:red'>Fail,<span style='color:red'>Fail,<span style='color:green'>Lift,<span style='color:red'>Fail,<span style='color:green'>Lift,<span style='color:red'>Fail","<span style='color:red'>Fail,<span style='color:red'>Fail,<span style='color:green'>Lift,<span style='color:green'>Lift,<span style='color:green'>Lift,<span style='color:green'>Lift,<span style='color:red'>Fail,<span style='color:green'>Lift,<span style='color:green'>Lift,<span style='color:green'>Lift,<span style='color:green'>Lift,<span style='color:red'>Fail","<span style='color:red'>Fail,<span style='color:green'>Lift,<span style='color:green'>Lift,<span style='color:red'>Fail,<span style='color:green'>Lift,<span style='color:green'>Lift","0,0,1,1,0,0,0,0,1,0,1,0","0,0,1,1,1,1,0,1,1,1,1,0","0,1,1,0,1,1",10,20,20,"","","","","{""Q0"":""It consists of multiple contests, each contest with one round."",""Q1"":""When a new contest begins."",""Q2"":""The box weight always stays the same (equivalent to strength of 5)."",""Q3"":""They will split the $20, that is $10 for each."",""Q4"":""How close my guesses are to the actual outcome.""}","[0,1,2,3,4]",NA,NA,"",NA,NA,NA,NA,NA,NA,NA,NA,NA,NA,NA,NA,NA,NA,NA,NA,NA,NA,NA,NA,NA,NA,NA,NA,NA,NA,NA,NA,NA,NA,NA,NA,NA,NA,NA,NA,NA,NA,NA,"",NA,NA,NA,NA,NA,NA,NA,NA,2025-11-18 02:23:16
"1622.3000001907349","https://psyc-201.github.io/xiang2023/exp/index1.html?PROLIFIC_PID=REDACTED&STUDY_ID=69168b21477cff9ada6cb980&SESSION_ID=691bd46bcdd5e877c02610e6","html-button-response",9,375840,"0.0-8.0-0.0","qqw+6O/bmICv0iLz6CgEWGDcPB0HX5+sUUVykZwRai9KQQRWmombCzTQ/PEttFMWKs/1pNPyEwijxsSbr4jvIAJEg1b6M/Djd6fTKIZAz5pIhl/q6GLnFauyk6V1phG4mUWatPouLx0yV9U/8mT2SmgSRcNzAw+B14aq8jzrYN98bwtX1UVdAr+cIMjFRzmvEo9wq5HArbOBVYp60wnNQWpzEjYCZFgRuv7admnEximdmlMGDWrn4N5BvPU1zCGsxoicHT2NREIymUqiwWT8mPdxlNErN4S7tP/DkymwR8jieLEqG9N0BX2KLmrJyrDkptojsdrOtvgogvej3M5X1g==","69168b21477cff9ada6cb980","691bd46bcdd5e877c02610e6","index1","<span style='color:red'>Fail,<span style='color:red'>Fail,<span style='color:green'>Lift,<span style='color:green'>Lift,<span style='color:red'>Fail,<span style='color:red'>Fail,<span style='color:red'>Fail,<span style='color:red'>Fail,<span style='color:green'>Lift,<span style='color:red'>Fail,<span style='color:green'>Lift,<span style='color:red'>Fail","<span style='color:red'>Fail,<span style='color:red'>Fail,<span style='color:green'>Lift,<span style='color:green'>Lift,<span style='color:green'>Lift,<span style='color:green'>Lift,<span style='color:red'>Fail,<span style='color:green'>Lift,<span style='color:green'>Lift,<span style='color:green'>Lift,<span style='color:green'>Lift,<span style='color:red'>Fail","<span style='color:red'>Fail,<span style='color:green'>Lift,<span style='color:green'>Lift,<span style='color:red'>Fail,<span style='color:green'>Lift,<span style='color:green'>Lift","0,0,1,1,0,0,0,0,1,0,1,0","0,0,1,1,1,1,0,1,1,1,1,0","0,1,1,0,1,1",10,20,20,"","","<p> Oops! You did not pass the comprehension check.</p>","","","",1,NA,"",NA,NA,NA,NA,NA,NA,NA,NA,NA,NA,NA,NA,NA,NA,NA,NA,NA,NA,NA,NA,NA,NA,NA,NA,NA,NA,NA,NA,NA,NA,NA,NA,NA,NA,NA,NA,NA,NA,NA,"",NA,NA,NA,NA,NA,NA,NA,NA,2025-11-18 02:23:16
"53833.799999952316","https://psyc-201.github.io/xiang2023/exp/index1.html?PROLIFIC_PID=REDACTED&STUDY_ID=69168b21477cff9ada6cb980&SESSION_ID=691bd46bcdd5e877c02610e6","instructions",10,429675,"0.0-9.0-0.0","qqw+6O/bmICv0iLz6CgEWGDcPB0HX5+sUUVykZwRai9KQQRWmombCzTQ/PEttFMWKs/1pNPyEwijxsSbr4jvIAJEg1b6M/Djd6fTKIZAz5pIhl/q6GLnFauyk6V1phG4mUWatPouLx0yV9U/8mT2SmgSRcNzAw+B14aq8jzrYN98bwtX1UVdAr+cIMjFRzmvEo9wq5HArbOBVYp60wnNQWpzEjYCZFgRuv7admnEximdmlMGDWrn4N5BvPU1zCGsxoicHT2NREIymUqiwWT8mPdxlNErN4S7tP/DkymwR8jieLEqG9N0BX2KLmrJyrDkptojsdrOtvgogvej3M5X1g==","69168b21477cff9ada6cb980","691bd46bcdd5e877c02610e6","index1","<span style='color:red'>Fail,<span style='color:red'>Fail,<span style='color:green'>Lift,<span style='color:green'>Lift,<span style='color:red'>Fail,<span style='color:red'>Fail,<span style='color:red'>Fail,<span style='color:red'>Fail,<span style='color:green'>Lift,<span style='color:red'>Fail,<span style='color:green'>Lift,<span style='color:red'>Fail","<span style='color:red'>Fail,<span style='color:red'>Fail,<span style='color:green'>Lift,<span style='color:green'>Lift,<span style='color:green'>Lift,<span style='color:green'>Lift,<span style='color:red'>Fail,<span style='color:green'>Lift,<span style='color:green'>Lift,<span style='color:green'>Lift,<span style='color:green'>Lift,<span style='color:red'>Fail","<span style='color:red'>Fail,<span style='color:green'>Lift,<span style='color:green'>Lift,<span style='color:red'>Fail,<span style='color:green'>Lift,<span style='color:green'>Lift","0,0,1,1,0,0,0,0,1,0,1,0","0,0,1,1,1,1,0,1,1,1,1,0","0,1,1,0,1,1",10,20,20,"","[{""page_index"":0,""viewing_time"":9618.699999809265},{""page_index"":1,""viewing_time"":8684.5},{""page_index"":2,""viewing_time"":8897.200000047684},{""page_index"":3,""viewing_time"":6753.600000143051},{""page_index"":4,""viewing_time"":2506},{""page_index"":5,""viewing_time"":14839.399999856949},{""page_index"":6,""viewing_time"":2533.2000000476837}]","","","","",NA,NA,"",NA,NA,NA,NA,NA,NA,NA,NA,NA,NA,NA,NA,NA,NA,NA,NA,NA,NA,NA,NA,NA,NA,NA,NA,NA,NA,NA,NA,NA,NA,NA,NA,NA,NA,NA,NA,NA,NA,NA,"",NA,NA,NA,NA,NA,NA,NA,NA,2025-11-18 02:23:16
"null","https://psyc-201.github.io/xiang2023/exp/index1.html?PROLIFIC_PID=REDACTED&STUDY_ID=69168b21477cff9ada6cb980&SESSION_ID=691bd46bcdd5e877c02610e6","html-keyboard-response",11,430681,"0.0-9.0-1.0","qqw+6O/bmICv0iLz6CgEWGDcPB0HX5+sUUVykZwRai9KQQRWmombCzTQ/PEttFMWKs/1pNPyEwijxsSbr4jvIAJEg1b6M/Djd6fTKIZAz5pIhl/q6GLnFauyk6V1phG4mUWatPouLx0yV9U/8mT2SmgSRcNzAw+B14aq8jzrYN98bwtX1UVdAr+cIMjFRzmvEo9wq5HArbOBVYp60wnNQWpzEjYCZFgRuv7admnEximdmlMGDWrn4N5BvPU1zCGsxoicHT2NREIymUqiwWT8mPdxlNErN4S7tP/DkymwR8jieLEqG9N0BX2KLmrJyrDkptojsdrOtvgogvej3M5X1g==","69168b21477cff9ada6cb980","691bd46bcdd5e877c02610e6","index1","<span style='color:red'>Fail,<span style='color:red'>Fail,<span style='color:green'>Lift,<span style='color:green'>Lift,<span style='color:red'>Fail,<span style='color:red'>Fail,<span style='color:red'>Fail,<span style='color:red'>Fail,<span style='color:green'>Lift,<span style='color:red'>Fail,<span style='color:green'>Lift,<span style='color:red'>Fail","<span style='color:red'>Fail,<span style='color:red'>Fail,<span style='color:green'>Lift,<span style='color:green'>Lift,<span style='color:green'>Lift,<span style='color:green'>Lift,<span style='color:red'>Fail,<span style='color:green'>Lift,<span style='color:green'>Lift,<span style='color:green'>Lift,<span style='color:green'>Lift,<span style='color:red'>Fail","<span style='color:red'>Fail,<span style='color:green'>Lift,<span style='color:green'>Lift,<span style='color:red'>Fail,<span style='color:green'>Lift,<span style='color:green'>Lift","0,0,1,1,0,0,0,0,1,0,1,0","0,0,1,1,1,1,0,1,1,1,1,0","0,1,1,0,1,1",10,20,20,"",""," ","null","","",NA,NA,"",NA,NA,NA,NA,NA,NA,NA,NA,NA,NA,NA,NA,NA,NA,NA,NA,NA,NA,NA,NA,NA,NA,NA,NA,NA,NA,NA,NA,NA,NA,NA,NA,NA,NA,NA,NA,NA,NA,NA,"",NA,NA,NA,NA,NA,NA,NA,NA,2025-11-18 02:23:16
"40531.5","https://psyc-201.github.io/xiang2023/exp/index1.html?PROLIFIC_PID=REDACTED&STUDY_ID=69168b21477cff9ada6cb980&SESSION_ID=691bd46bcdd5e877c02610e6","survey-multi-choice",12,471217,"0.0-10.0-0.0","qqw+6O/bmICv0iLz6CgEWGDcPB0HX5+sUUVykZwRai9KQQRWmombCzTQ/PEttFMWKs/1pNPyEwijxsSbr4jvIAJEg1b6M/Djd6fTKIZAz5pIhl/q6GLnFauyk6V1phG4mUWatPouLx0yV9U/8mT2SmgSRcNzAw+B14aq8jzrYN98bwtX1UVdAr+cIMjFRzmvEo9wq5HArbOBVYp60wnNQWpzEjYCZFgRuv7admnEximdmlMGDWrn4N5BvPU1zCGsxoicHT2NREIymUqiwWT8mPdxlNErN4S7tP/DkymwR8jieLEqG9N0BX2KLmrJyrDkptojsdrOtvgogvej3M5X1g==","69168b21477cff9ada6cb980","691bd46bcdd5e877c02610e6","index1","<span style='color:red'>Fail,<span style='color:red'>Fail,<span style='color:green'>Lift,<span style='color:green'>Lift,<span style='color:red'>Fail,<span style='color:red'>Fail,<span style='color:red'>Fail,<span style='color:red'>Fail,<span style='color:green'>Lift,<span style='color:red'>Fail,<span style='color:green'>Lift,<span style='color:red'>Fail","<span style='color:red'>Fail,<span style='color:red'>Fail,<span style='color:green'>Lift,<span style='color:green'>Lift,<span style='color:green'>Lift,<span style='color:green'>Lift,<span style='color:red'>Fail,<span style='color:green'>Lift,<span style='color:green'>Lift,<span style='color:green'>Lift,<span style='color:green'>Lift,<span style='color:red'>Fail","<span style='color:red'>Fail,<span style='color:green'>Lift,<span style='color:green'>Lift,<span style='color:red'>Fail,<span style='color:green'>Lift,<span style='color:green'>Lift","0,0,1,1,0,0,0,0,1,0,1,0","0,0,1,1,1,1,0,1,1,1,1,0","0,1,1,0,1,1",10,20,20,"","","","","{""Q0"":""It consists of multiple contests, each contest with one round."",""Q1"":""When a new contest begins."",""Q2"":""The box weight always stays the same (equivalent to strength of 5)."",""Q3"":""Each will get $20."",""Q4"":""How close my guesses are to the actual outcome.""}","[0,1,2,3,4]",NA,NA,"",NA,NA,NA,NA,NA,NA,NA,NA,NA,NA,NA,NA,NA,NA,NA,NA,NA,NA,NA,NA,NA,NA,NA,NA,NA,NA,NA,NA,NA,NA,NA,NA,NA,NA,NA,NA,NA,NA,NA,"",NA,NA,NA,NA,NA,NA,NA,NA,2025-11-18 02:23:16
"1672.6999998092651","https://psyc-201.github.io/xiang2023/exp/index1.html?PROLIFIC_PID=REDACTED&STUDY_ID=69168b21477cff9ada6cb980&SESSION_ID=691bd46bcdd5e877c02610e6","html-button-response",13,472893,"0.0-11.0-0.0","qqw+6O/bmICv0iLz6CgEWGDcPB0HX5+sUUVykZwRai9KQQRWmombCzTQ/PEttFMWKs/1pNPyEwijxsSbr4jvIAJEg1b6M/Djd6fTKIZAz5pIhl/q6GLnFauyk6V1phG4mUWatPouLx0yV9U/8mT2SmgSRcNzAw+B14aq8jzrYN98bwtX1UVdAr+cIMjFRzmvEo9wq5HArbOBVYp60wnNQWpzEjYCZFgRuv7admnEximdmlMGDWrn4N5BvPU1zCGsxoicHT2NREIymUqiwWT8mPdxlNErN4S7tP/DkymwR8jieLEqG9N0BX2KLmrJyrDkptojsdrOtvgogvej3M5X1g==","69168b21477cff9ada6cb980","691bd46bcdd5e877c02610e6","index1","<span style='color:red'>Fail,<span style='color:red'>Fail,<span style='color:green'>Lift,<span style='color:green'>Lift,<span style='color:red'>Fail,<span style='color:red'>Fail,<span style='color:red'>Fail,<span style='color:red'>Fail,<span style='color:green'>Lift,<span style='color:red'>Fail,<span style='color:green'>Lift,<span style='color:red'>Fail","<span style='color:red'>Fail,<span style='color:red'>Fail,<span style='color:green'>Lift,<span style='color:green'>Lift,<span style='color:green'>Lift,<span style='color:green'>Lift,<span style='color:red'>Fail,<span style='color:green'>Lift,<span style='color:green'>Lift,<span style='color:green'>Lift,<span style='color:green'>Lift,<span style='color:red'>Fail","<span style='color:red'>Fail,<span style='color:green'>Lift,<span style='color:green'>Lift,<span style='color:red'>Fail,<span style='color:green'>Lift,<span style='color:green'>Lift","0,0,1,1,0,0,0,0,1,0,1,0","0,0,1,1,1,1,0,1,1,1,1,0","0,1,1,0,1,1",10,20,20,"","","<p> Oops! You did not pass the comprehension check.</p>","","","",1,NA,"",NA,NA,NA,NA,NA,NA,NA,NA,NA,NA,NA,NA,NA,NA,NA,NA,NA,NA,NA,NA,NA,NA,NA,NA,NA,NA,NA,NA,NA,NA,NA,NA,NA,NA,NA,NA,NA,NA,NA,"",NA,NA,NA,NA,NA,NA,NA,NA,2025-11-18 02:23:16
"6526.200000047684","https://psyc-201.github.io/xiang2023/exp/index1.html?PROLIFIC_PID=REDACTED&STUDY_ID=69168b21477cff9ada6cb980&SESSION_ID=691bd46bcdd5e877c02610e6","instructions",14,479421,"0.0-12.0-0.0","qqw+6O/bmICv0iLz6CgEWGDcPB0HX5+sUUVykZwRai9KQQRWmombCzTQ/PEttFMWKs/1pNPyEwijxsSbr4jvIAJEg1b6M/Djd6fTKIZAz5pIhl/q6GLnFauyk6V1phG4mUWatPouLx0yV9U/8mT2SmgSRcNzAw+B14aq8jzrYN98bwtX1UVdAr+cIMjFRzmvEo9wq5HArbOBVYp60wnNQWpzEjYCZFgRuv7admnEximdmlMGDWrn4N5BvPU1zCGsxoicHT2NREIymUqiwWT8mPdxlNErN4S7tP/DkymwR8jieLEqG9N0BX2KLmrJyrDkptojsdrOtvgogvej3M5X1g==","69168b21477cff9ada6cb980","691bd46bcdd5e877c02610e6","index1","<span style='color:red'>Fail,<span style='color:red'>Fail,<span style='color:green'>Lift,<span style='color:green'>Lift,<span style='color:red'>Fail,<span style='color:red'>Fail,<span style='color:red'>Fail,<span style='color:red'>Fail,<span style='color:green'>Lift,<span style='color:red'>Fail,<span style='color:green'>Lift,<span style='color:red'>Fail","<span style='color:red'>Fail,<span style='color:red'>Fail,<span style='color:green'>Lift,<span style='color:green'>Lift,<span style='color:green'>Lift,<span style='color:green'>Lift,<span style='color:red'>Fail,<span style='color:green'>Lift,<span style='color:green'>Lift,<span style='color:green'>Lift,<span style='color:green'>Lift,<span style='color:red'>Fail","<span style='color:red'>Fail,<span style='color:green'>Lift,<span style='color:green'>Lift,<span style='color:red'>Fail,<span style='color:green'>Lift,<span style='color:green'>Lift","0,0,1,1,0,0,0,0,1,0,1,0","0,0,1,1,1,1,0,1,1,1,1,0","0,1,1,0,1,1",10,20,20,"","[{""page_index"":0,""viewing_time"":1026.9000000953674},{""page_index"":1,""viewing_time"":1454.5999999046326},{""page_index"":2,""viewing_time"":799},{""page_index"":3,""viewing_time"":1073},{""page_index"":4,""viewing_time"":798.7000000476837},{""page_index"":5,""viewing_time"":614.4000000953674},{""page_index"":6,""viewing_time"":758.7999999523163}]","","","","",NA,NA,"",NA,NA,NA,NA,NA,NA,NA,NA,NA,NA,NA,NA,NA,NA,NA,NA,NA,NA,NA,NA,NA,NA,NA,NA,NA,NA,NA,NA,NA,NA,NA,NA,NA,NA,NA,NA,NA,NA,NA,"",NA,NA,NA,NA,NA,NA,NA,NA,2025-11-18 02:23:16
"null","https://psyc-201.github.io/xiang2023/exp/index1.html?PROLIFIC_PID=REDACTED&STUDY_ID=69168b21477cff9ada6cb980&SESSION_ID=691bd46bcdd5e877c02610e6","html-keyboard-response",15,480430,"0.0-12.0-1.0","qqw+6O/bmICv0iLz6CgEWGDcPB0HX5+sUUVykZwRai9KQQRWmombCzTQ/PEttFMWKs/1pNPyEwijxsSbr4jvIAJEg1b6M/Djd6fTKIZAz5pIhl/q6GLnFauyk6V1phG4mUWatPouLx0yV9U/8mT2SmgSRcNzAw+B14aq8jzrYN98bwtX1UVdAr+cIMjFRzmvEo9wq5HArbOBVYp60wnNQWpzEjYCZFgRuv7admnEximdmlMGDWrn4N5BvPU1zCGsxoicHT2NREIymUqiwWT8mPdxlNErN4S7tP/DkymwR8jieLEqG9N0BX2KLmrJyrDkptojsdrOtvgogvej3M5X1g==","69168b21477cff9ada6cb980","691bd46bcdd5e877c02610e6","index1","<span style='color:red'>Fail,<span style='color:red'>Fail,<span style='color:green'>Lift,<span style='color:green'>Lift,<span style='color:red'>Fail,<span style='color:red'>Fail,<span style='color:red'>Fail,<span style='color:red'>Fail,<span style='color:green'>Lift,<span style='color:red'>Fail,<span style='color:green'>Lift,<span style='color:red'>Fail","<span style='color:red'>Fail,<span style='color:red'>Fail,<span style='color:green'>Lift,<span style='color:green'>Lift,<span style='color:green'>Lift,<span style='color:green'>Lift,<span style='color:red'>Fail,<span style='color:green'>Lift,<span style='color:green'>Lift,<span style='color:green'>Lift,<span style='color:green'>Lift,<span style='color:red'>Fail","<span style='color:red'>Fail,<span style='color:green'>Lift,<span style='color:green'>Lift,<span style='color:red'>Fail,<span style='color:green'>Lift,<span style='color:green'>Lift","0,0,1,1,0,0,0,0,1,0,1,0","0,0,1,1,1,1,0,1,1,1,1,0","0,1,1,0,1,1",10,20,20,"",""," ","null","","",NA,NA,"",NA,NA,NA,NA,NA,NA,NA,NA,NA,NA,NA,NA,NA,NA,NA,NA,NA,NA,NA,NA,NA,NA,NA,NA,NA,NA,NA,NA,NA,NA,NA,NA,NA,NA,NA,NA,NA,NA,NA,"",NA,NA,NA,NA,NA,NA,NA,NA,2025-11-18 02:23:16
"13664.699999809265","https://psyc-201.github.io/xiang2023/exp/index1.html?PROLIFIC_PID=REDACTED&STUDY_ID=69168b21477cff9ada6cb980&SESSION_ID=691bd46bcdd5e877c02610e6","survey-multi-choice",16,494097,"0.0-13.0-0.0","qqw+6O/bmICv0iLz6CgEWGDcPB0HX5+sUUVykZwRai9KQQRWmombCzTQ/PEttFMWKs/1pNPyEwijxsSbr4jvIAJEg1b6M/Djd6fTKIZAz5pIhl/q6GLnFauyk6V1phG4mUWatPouLx0yV9U/8mT2SmgSRcNzAw+B14aq8jzrYN98bwtX1UVdAr+cIMjFRzmvEo9wq5HArbOBVYp60wnNQWpzEjYCZFgRuv7admnEximdmlMGDWrn4N5BvPU1zCGsxoicHT2NREIymUqiwWT8mPdxlNErN4S7tP/DkymwR8jieLEqG9N0BX2KLmrJyrDkptojsdrOtvgogvej3M5X1g==","69168b21477cff9ada6cb980","691bd46bcdd5e877c02610e6","index1","<span style='color:red'>Fail,<span style='color:red'>Fail,<span style='color:green'>Lift,<span style='color:green'>Lift,<span style='color:red'>Fail,<span style='color:red'>Fail,<span style='color:red'>Fail,<span style='color:red'>Fail,<span style='color:green'>Lift,<span style='color:red'>Fail,<span style='color:green'>Lift,<span style='color:red'>Fail","<span style='color:red'>Fail,<span style='color:red'>Fail,<span style='color:green'>Lift,<span style='color:green'>Lift,<span style='color:green'>Lift,<span style='color:green'>Lift,<span style='color:red'>Fail,<span style='color:green'>Lift,<span style='color:green'>Lift,<span style='color:green'>Lift,<span style='color:green'>Lift,<span style='color:red'>Fail","<span style='color:red'>Fail,<span style='color:green'>Lift,<span style='color:green'>Lift,<span style='color:red'>Fail,<span style='color:green'>Lift,<span style='color:green'>Lift","0,0,1,1,0,0,0,0,1,0,1,0","0,0,1,1,1,1,0,1,1,1,1,0","0,1,1,0,1,1",10,20,20,"","","","","{""Q0"":""It consists of multiple contests, each contest with three rounds."",""Q1"":""When a new round starts."",""Q2"":""The box weight always stays the same (equivalent to strength of 5)."",""Q3"":""Each will get $20."",""Q4"":""How close my guesses are to the actual outcome.""}","[0,1,2,3,4]",NA,NA,"",NA,NA,NA,NA,NA,NA,NA,NA,NA,NA,NA,NA,NA,NA,NA,NA,NA,NA,NA,NA,NA,NA,NA,NA,NA,NA,NA,NA,NA,NA,NA,NA,NA,NA,NA,NA,NA,NA,NA,"",NA,NA,NA,NA,NA,NA,NA,NA,2025-11-18 02:23:16
"3571","https://psyc-201.github.io/xiang2023/exp/index1.html?PROLIFIC_PID=REDACTED&STUDY_ID=69168b21477cff9ada6cb980&SESSION_ID=691bd46bcdd5e877c02610e6","html-button-response",17,497671,"0.0-14.0-0.0","qqw+6O/bmICv0iLz6CgEWGDcPB0HX5+sUUVykZwRai9KQQRWmombCzTQ/PEttFMWKs/1pNPyEwijxsSbr4jvIAJEg1b6M/Djd6fTKIZAz5pIhl/q6GLnFauyk6V1phG4mUWatPouLx0yV9U/8mT2SmgSRcNzAw+B14aq8jzrYN98bwtX1UVdAr+cIMjFRzmvEo9wq5HArbOBVYp60wnNQWpzEjYCZFgRuv7admnEximdmlMGDWrn4N5BvPU1zCGsxoicHT2NREIymUqiwWT8mPdxlNErN4S7tP/DkymwR8jieLEqG9N0BX2KLmrJyrDkptojsdrOtvgogvej3M5X1g==","69168b21477cff9ada6cb980","691bd46bcdd5e877c02610e6","index1","<span style='color:red'>Fail,<span style='color:red'>Fail,<span style='color:green'>Lift,<span style='color:green'>Lift,<span style='color:red'>Fail,<span style='color:red'>Fail,<span style='color:red'>Fail,<span style='color:red'>Fail,<span style='color:green'>Lift,<span style='color:red'>Fail,<span style='color:green'>Lift,<span style='color:red'>Fail","<span style='color:red'>Fail,<span style='color:red'>Fail,<span style='color:green'>Lift,<span style='color:green'>Lift,<span style='color:green'>Lift,<span style='color:green'>Lift,<span style='color:red'>Fail,<span style='color:green'>Lift,<span style='color:green'>Lift,<span style='color:green'>Lift,<span style='color:green'>Lift,<span style='color:red'>Fail","<span style='color:red'>Fail,<span style='color:green'>Lift,<span style='color:green'>Lift,<span style='color:red'>Fail,<span style='color:green'>Lift,<span style='color:green'>Lift","0,0,1,1,0,0,0,0,1,0,1,0","0,0,1,1,1,1,0,1,1,1,1,0","0,1,1,0,1,1",10,20,20,"","","<p> Oops! You did not pass the comprehension check.</p>","","","",0,NA,"",NA,NA,NA,NA,NA,NA,NA,NA,NA,NA,NA,NA,NA,NA,NA,NA,NA,NA,NA,NA,NA,NA,NA,NA,NA,NA,NA,NA,NA,NA,NA,NA,NA,NA,NA,NA,NA,NA,NA,"",NA,NA,NA,NA,NA,NA,NA,NA,2025-11-18 02:23:16
"13747.5","https://psyc-201.github.io/xiang2023/exp/index1.html?PROLIFIC_PID=REDACTED&STUDY_ID=69168b21477cff9ada6cb980&SESSION_ID=691bd46bcdd5e877c02610e6","survey-multi-choice",18,511421,"0.0-16.0-0.0","qqw+6O/bmICv0iLz6CgEWGDcPB0HX5+sUUVykZwRai9KQQRWmombCzTQ/PEttFMWKs/1pNPyEwijxsSbr4jvIAJEg1b6M/Djd6fTKIZAz5pIhl/q6GLnFauyk6V1phG4mUWatPouLx0yV9U/8mT2SmgSRcNzAw+B14aq8jzrYN98bwtX1UVdAr+cIMjFRzmvEo9wq5HArbOBVYp60wnNQWpzEjYCZFgRuv7admnEximdmlMGDWrn4N5BvPU1zCGsxoicHT2NREIymUqiwWT8mPdxlNErN4S7tP/DkymwR8jieLEqG9N0BX2KLmrJyrDkptojsdrOtvgogvej3M5X1g==","69168b21477cff9ada6cb980","691bd46bcdd5e877c02610e6","index1","<span style='color:red'>Fail,<span style='color:red'>Fail,<span style='color:green'>Lift,<span style='color:green'>Lift,<span style='color:red'>Fail,<span style='color:red'>Fail,<span style='color:red'>Fail,<span style='color:red'>Fail,<span style='color:green'>Lift,<span style='color:red'>Fail,<span style='color:green'>Lift,<span style='color:red'>Fail","<span style='color:red'>Fail,<span style='color:red'>Fail,<span style='color:green'>Lift,<span style='color:green'>Lift,<span style='color:green'>Lift,<span style='color:green'>Lift,<span style='color:red'>Fail,<span style='color:green'>Lift,<span style='color:green'>Lift,<span style='color:green'>Lift,<span style='color:green'>Lift,<span style='color:red'>Fail","<span style='color:red'>Fail,<span style='color:green'>Lift,<span style='color:green'>Lift,<span style='color:red'>Fail,<span style='color:green'>Lift,<span style='color:green'>Lift","0,0,1,1,0,0,0,0,1,0,1,0","0,0,1,1,1,1,0,1,1,1,1,0","0,1,1,0,1,1",10,20,20,"","","","","{""Q0"":""It consists of multiple contests, each contest with three rounds."",""Q1"":""When a new round starts."",""Q2"":""The box weight always stays the same (equivalent to strength of 5)."",""Q3"":""Each will get $20."",""Q4"":""How close my guesses are to the actual outcome.""}","[0,1,2,3,4]",NA,NA,"",NA,NA,NA,NA,NA,NA,NA,NA,NA,NA,NA,NA,NA,NA,NA,NA,NA,NA,NA,NA,NA,NA,NA,NA,NA,NA,NA,NA,NA,NA,NA,NA,NA,NA,NA,NA,NA,NA,NA,"",NA,NA,NA,NA,NA,NA,NA,NA,2025-11-18 02:23:16
"1188.3999998569489","https://psyc-201.github.io/xiang2023/exp/index1.html?PROLIFIC_PID=REDACTED&STUDY_ID=69168b21477cff9ada6cb980&SESSION_ID=691bd46bcdd5e877c02610e6","html-button-response",19,512613,"0.0-17.0-0.0","qqw+6O/bmICv0iLz6CgEWGDcPB0HX5+sUUVykZwRai9KQQRWmombCzTQ/PEttFMWKs/1pNPyEwijxsSbr4jvIAJEg1b6M/Djd6fTKIZAz5pIhl/q6GLnFauyk6V1phG4mUWatPouLx0yV9U/8mT2SmgSRcNzAw+B14aq8jzrYN98bwtX1UVdAr+cIMjFRzmvEo9wq5HArbOBVYp60wnNQWpzEjYCZFgRuv7admnEximdmlMGDWrn4N5BvPU1zCGsxoicHT2NREIymUqiwWT8mPdxlNErN4S7tP/DkymwR8jieLEqG9N0BX2KLmrJyrDkptojsdrOtvgogvej3M5X1g==","69168b21477cff9ada6cb980","691bd46bcdd5e877c02610e6","index1","<span style='color:red'>Fail,<span style='color:red'>Fail,<span style='color:green'>Lift,<span style='color:green'>Lift,<span style='color:red'>Fail,<span style='color:red'>Fail,<span style='color:red'>Fail,<span style='color:red'>Fail,<span style='color:green'>Lift,<span style='color:red'>Fail,<span style='color:green'>Lift,<span style='color:red'>Fail","<span style='color:red'>Fail,<span style='color:red'>Fail,<span style='color:green'>Lift,<span style='color:green'>Lift,<span style='color:green'>Lift,<span style='color:green'>Lift,<span style='color:red'>Fail,<span style='color:green'>Lift,<span style='color:green'>Lift,<span style='color:green'>Lift,<span style='color:green'>Lift,<span style='color:red'>Fail","<span style='color:red'>Fail,<span style='color:green'>Lift,<span style='color:green'>Lift,<span style='color:red'>Fail,<span style='color:green'>Lift,<span style='color:green'>Lift","0,0,1,1,0,0,0,0,1,0,1,0","0,0,1,1,1,1,0,1,1,1,1,0","0,1,1,0,1,1",10,20,20,"","","<p> Oops! You did not pass the comprehension check.</p>","","","",0,NA,"",NA,NA,NA,NA,NA,NA,NA,NA,NA,NA,NA,NA,NA,NA,NA,NA,NA,NA,NA,NA,NA,NA,NA,NA,NA,NA,NA,NA,NA,NA,NA,NA,NA,NA,NA,NA,NA,NA,NA,"",NA,NA,NA,NA,NA,NA,NA,NA,2025-11-18 02:23:16
"11205.700000047684","https://psyc-201.github.io/xiang2023/exp/index1.html?PROLIFIC_PID=REDACTED&STUDY_ID=69168b21477cff9ada6cb980&SESSION_ID=691bd46bcdd5e877c02610e6","survey-multi-choice",20,523821,"0.0-19.0-0.0","qqw+6O/bmICv0iLz6CgEWGDcPB0HX5+sUUVykZwRai9KQQRWmombCzTQ/PEttFMWKs/1pNPyEwijxsSbr4jvIAJEg1b6M/Djd6fTKIZAz5pIhl/q6GLnFauyk6V1phG4mUWatPouLx0yV9U/8mT2SmgSRcNzAw+B14aq8jzrYN98bwtX1UVdAr+cIMjFRzmvEo9wq5HArbOBVYp60wnNQWpzEjYCZFgRuv7admnEximdmlMGDWrn4N5BvPU1zCGsxoicHT2NREIymUqiwWT8mPdxlNErN4S7tP/DkymwR8jieLEqG9N0BX2KLmrJyrDkptojsdrOtvgogvej3M5X1g==","69168b21477cff9ada6cb980","691bd46bcdd5e877c02610e6","index1","<span style='color:red'>Fail,<span style='color:red'>Fail,<span style='color:green'>Lift,<span style='color:green'>Lift,<span style='color:red'>Fail,<span style='color:red'>Fail,<span style='color:red'>Fail,<span style='color:red'>Fail,<span style='color:green'>Lift,<span style='color:red'>Fail,<span style='color:green'>Lift,<span style='color:red'>Fail","<span style='color:red'>Fail,<span style='color:red'>Fail,<span style='color:green'>Lift,<span style='color:green'>Lift,<span style='color:green'>Lift,<span style='color:green'>Lift,<span style='color:red'>Fail,<span style='color:green'>Lift,<span style='color:green'>Lift,<span style='color:green'>Lift,<span style='color:green'>Lift,<span style='color:red'>Fail","<span style='color:red'>Fail,<span style='color:green'>Lift,<span style='color:green'>Lift,<span style='color:red'>Fail,<span style='color:green'>Lift,<span style='color:green'>Lift","0,0,1,1,0,0,0,0,1,0,1,0","0,0,1,1,1,1,0,1,1,1,1,0","0,1,1,0,1,1",10,20,20,"","","","","{""Q0"":""It consists of multiple contests, each contest with one round."",""Q1"":""When a new round starts."",""Q2"":""The box weight always stays the same (equivalent to strength of 5)."",""Q3"":""Each will get $20."",""Q4"":""How close my guesses are to the actual outcome.""}","[0,1,2,3,4]",NA,NA,"",NA,NA,NA,NA,NA,NA,NA,NA,NA,NA,NA,NA,NA,NA,NA,NA,NA,NA,NA,NA,NA,NA,NA,NA,NA,NA,NA,NA,NA,NA,NA,NA,NA,NA,NA,NA,NA,NA,NA,"",NA,NA,NA,NA,NA,NA,NA,NA,2025-11-18 02:23:16
"1210.3999998569489","https://psyc-201.github.io/xiang2023/exp/index1.html?PROLIFIC_PID=REDACTED&STUDY_ID=69168b21477cff9ada6cb980&SESSION_ID=691bd46bcdd5e877c02610e6","html-button-response",21,525035,"0.0-20.0-0.0","qqw+6O/bmICv0iLz6CgEWGDcPB0HX5+sUUVykZwRai9KQQRWmombCzTQ/PEttFMWKs/1pNPyEwijxsSbr4jvIAJEg1b6M/Djd6fTKIZAz5pIhl/q6GLnFauyk6V1phG4mUWatPouLx0yV9U/8mT2SmgSRcNzAw+B14aq8jzrYN98bwtX1UVdAr+cIMjFRzmvEo9wq5HArbOBVYp60wnNQWpzEjYCZFgRuv7admnEximdmlMGDWrn4N5BvPU1zCGsxoicHT2NREIymUqiwWT8mPdxlNErN4S7tP/DkymwR8jieLEqG9N0BX2KLmrJyrDkptojsdrOtvgogvej3M5X1g==","69168b21477cff9ada6cb980","691bd46bcdd5e877c02610e6","index1","<span style='color:red'>Fail,<span style='color:red'>Fail,<span style='color:green'>Lift,<span style='color:green'>Lift,<span style='color:red'>Fail,<span style='color:red'>Fail,<span style='color:red'>Fail,<span style='color:red'>Fail,<span style='color:green'>Lift,<span style='color:red'>Fail,<span style='color:green'>Lift,<span style='color:red'>Fail","<span style='color:red'>Fail,<span style='color:red'>Fail,<span style='color:green'>Lift,<span style='color:green'>Lift,<span style='color:green'>Lift,<span style='color:green'>Lift,<span style='color:red'>Fail,<span style='color:green'>Lift,<span style='color:green'>Lift,<span style='color:green'>Lift,<span style='color:green'>Lift,<span style='color:red'>Fail","<span style='color:red'>Fail,<span style='color:green'>Lift,<span style='color:green'>Lift,<span style='color:red'>Fail,<span style='color:green'>Lift,<span style='color:green'>Lift","0,0,1,1,0,0,0,0,1,0,1,0","0,0,1,1,1,1,0,1,1,1,1,0","0,1,1,0,1,1",10,20,20,"","","<p> Oops! You did not pass the comprehension check.</p>","","","",0,NA,"",NA,NA,NA,NA,NA,NA,NA,NA,NA,NA,NA,NA,NA,NA,NA,NA,NA,NA,NA,NA,NA,NA,NA,NA,NA,NA,NA,NA,NA,NA,NA,NA,NA,NA,NA,NA,NA,NA,NA,"",NA,NA,NA,NA,NA,NA,NA,NA,2025-11-18 02:23:16
"17898.200000047684","https://psyc-201.github.io/xiang2023/exp/index1.html?PROLIFIC_PID=REDACTED&STUDY_ID=69168b21477cff9ada6cb980&SESSION_ID=691bd46bcdd5e877c02610e6","survey-multi-choice",22,542936,"0.0-22.0-0.0","qqw+6O/bmICv0iLz6CgEWGDcPB0HX5+sUUVykZwRai9KQQRWmombCzTQ/PEttFMWKs/1pNPyEwijxsSbr4jvIAJEg1b6M/Djd6fTKIZAz5pIhl/q6GLnFauyk6V1phG4mUWatPouLx0yV9U/8mT2SmgSRcNzAw+B14aq8jzrYN98bwtX1UVdAr+cIMjFRzmvEo9wq5HArbOBVYp60wnNQWpzEjYCZFgRuv7admnEximdmlMGDWrn4N5BvPU1zCGsxoicHT2NREIymUqiwWT8mPdxlNErN4S7tP/DkymwR8jieLEqG9N0BX2KLmrJyrDkptojsdrOtvgogvej3M5X1g==","69168b21477cff9ada6cb980","691bd46bcdd5e877c02610e6","index1","<span style='color:red'>Fail,<span style='color:red'>Fail,<span style='color:green'>Lift,<span style='color:green'>Lift,<span style='color:red'>Fail,<span style='color:red'>Fail,<span style='color:red'>Fail,<span style='color:red'>Fail,<span style='color:green'>Lift,<span style='color:red'>Fail,<span style='color:green'>Lift,<span style='color:red'>Fail","<span style='color:red'>Fail,<span style='color:red'>Fail,<span style='color:green'>Lift,<span style='color:green'>Lift,<span style='color:green'>Lift,<span style='color:green'>Lift,<span style='color:red'>Fail,<span style='color:green'>Lift,<span style='color:green'>Lift,<span style='color:green'>Lift,<span style='color:green'>Lift,<span style='color:red'>Fail","<span style='color:red'>Fail,<span style='color:green'>Lift,<span style='color:green'>Lift,<span style='color:red'>Fail,<span style='color:green'>Lift,<span style='color:green'>Lift","0,0,1,1,0,0,0,0,1,0,1,0","0,0,1,1,1,1,0,1,1,1,1,0","0,1,1,0,1,1",10,20,20,"","","","","{""Q0"":""It consists of multiple contests, each contest with one round."",""Q1"":""When a new round starts."",""Q2"":""The box weight always stays the same (equivalent to strength of 5)."",""Q3"":""Each will get $20."",""Q4"":""How close my guesses are to the actual outcome.""}","[0,1,2,3,4]",NA,NA,"",NA,NA,NA,NA,NA,NA,NA,NA,NA,NA,NA,NA,NA,NA,NA,NA,NA,NA,NA,NA,NA,NA,NA,NA,NA,NA,NA,NA,NA,NA,NA,NA,NA,NA,NA,NA,NA,NA,NA,"",NA,NA,NA,NA,NA,NA,NA,NA,2025-11-18 02:23:16
"1138","https://psyc-201.github.io/xiang2023/exp/index1.html?PROLIFIC_PID=REDACTED&STUDY_ID=69168b21477cff9ada6cb980&SESSION_ID=691bd46bcdd5e877c02610e6","html-button-response",23,544077,"0.0-23.0-0.0","qqw+6O/bmICv0iLz6CgEWGDcPB0HX5+sUUVykZwRai9KQQRWmombCzTQ/PEttFMWKs/1pNPyEwijxsSbr4jvIAJEg1b6M/Djd6fTKIZAz5pIhl/q6GLnFauyk6V1phG4mUWatPouLx0yV9U/8mT2SmgSRcNzAw+B14aq8jzrYN98bwtX1UVdAr+cIMjFRzmvEo9wq5HArbOBVYp60wnNQWpzEjYCZFgRuv7admnEximdmlMGDWrn4N5BvPU1zCGsxoicHT2NREIymUqiwWT8mPdxlNErN4S7tP/DkymwR8jieLEqG9N0BX2KLmrJyrDkptojsdrOtvgogvej3M5X1g==","69168b21477cff9ada6cb980","691bd46bcdd5e877c02610e6","index1","<span style='color:red'>Fail,<span style='color:red'>Fail,<span style='color:green'>Lift,<span style='color:green'>Lift,<span style='color:red'>Fail,<span style='color:red'>Fail,<span style='color:red'>Fail,<span style='color:red'>Fail,<span style='color:green'>Lift,<span style='color:red'>Fail,<span style='color:green'>Lift,<span style='color:red'>Fail","<span style='color:red'>Fail,<span style='color:red'>Fail,<span style='color:green'>Lift,<span style='color:green'>Lift,<span style='color:green'>Lift,<span style='color:green'>Lift,<span style='color:red'>Fail,<span style='color:green'>Lift,<span style='color:green'>Lift,<span style='color:green'>Lift,<span style='color:green'>Lift,<span style='color:red'>Fail","<span style='color:red'>Fail,<span style='color:green'>Lift,<span style='color:green'>Lift,<span style='color:red'>Fail,<span style='color:green'>Lift,<span style='color:green'>Lift","0,0,1,1,0,0,0,0,1,0,1,0","0,0,1,1,1,1,0,1,1,1,1,0","0,1,1,0,1,1",10,20,20,"","","<p> Oops! You did not pass the comprehension check.</p>","","","",0,NA,"",NA,NA,NA,NA,NA,NA,NA,NA,NA,NA,NA,NA,NA,NA,NA,NA,NA,NA,NA,NA,NA,NA,NA,NA,NA,NA,NA,NA,NA,NA,NA,NA,NA,NA,NA,NA,NA,NA,NA,"",NA,NA,NA,NA,NA,NA,NA,NA,2025-11-18 02:23:16
"36738.5","https://psyc-201.github.io/xiang2023/exp/index1.html?PROLIFIC_PID=REDACTED&STUDY_ID=69168b21477cff9ada6cb980&SESSION_ID=691bd46bcdd5e877c02610e6","survey-multi-choice",24,580819,"0.0-25.0-0.0","qqw+6O/bmICv0iLz6CgEWGDcPB0HX5+sUUVykZwRai9KQQRWmombCzTQ/PEttFMWKs/1pNPyEwijxsSbr4jvIAJEg1b6M/Djd6fTKIZAz5pIhl/q6GLnFauyk6V1phG4mUWatPouLx0yV9U/8mT2SmgSRcNzAw+B14aq8jzrYN98bwtX1UVdAr+cIMjFRzmvEo9wq5HArbOBVYp60wnNQWpzEjYCZFgRuv7admnEximdmlMGDWrn4N5BvPU1zCGsxoicHT2NREIymUqiwWT8mPdxlNErN4S7tP/DkymwR8jieLEqG9N0BX2KLmrJyrDkptojsdrOtvgogvej3M5X1g==","69168b21477cff9ada6cb980","691bd46bcdd5e877c02610e6","index1","<span style='color:red'>Fail,<span style='color:red'>Fail,<span style='color:green'>Lift,<span style='color:green'>Lift,<span style='color:red'>Fail,<span style='color:red'>Fail,<span style='color:red'>Fail,<span style='color:red'>Fail,<span style='color:green'>Lift,<span style='color:red'>Fail,<span style='color:green'>Lift,<span style='color:red'>Fail","<span style='color:red'>Fail,<span style='color:red'>Fail,<span style='color:green'>Lift,<span style='color:green'>Lift,<span style='color:green'>Lift,<span style='color:green'>Lift,<span style='color:red'>Fail,<span style='color:green'>Lift,<span style='color:green'>Lift,<span style='color:green'>Lift,<span style='color:green'>Lift,<span style='color:red'>Fail","<span style='color:red'>Fail,<span style='color:green'>Lift,<span style='color:green'>Lift,<span style='color:red'>Fail,<span style='color:green'>Lift,<span style='color:green'>Lift","0,0,1,1,0,0,0,0,1,0,1,0","0,0,1,1,1,1,0,1,1,1,1,0","0,1,1,0,1,1",10,20,20,"","","","","{""Q0"":""It consists of multiple contests, each contest with three rounds."",""Q1"":""When a new round starts."",""Q2"":""The box weight always stays the same (equivalent to strength of 5)."",""Q3"":""Each will get $20."",""Q4"":""There is no bonus payment at all.""}","[0,1,2,3,4]",NA,NA,"",NA,NA,NA,NA,NA,NA,NA,NA,NA,NA,NA,NA,NA,NA,NA,NA,NA,NA,NA,NA,NA,NA,NA,NA,NA,NA,NA,NA,NA,NA,NA,NA,NA,NA,NA,NA,NA,NA,NA,"",NA,NA,NA,NA,NA,NA,NA,NA,2025-11-18 02:23:16
"1062.2999999523163","https://psyc-201.github.io/xiang2023/exp/index1.html?PROLIFIC_PID=REDACTED&STUDY_ID=69168b21477cff9ada6cb980&SESSION_ID=691bd46bcdd5e877c02610e6","html-button-response",25,581885,"0.0-26.0-0.0","qqw+6O/bmICv0iLz6CgEWGDcPB0HX5+sUUVykZwRai9KQQRWmombCzTQ/PEttFMWKs/1pNPyEwijxsSbr4jvIAJEg1b6M/Djd6fTKIZAz5pIhl/q6GLnFauyk6V1phG4mUWatPouLx0yV9U/8mT2SmgSRcNzAw+B14aq8jzrYN98bwtX1UVdAr+cIMjFRzmvEo9wq5HArbOBVYp60wnNQWpzEjYCZFgRuv7admnEximdmlMGDWrn4N5BvPU1zCGsxoicHT2NREIymUqiwWT8mPdxlNErN4S7tP/DkymwR8jieLEqG9N0BX2KLmrJyrDkptojsdrOtvgogvej3M5X1g==","69168b21477cff9ada6cb980","691bd46bcdd5e877c02610e6","index1","<span style='color:red'>Fail,<span style='color:red'>Fail,<span style='color:green'>Lift,<span style='color:green'>Lift,<span style='color:red'>Fail,<span style='color:red'>Fail,<span style='color:red'>Fail,<span style='color:red'>Fail,<span style='color:green'>Lift,<span style='color:red'>Fail,<span style='color:green'>Lift,<span style='color:red'>Fail","<span style='color:red'>Fail,<span style='color:red'>Fail,<span style='color:green'>Lift,<span style='color:green'>Lift,<span style='color:green'>Lift,<span style='color:green'>Lift,<span style='color:red'>Fail,<span style='color:green'>Lift,<span style='color:green'>Lift,<span style='color:green'>Lift,<span style='color:green'>Lift,<span style='color:red'>Fail","<span style='color:red'>Fail,<span style='color:green'>Lift,<span style='color:green'>Lift,<span style='color:red'>Fail,<span style='color:green'>Lift,<span style='color:green'>Lift","0,0,1,1,0,0,0,0,1,0,1,0","0,0,1,1,1,1,0,1,1,1,1,0","0,1,1,0,1,1",10,20,20,"","","<p> Oops! You did not pass the comprehension check.</p>","","","",1,NA,"",NA,NA,NA,NA,NA,NA,NA,NA,NA,NA,NA,NA,NA,NA,NA,NA,NA,NA,NA,NA,NA,NA,NA,NA,NA,NA,NA,NA,NA,NA,NA,NA,NA,NA,NA,NA,NA,NA,NA,"",NA,NA,NA,NA,NA,NA,NA,NA,2025-11-18 02:23:16
"31797.39999985695","https://psyc-201.github.io/xiang2023/exp/index1.html?PROLIFIC_PID=REDACTED&STUDY_ID=69168b21477cff9ada6cb980&SESSION_ID=691bd46bcdd5e877c02610e6","instructions",26,613684,"0.0-27.0-0.0","qqw+6O/bmICv0iLz6CgEWGDcPB0HX5+sUUVykZwRai9KQQRWmombCzTQ/PEttFMWKs/1pNPyEwijxsSbr4jvIAJEg1b6M/Djd6fTKIZAz5pIhl/q6GLnFauyk6V1phG4mUWatPouLx0yV9U/8mT2SmgSRcNzAw+B14aq8jzrYN98bwtX1UVdAr+cIMjFRzmvEo9wq5HArbOBVYp60wnNQWpzEjYCZFgRuv7admnEximdmlMGDWrn4N5BvPU1zCGsxoicHT2NREIymUqiwWT8mPdxlNErN4S7tP/DkymwR8jieLEqG9N0BX2KLmrJyrDkptojsdrOtvgogvej3M5X1g==","69168b21477cff9ada6cb980","691bd46bcdd5e877c02610e6","index1","<span style='color:red'>Fail,<span style='color:red'>Fail,<span style='color:green'>Lift,<span style='color:green'>Lift,<span style='color:red'>Fail,<span style='color:red'>Fail,<span style='color:red'>Fail,<span style='color:red'>Fail,<span style='color:green'>Lift,<span style='color:red'>Fail,<span style='color:green'>Lift,<span style='color:red'>Fail","<span style='color:red'>Fail,<span style='color:red'>Fail,<span style='color:green'>Lift,<span style='color:green'>Lift,<span style='color:green'>Lift,<span style='color:green'>Lift,<span style='color:red'>Fail,<span style='color:green'>Lift,<span style='color:green'>Lift,<span style='color:green'>Lift,<span style='color:green'>Lift,<span style='color:red'>Fail","<span style='color:red'>Fail,<span style='color:green'>Lift,<span style='color:green'>Lift,<span style='color:red'>Fail,<span style='color:green'>Lift,<span style='color:green'>Lift","0,0,1,1,0,0,0,0,1,0,1,0","0,0,1,1,1,1,0,1,1,1,1,0","0,1,1,0,1,1",10,20,20,"","[{""page_index"":0,""viewing_time"":12103.699999809265},{""page_index"":1,""viewing_time"":4218.100000143051},{""page_index"":2,""viewing_time"":8425.899999856949},{""page_index"":3,""viewing_time"":2737.600000143051},{""page_index"":4,""viewing_time"":1664.3999998569489},{""page_index"":5,""viewing_time"":859.3000001907349},{""page_index"":6,""viewing_time"":1787.0999999046326}]","","","","",NA,NA,"",NA,NA,NA,NA,NA,NA,NA,NA,NA,NA,NA,NA,NA,NA,NA,NA,NA,NA,NA,NA,NA,NA,NA,NA,NA,NA,NA,NA,NA,NA,NA,NA,NA,NA,NA,NA,NA,NA,NA,"",NA,NA,NA,NA,NA,NA,NA,NA,2025-11-18 02:23:16
"null","https://psyc-201.github.io/xiang2023/exp/index1.html?PROLIFIC_PID=REDACTED&STUDY_ID=69168b21477cff9ada6cb980&SESSION_ID=691bd46bcdd5e877c02610e6","html-keyboard-response",27,614691,"0.0-27.0-1.0","qqw+6O/bmICv0iLz6CgEWGDcPB0HX5+sUUVykZwRai9KQQRWmombCzTQ/PEttFMWKs/1pNPyEwijxsSbr4jvIAJEg1b6M/Djd6fTKIZAz5pIhl/q6GLnFauyk6V1phG4mUWatPouLx0yV9U/8mT2SmgSRcNzAw+B14aq8jzrYN98bwtX1UVdAr+cIMjFRzmvEo9wq5HArbOBVYp60wnNQWpzEjYCZFgRuv7admnEximdmlMGDWrn4N5BvPU1zCGsxoicHT2NREIymUqiwWT8mPdxlNErN4S7tP/DkymwR8jieLEqG9N0BX2KLmrJyrDkptojsdrOtvgogvej3M5X1g==","69168b21477cff9ada6cb980","691bd46bcdd5e877c02610e6","index1","<span style='color:red'>Fail,<span style='color:red'>Fail,<span style='color:green'>Lift,<span style='color:green'>Lift,<span style='color:red'>Fail,<span style='color:red'>Fail,<span style='color:red'>Fail,<span style='color:red'>Fail,<span style='color:green'>Lift,<span style='color:red'>Fail,<span style='color:green'>Lift,<span style='color:red'>Fail","<span style='color:red'>Fail,<span style='color:red'>Fail,<span style='color:green'>Lift,<span style='color:green'>Lift,<span style='color:green'>Lift,<span style='color:green'>Lift,<span style='color:red'>Fail,<span style='color:green'>Lift,<span style='color:green'>Lift,<span style='color:green'>Lift,<span style='color:green'>Lift,<span style='color:red'>Fail","<span style='color:red'>Fail,<span style='color:green'>Lift,<span style='color:green'>Lift,<span style='color:red'>Fail,<span style='color:green'>Lift,<span style='color:green'>Lift","0,0,1,1,0,0,0,0,1,0,1,0","0,0,1,1,1,1,0,1,1,1,1,0","0,1,1,0,1,1",10,20,20,"",""," ","null","","",NA,NA,"",NA,NA,NA,NA,NA,NA,NA,NA,NA,NA,NA,NA,NA,NA,NA,NA,NA,NA,NA,NA,NA,NA,NA,NA,NA,NA,NA,NA,NA,NA,NA,NA,NA,NA,NA,NA,NA,NA,NA,"",NA,NA,NA,NA,NA,NA,NA,NA,2025-11-18 02:23:16
"11328.200000047684","https://psyc-201.github.io/xiang2023/exp/index1.html?PROLIFIC_PID=REDACTED&STUDY_ID=69168b21477cff9ada6cb980&SESSION_ID=691bd46bcdd5e877c02610e6","survey-multi-choice",28,626021,"0.0-28.0-0.0","qqw+6O/bmICv0iLz6CgEWGDcPB0HX5+sUUVykZwRai9KQQRWmombCzTQ/PEttFMWKs/1pNPyEwijxsSbr4jvIAJEg1b6M/Djd6fTKIZAz5pIhl/q6GLnFauyk6V1phG4mUWatPouLx0yV9U/8mT2SmgSRcNzAw+B14aq8jzrYN98bwtX1UVdAr+cIMjFRzmvEo9wq5HArbOBVYp60wnNQWpzEjYCZFgRuv7admnEximdmlMGDWrn4N5BvPU1zCGsxoicHT2NREIymUqiwWT8mPdxlNErN4S7tP/DkymwR8jieLEqG9N0BX2KLmrJyrDkptojsdrOtvgogvej3M5X1g==","69168b21477cff9ada6cb980","691bd46bcdd5e877c02610e6","index1","<span style='color:red'>Fail,<span style='color:red'>Fail,<span style='color:green'>Lift,<span style='color:green'>Lift,<span style='color:red'>Fail,<span style='color:red'>Fail,<span style='color:red'>Fail,<span style='color:red'>Fail,<span style='color:green'>Lift,<span style='color:red'>Fail,<span style='color:green'>Lift,<span style='color:red'>Fail","<span style='color:red'>Fail,<span style='color:red'>Fail,<span style='color:green'>Lift,<span style='color:green'>Lift,<span style='color:green'>Lift,<span style='color:green'>Lift,<span style='color:red'>Fail,<span style='color:green'>Lift,<span style='color:green'>Lift,<span style='color:green'>Lift,<span style='color:green'>Lift,<span style='color:red'>Fail","<span style='color:red'>Fail,<span style='color:green'>Lift,<span style='color:green'>Lift,<span style='color:red'>Fail,<span style='color:green'>Lift,<span style='color:green'>Lift","0,0,1,1,0,0,0,0,1,0,1,0","0,0,1,1,1,1,0,1,1,1,1,0","0,1,1,0,1,1",10,20,20,"","","","","{""Q0"":""It consists of multiple contests, each contest with three rounds."",""Q1"":""When a new contest begins."",""Q2"":""The box weight always stays the same (equivalent to strength of 5)."",""Q3"":""Each will get $20."",""Q4"":""How close my guesses are to the actual outcome.""}","[0,1,2,3,4]",NA,NA,"",NA,NA,NA,NA,NA,NA,NA,NA,NA,NA,NA,NA,NA,NA,NA,NA,NA,NA,NA,NA,NA,NA,NA,NA,NA,NA,NA,NA,NA,NA,NA,NA,NA,NA,NA,NA,NA,NA,NA,"",NA,NA,NA,NA,NA,NA,NA,NA,2025-11-18 02:23:16
"11248.299999952316","https://psyc-201.github.io/xiang2023/exp/index1.html?PROLIFIC_PID=REDACTED&STUDY_ID=69168b21477cff9ada6cb980&SESSION_ID=691bd46bcdd5e877c02610e6","instructions",29,637280,"0.0-305.0","qqw+6O/bmICv0iLz6CgEWGDcPB0HX5+sUUVykZwRai9KQQRWmombCzTQ/PEttFMWKs/1pNPyEwijxsSbr4jvIAJEg1b6M/Djd6fTKIZAz5pIhl/q6GLnFauyk6V1phG4mUWatPouLx0yV9U/8mT2SmgSRcNzAw+B14aq8jzrYN98bwtX1UVdAr+cIMjFRzmvEo9wq5HArbOBVYp60wnNQWpzEjYCZFgRuv7admnEximdmlMGDWrn4N5BvPU1zCGsxoicHT2NREIymUqiwWT8mPdxlNErN4S7tP/DkymwR8jieLEqG9N0BX2KLmrJyrDkptojsdrOtvgogvej3M5X1g==","69168b21477cff9ada6cb980","691bd46bcdd5e877c02610e6","index1","<span style='color:red'>Fail,<span style='color:red'>Fail,<span style='color:green'>Lift,<span style='color:green'>Lift,<span style='color:red'>Fail,<span style='color:red'>Fail,<span style='color:red'>Fail,<span style='color:red'>Fail,<span style='color:green'>Lift,<span style='color:red'>Fail,<span style='color:green'>Lift,<span style='color:red'>Fail","<span style='color:red'>Fail,<span style='color:red'>Fail,<span style='color:green'>Lift,<span style='color:green'>Lift,<span style='color:green'>Lift,<span style='color:green'>Lift,<span style='color:red'>Fail,<span style='color:green'>Lift,<span style='color:green'>Lift,<span style='color:green'>Lift,<span style='color:green'>Lift,<span style='color:red'>Fail","<span style='color:red'>Fail,<span style='color:green'>Lift,<span style='color:green'>Lift,<span style='color:red'>Fail,<span style='color:green'>Lift,<span style='color:green'>Lift","0,0,1,1,0,0,0,0,1,0,1,0","0,0,1,1,1,1,0,1,1,1,1,0","0,1,1,0,1,1",10,20,20,"","[{""page_index"":0,""viewing_time"":5916.799999952316},{""page_index"":1,""viewing_time"":5330.200000047684}]","","","","",NA,NA,"",NA,NA,NA,NA,NA,NA,NA,NA,NA,NA,NA,NA,NA,NA,NA,NA,NA,NA,NA,NA,NA,NA,NA,NA,NA,NA,NA,NA,NA,NA,NA,NA,NA,NA,NA,NA,NA,NA,NA,"",NA,NA,NA,NA,NA,NA,NA,NA,2025-11-18 02:23:16
"null","https://psyc-201.github.io/xiang2023/exp/index1.html?PROLIFIC_PID=REDACTED&STUDY_ID=69168b21477cff9ada6cb980&SESSION_ID=691bd46bcdd5e877c02610e6","html-keyboard-response",30,638287,"0.0-306.0","qqw+6O/bmICv0iLz6CgEWGDcPB0HX5+sUUVykZwRai9KQQRWmombCzTQ/PEttFMWKs/1pNPyEwijxsSbr4jvIAJEg1b6M/Djd6fTKIZAz5pIhl/q6GLnFauyk6V1phG4mUWatPouLx0yV9U/8mT2SmgSRcNzAw+B14aq8jzrYN98bwtX1UVdAr+cIMjFRzmvEo9wq5HArbOBVYp60wnNQWpzEjYCZFgRuv7admnEximdmlMGDWrn4N5BvPU1zCGsxoicHT2NREIymUqiwWT8mPdxlNErN4S7tP/DkymwR8jieLEqG9N0BX2KLmrJyrDkptojsdrOtvgogvej3M5X1g==","69168b21477cff9ada6cb980","691bd46bcdd5e877c02610e6","index1","<span style='color:red'>Fail,<span style='color:red'>Fail,<span style='color:green'>Lift,<span style='color:green'>Lift,<span style='color:red'>Fail,<span style='color:red'>Fail,<span style='color:red'>Fail,<span style='color:red'>Fail,<span style='color:green'>Lift,<span style='color:red'>Fail,<span style='color:green'>Lift,<span style='color:red'>Fail","<span style='color:red'>Fail,<span style='color:red'>Fail,<span style='color:green'>Lift,<span style='color:green'>Lift,<span style='color:green'>Lift,<span style='color:green'>Lift,<span style='color:red'>Fail,<span style='color:green'>Lift,<span style='color:green'>Lift,<span style='color:green'>Lift,<span style='color:green'>Lift,<span style='color:red'>Fail","<span style='color:red'>Fail,<span style='color:green'>Lift,<span style='color:green'>Lift,<span style='color:red'>Fail,<span style='color:green'>Lift,<span style='color:green'>Lift","0,0,1,1,0,0,0,0,1,0,1,0","0,0,1,1,1,1,0,1,1,1,1,0","0,1,1,0,1,1",10,20,20,"",""," ","null","","",NA,1,"",NA,NA,NA,NA,NA,NA,NA,NA,NA,NA,NA,NA,NA,NA,NA,NA,NA,NA,NA,NA,NA,NA,NA,NA,NA,NA,NA,NA,NA,NA,NA,NA,NA,NA,NA,NA,NA,NA,NA,"",NA,NA,NA,NA,NA,NA,NA,NA,2025-11-18 02:23:16
"null","https://psyc-201.github.io/xiang2023/exp/index1.html?PROLIFIC_PID=REDACTED&STUDY_ID=69168b21477cff9ada6cb980&SESSION_ID=691bd46bcdd5e877c02610e6","html-keyboard-response",31,641302,"0.0-307.0","qqw+6O/bmICv0iLz6CgEWGDcPB0HX5+sUUVykZwRai9KQQRWmombCzTQ/PEttFMWKs/1pNPyEwijxsSbr4jvIAJEg1b6M/Djd6fTKIZAz5pIhl/q6GLnFauyk6V1phG4mUWatPouLx0yV9U/8mT2SmgSRcNzAw+B14aq8jzrYN98bwtX1UVdAr+cIMjFRzmvEo9wq5HArbOBVYp60wnNQWpzEjYCZFgRuv7admnEximdmlMGDWrn4N5BvPU1zCGsxoicHT2NREIymUqiwWT8mPdxlNErN4S7tP/DkymwR8jieLEqG9N0BX2KLmrJyrDkptojsdrOtvgogvej3M5X1g==","69168b21477cff9ada6cb980","691bd46bcdd5e877c02610e6","index1","<span style='color:red'>Fail,<span style='color:red'>Fail,<span style='color:green'>Lift,<span style='color:green'>Lift,<span style='color:red'>Fail,<span style='color:red'>Fail,<span style='color:red'>Fail,<span style='color:red'>Fail,<span style='color:green'>Lift,<span style='color:red'>Fail,<span style='color:green'>Lift,<span style='color:red'>Fail","<span style='color:red'>Fail,<span style='color:red'>Fail,<span style='color:green'>Lift,<span style='color:green'>Lift,<span style='color:green'>Lift,<span style='color:green'>Lift,<span style='color:red'>Fail,<span style='color:green'>Lift,<span style='color:green'>Lift,<span style='color:green'>Lift,<span style='color:green'>Lift,<span style='color:red'>Fail","<span style='color:red'>Fail,<span style='color:green'>Lift,<span style='color:green'>Lift,<span style='color:red'>Fail,<span style='color:green'>Lift,<span style='color:green'>Lift","0,0,1,1,0,0,0,0,1,0,1,0","0,0,1,1,1,1,0,1,1,1,1,0","0,1,1,0,1,1",10,20,20,"","","<p style='font-size:30px'><b> New Contest! </b></p>","null","","",NA,1,"",NA,NA,NA,NA,NA,NA,NA,NA,NA,NA,NA,NA,NA,NA,NA,NA,NA,NA,NA,NA,NA,NA,NA,NA,NA,NA,NA,NA,NA,NA,NA,NA,NA,NA,NA,NA,NA,NA,NA,"",NA,NA,NA,NA,NA,NA,NA,NA,2025-11-18 02:23:16
"34086.60000014305","https://psyc-201.github.io/xiang2023/exp/index1.html?PROLIFIC_PID=REDACTED&STUDY_ID=69168b21477cff9ada6cb980&SESSION_ID=691bd46bcdd5e877c02610e6","survey-html-form",32,675393,"0.0-308.0","qqw+6O/bmICv0iLz6CgEWGDcPB0HX5+sUUVykZwRai9KQQRWmombCzTQ/PEttFMWKs/1pNPyEwijxsSbr4jvIAJEg1b6M/Djd6fTKIZAz5pIhl/q6GLnFauyk6V1phG4mUWatPouLx0yV9U/8mT2SmgSRcNzAw+B14aq8jzrYN98bwtX1UVdAr+cIMjFRzmvEo9wq5HArbOBVYp60wnNQWpzEjYCZFgRuv7admnEximdmlMGDWrn4N5BvPU1zCGsxoicHT2NREIymUqiwWT8mPdxlNErN4S7tP/DkymwR8jieLEqG9N0BX2KLmrJyrDkptojsdrOtvgogvej3M5X1g==","69168b21477cff9ada6cb980","691bd46bcdd5e877c02610e6","index1","<span style='color:red'>Fail,<span style='color:red'>Fail,<span style='color:green'>Lift,<span style='color:green'>Lift,<span style='color:red'>Fail,<span style='color:red'>Fail,<span style='color:red'>Fail,<span style='color:red'>Fail,<span style='color:green'>Lift,<span style='color:red'>Fail,<span style='color:green'>Lift,<span style='color:red'>Fail","<span style='color:red'>Fail,<span style='color:red'>Fail,<span style='color:green'>Lift,<span style='color:green'>Lift,<span style='color:green'>Lift,<span style='color:green'>Lift,<span style='color:red'>Fail,<span style='color:green'>Lift,<span style='color:green'>Lift,<span style='color:green'>Lift,<span style='color:green'>Lift,<span style='color:red'>Fail","<span style='color:red'>Fail,<span style='color:green'>Lift,<span style='color:green'>Lift,<span style='color:red'>Fail,<span style='color:green'>Lift,<span style='color:green'>Lift","0,0,1,1,0,0,0,0,1,0,1,0","0,0,1,1,1,1,0,1,1,1,1,0","0,1,1,0,1,1",10,20,20,"","","","","{""box1"":""8"",""box2"":""2"",""box3"":""100""}","",NA,1,"round1_outcome",1,1,1,8,2,100,NA,1,0,10,8,2,100,NA,1,0,10,NA,NA,NA,NA,NA,NA,NA,NA,NA,NA,NA,NA,NA,NA,NA,NA,NA,NA,NA,NA,NA,NA,"",NA,NA,NA,NA,NA,NA,NA,NA,2025-11-18 02:23:16
"15112.599999904633","https://psyc-201.github.io/xiang2023/exp/index1.html?PROLIFIC_PID=REDACTED&STUDY_ID=69168b21477cff9ada6cb980&SESSION_ID=691bd46bcdd5e877c02610e6","survey-html-form",33,690513,"0.0-309.0","qqw+6O/bmICv0iLz6CgEWGDcPB0HX5+sUUVykZwRai9KQQRWmombCzTQ/PEttFMWKs/1pNPyEwijxsSbr4jvIAJEg1b6M/Djd6fTKIZAz5pIhl/q6GLnFauyk6V1phG4mUWatPouLx0yV9U/8mT2SmgSRcNzAw+B14aq8jzrYN98bwtX1UVdAr+cIMjFRzmvEo9wq5HArbOBVYp60wnNQWpzEjYCZFgRuv7admnEximdmlMGDWrn4N5BvPU1zCGsxoicHT2NREIymUqiwWT8mPdxlNErN4S7tP/DkymwR8jieLEqG9N0BX2KLmrJyrDkptojsdrOtvgogvej3M5X1g==","69168b21477cff9ada6cb980","691bd46bcdd5e877c02610e6","index1","<span style='color:red'>Fail,<span style='color:red'>Fail,<span style='color:green'>Lift,<span style='color:green'>Lift,<span style='color:red'>Fail,<span style='color:red'>Fail,<span style='color:red'>Fail,<span style='color:red'>Fail,<span style='color:green'>Lift,<span style='color:red'>Fail,<span style='color:green'>Lift,<span style='color:red'>Fail","<span style='color:red'>Fail,<span style='color:red'>Fail,<span style='color:green'>Lift,<span style='color:green'>Lift,<span style='color:green'>Lift,<span style='color:green'>Lift,<span style='color:red'>Fail,<span style='color:green'>Lift,<span style='color:green'>Lift,<span style='color:green'>Lift,<span style='color:green'>Lift,<span style='color:red'>Fail","<span style='color:red'>Fail,<span style='color:green'>Lift,<span style='color:green'>Lift,<span style='color:red'>Fail,<span style='color:green'>Lift,<span style='color:green'>Lift","0,0,1,1,0,0,0,0,1,0,1,0","0,0,1,1,1,1,0,1,1,1,1,0","0,1,1,0,1,1",10,20,20,"","","","","{""box1"":""100"",""box2"":""100""}","",NA,1,"round2_ready",2,1,2,NA,NA,NA,NA,NA,NA,NA,NA,NA,NA,NA,NA,NA,NA,100,100,100,100,NA,NA,NA,NA,NA,NA,NA,NA,NA,NA,NA,NA,NA,NA,NA,NA,NA,NA,"",NA,NA,NA,NA,NA,NA,NA,NA,2025-11-18 02:23:16
"16486.199999809265","https://psyc-201.github.io/xiang2023/exp/index1.html?PROLIFIC_PID=REDACTED&STUDY_ID=69168b21477cff9ada6cb980&SESSION_ID=691bd46bcdd5e877c02610e6","survey-html-form",34,707004,"0.0-310.0","qqw+6O/bmICv0iLz6CgEWGDcPB0HX5+sUUVykZwRai9KQQRWmombCzTQ/PEttFMWKs/1pNPyEwijxsSbr4jvIAJEg1b6M/Djd6fTKIZAz5pIhl/q6GLnFauyk6V1phG4mUWatPouLx0yV9U/8mT2SmgSRcNzAw+B14aq8jzrYN98bwtX1UVdAr+cIMjFRzmvEo9wq5HArbOBVYp60wnNQWpzEjYCZFgRuv7admnEximdmlMGDWrn4N5BvPU1zCGsxoicHT2NREIymUqiwWT8mPdxlNErN4S7tP/DkymwR8jieLEqG9N0BX2KLmrJyrDkptojsdrOtvgogvej3M5X1g==","69168b21477cff9ada6cb980","691bd46bcdd5e877c02610e6","index1","<span style='color:red'>Fail,<span style='color:red'>Fail,<span style='color:green'>Lift,<span style='color:green'>Lift,<span style='color:red'>Fail,<span style='color:red'>Fail,<span style='color:red'>Fail,<span style='color:red'>Fail,<span style='color:green'>Lift,<span style='color:red'>Fail,<span style='color:green'>Lift,<span style='color:red'>Fail","<span style='color:red'>Fail,<span style='color:red'>Fail,<span style='color:green'>Lift,<span style='color:green'>Lift,<span style='color:green'>Lift,<span style='color:green'>Lift,<span style='color:red'>Fail,<span style='color:green'>Lift,<span style='color:green'>Lift,<span style='color:green'>Lift,<span style='color:green'>Lift,<span style='color:red'>Fail","<span style='color:red'>Fail,<span style='color:green'>Lift,<span style='color:green'>Lift,<span style='color:red'>Fail,<span style='color:green'>Lift,<span style='color:green'>Lift","0,0,1,1,0,0,0,0,1,0,1,0","0,0,1,1,1,1,0,1,1,1,1,0","0,1,1,0,1,1",10,20,20,"","","","","{""box1"":""8"",""box2"":""2"",""box3"":""100""}","",NA,1,"round2_outcome",3,1,2,8,2,100,NA,1,0,20,NA,NA,NA,NA,NA,NA,NA,NA,NA,NA,NA,8,2,100,NA,1,0,20,NA,NA,NA,NA,NA,NA,NA,NA,NA,NA,NA,"",NA,NA,NA,NA,NA,NA,NA,NA,2025-11-18 02:23:16
"8116.199999809265","https://psyc-201.github.io/xiang2023/exp/index1.html?PROLIFIC_PID=REDACTED&STUDY_ID=69168b21477cff9ada6cb980&SESSION_ID=691bd46bcdd5e877c02610e6","survey-html-form",35,715125,"0.0-311.0","qqw+6O/bmICv0iLz6CgEWGDcPB0HX5+sUUVykZwRai9KQQRWmombCzTQ/PEttFMWKs/1pNPyEwijxsSbr4jvIAJEg1b6M/Djd6fTKIZAz5pIhl/q6GLnFauyk6V1phG4mUWatPouLx0yV9U/8mT2SmgSRcNzAw+B14aq8jzrYN98bwtX1UVdAr+cIMjFRzmvEo9wq5HArbOBVYp60wnNQWpzEjYCZFgRuv7admnEximdmlMGDWrn4N5BvPU1zCGsxoicHT2NREIymUqiwWT8mPdxlNErN4S7tP/DkymwR8jieLEqG9N0BX2KLmrJyrDkptojsdrOtvgogvej3M5X1g==","69168b21477cff9ada6cb980","691bd46bcdd5e877c02610e6","index1","<span style='color:red'>Fail,<span style='color:red'>Fail,<span style='color:green'>Lift,<span style='color:green'>Lift,<span style='color:red'>Fail,<span style='color:red'>Fail,<span style='color:red'>Fail,<span style='color:red'>Fail,<span style='color:green'>Lift,<span style='color:red'>Fail,<span style='color:green'>Lift,<span style='color:red'>Fail","<span style='color:red'>Fail,<span style='color:red'>Fail,<span style='color:green'>Lift,<span style='color:green'>Lift,<span style='color:green'>Lift,<span style='color:green'>Lift,<span style='color:red'>Fail,<span style='color:green'>Lift,<span style='color:green'>Lift,<span style='color:green'>Lift,<span style='color:green'>Lift,<span style='color:red'>Fail","<span style='color:red'>Fail,<span style='color:green'>Lift,<span style='color:green'>Lift,<span style='color:red'>Fail,<span style='color:green'>Lift,<span style='color:green'>Lift","0,0,1,1,0,0,0,0,1,0,1,0","0,0,1,1,1,1,0,1,1,1,1,0","0,1,1,0,1,1",10,20,20,"","","","","{""box1"":""80""}","",NA,1,"round3_ready",4,1,3,NA,NA,NA,NA,NA,NA,NA,NA,NA,NA,NA,NA,NA,NA,80,80,NA,NA,NA,NA,NA,NA,NA,NA,NA,80,80,NA,NA,NA,NA,NA,NA,NA,NA,NA,"",NA,NA,NA,NA,NA,NA,NA,NA,2025-11-18 02:23:16
"20364.799999952316","https://psyc-201.github.io/xiang2023/exp/index1.html?PROLIFIC_PID=REDACTED&STUDY_ID=69168b21477cff9ada6cb980&SESSION_ID=691bd46bcdd5e877c02610e6","survey-html-form",36,735496,"0.0-312.0-0.0","qqw+6O/bmICv0iLz6CgEWGDcPB0HX5+sUUVykZwRai9KQQRWmombCzTQ/PEttFMWKs/1pNPyEwijxsSbr4jvIAJEg1b6M/Djd6fTKIZAz5pIhl/q6GLnFauyk6V1phG4mUWatPouLx0yV9U/8mT2SmgSRcNzAw+B14aq8jzrYN98bwtX1UVdAr+cIMjFRzmvEo9wq5HArbOBVYp60wnNQWpzEjYCZFgRuv7admnEximdmlMGDWrn4N5BvPU1zCGsxoicHT2NREIymUqiwWT8mPdxlNErN4S7tP/DkymwR8jieLEqG9N0BX2KLmrJyrDkptojsdrOtvgogvej3M5X1g==","69168b21477cff9ada6cb980","691bd46bcdd5e877c02610e6","index1","<span style='color:red'>Fail,<span style='color:red'>Fail,<span style='color:green'>Lift,<span style='color:green'>Lift,<span style='color:red'>Fail,<span style='color:red'>Fail,<span style='color:red'>Fail,<span style='color:red'>Fail,<span style='color:green'>Lift,<span style='color:red'>Fail,<span style='color:green'>Lift,<span style='color:red'>Fail","<span style='color:red'>Fail,<span style='color:red'>Fail,<span style='color:green'>Lift,<span style='color:green'>Lift,<span style='color:green'>Lift,<span style='color:green'>Lift,<span style='color:red'>Fail,<span style='color:green'>Lift,<span style='color:green'>Lift,<span style='color:green'>Lift,<span style='color:green'>Lift,<span style='color:red'>Fail","<span style='color:red'>Fail,<span style='color:green'>Lift,<span style='color:green'>Lift,<span style='color:red'>Fail,<span style='color:green'>Lift,<span style='color:green'>Lift","0,0,1,1,0,0,0,0,1,0,1,0","0,0,1,1,1,1,0,1,1,1,1,0","0,1,1,0,1,1",10,20,20,"","","","","{""box1"":""8"",""box2"":""4"",""box3"":""75"",""box4"":""25""}","",NA,2,"round3_lift",5,1,3,8,4,75,25,1,1,20,NA,NA,NA,NA,NA,NA,NA,NA,NA,NA,NA,NA,NA,NA,NA,NA,NA,NA,NA,NA,8,4,75,25,1,1,20,NA,NA,"",NA,NA,NA,NA,NA,NA,NA,NA,2025-11-18 02:23:16
"null","https://psyc-201.github.io/xiang2023/exp/index1.html?PROLIFIC_PID=REDACTED&STUDY_ID=69168b21477cff9ada6cb980&SESSION_ID=691bd46bcdd5e877c02610e6","html-keyboard-response",37,738516,"0.0-316.0","qqw+6O/bmICv0iLz6CgEWGDcPB0HX5+sUUVykZwRai9KQQRWmombCzTQ/PEttFMWKs/1pNPyEwijxsSbr4jvIAJEg1b6M/Djd6fTKIZAz5pIhl/q6GLnFauyk6V1phG4mUWatPouLx0yV9U/8mT2SmgSRcNzAw+B14aq8jzrYN98bwtX1UVdAr+cIMjFRzmvEo9wq5HArbOBVYp60wnNQWpzEjYCZFgRuv7admnEximdmlMGDWrn4N5BvPU1zCGsxoicHT2NREIymUqiwWT8mPdxlNErN4S7tP/DkymwR8jieLEqG9N0BX2KLmrJyrDkptojsdrOtvgogvej3M5X1g==","69168b21477cff9ada6cb980","691bd46bcdd5e877c02610e6","index1","<span style='color:red'>Fail,<span style='color:red'>Fail,<span style='color:green'>Lift,<span style='color:green'>Lift,<span style='color:red'>Fail,<span style='color:red'>Fail,<span style='color:red'>Fail,<span style='color:red'>Fail,<span style='color:green'>Lift,<span style='color:red'>Fail,<span style='color:green'>Lift,<span style='color:red'>Fail","<span style='color:red'>Fail,<span style='color:red'>Fail,<span style='color:green'>Lift,<span style='color:green'>Lift,<span style='color:green'>Lift,<span style='color:green'>Lift,<span style='color:red'>Fail,<span style='color:green'>Lift,<span style='color:green'>Lift,<span style='color:green'>Lift,<span style='color:green'>Lift,<span style='color:red'>Fail","<span style='color:red'>Fail,<span style='color:green'>Lift,<span style='color:green'>Lift,<span style='color:red'>Fail,<span style='color:green'>Lift,<span style='color:green'>Lift","0,0,1,1,0,0,0,0,1,0,1,0","0,0,1,1,1,1,0,1,1,1,1,0","0,1,1,0,1,1",10,20,20,"","","<p style='font-size:30px'><b> New Contest! </b></p>","null","","",NA,2,"",NA,NA,NA,NA,NA,NA,NA,NA,NA,NA,NA,NA,NA,NA,NA,NA,NA,NA,NA,NA,NA,NA,NA,NA,NA,NA,NA,NA,NA,NA,NA,NA,NA,NA,NA,NA,NA,NA,NA,"",NA,NA,NA,NA,NA,NA,NA,NA,2025-11-18 02:23:16
"9240.5","https://psyc-201.github.io/xiang2023/exp/index1.html?PROLIFIC_PID=REDACTED&STUDY_ID=69168b21477cff9ada6cb980&SESSION_ID=691bd46bcdd5e877c02610e6","survey-html-form",38,747759,"0.0-317.0","qqw+6O/bmICv0iLz6CgEWGDcPB0HX5+sUUVykZwRai9KQQRWmombCzTQ/PEttFMWKs/1pNPyEwijxsSbr4jvIAJEg1b6M/Djd6fTKIZAz5pIhl/q6GLnFauyk6V1phG4mUWatPouLx0yV9U/8mT2SmgSRcNzAw+B14aq8jzrYN98bwtX1UVdAr+cIMjFRzmvEo9wq5HArbOBVYp60wnNQWpzEjYCZFgRuv7admnEximdmlMGDWrn4N5BvPU1zCGsxoicHT2NREIymUqiwWT8mPdxlNErN4S7tP/DkymwR8jieLEqG9N0BX2KLmrJyrDkptojsdrOtvgogvej3M5X1g==","69168b21477cff9ada6cb980","691bd46bcdd5e877c02610e6","index1","<span style='color:red'>Fail,<span style='color:red'>Fail,<span style='color:green'>Lift,<span style='color:green'>Lift,<span style='color:red'>Fail,<span style='color:red'>Fail,<span style='color:red'>Fail,<span style='color:red'>Fail,<span style='color:green'>Lift,<span style='color:red'>Fail,<span style='color:green'>Lift,<span style='color:red'>Fail","<span style='color:red'>Fail,<span style='color:red'>Fail,<span style='color:green'>Lift,<span style='color:green'>Lift,<span style='color:green'>Lift,<span style='color:green'>Lift,<span style='color:red'>Fail,<span style='color:green'>Lift,<span style='color:green'>Lift,<span style='color:green'>Lift,<span style='color:green'>Lift,<span style='color:red'>Fail","<span style='color:red'>Fail,<span style='color:green'>Lift,<span style='color:green'>Lift,<span style='color:red'>Fail,<span style='color:green'>Lift,<span style='color:green'>Lift","0,0,1,1,0,0,0,0,1,0,1,0","0,0,1,1,1,1,0,1,1,1,1,0","0,1,1,0,1,1",10,20,20,"","","","","{""box1"":""3"",""box2"":""3""}","",NA,2,"round1_outcome",1,2,1,3,3,NA,NA,0,0,10,3,3,NA,NA,0,0,10,NA,NA,NA,NA,NA,NA,NA,NA,NA,NA,NA,NA,NA,NA,NA,NA,NA,NA,NA,NA,NA,NA,"",NA,NA,NA,NA,NA,NA,NA,NA,2025-11-18 02:23:16
"7305.799999952316","https://psyc-201.github.io/xiang2023/exp/index1.html?PROLIFIC_PID=REDACTED&STUDY_ID=69168b21477cff9ada6cb980&SESSION_ID=691bd46bcdd5e877c02610e6","survey-html-form",39,755069,"0.0-318.0","qqw+6O/bmICv0iLz6CgEWGDcPB0HX5+sUUVykZwRai9KQQRWmombCzTQ/PEttFMWKs/1pNPyEwijxsSbr4jvIAJEg1b6M/Djd6fTKIZAz5pIhl/q6GLnFauyk6V1phG4mUWatPouLx0yV9U/8mT2SmgSRcNzAw+B14aq8jzrYN98bwtX1UVdAr+cIMjFRzmvEo9wq5HArbOBVYp60wnNQWpzEjYCZFgRuv7admnEximdmlMGDWrn4N5BvPU1zCGsxoicHT2NREIymUqiwWT8mPdxlNErN4S7tP/DkymwR8jieLEqG9N0BX2KLmrJyrDkptojsdrOtvgogvej3M5X1g==","69168b21477cff9ada6cb980","691bd46bcdd5e877c02610e6","index1","<span style='color:red'>Fail,<span style='color:red'>Fail,<span style='color:green'>Lift,<span style='color:green'>Lift,<span style='color:red'>Fail,<span style='color:red'>Fail,<span style='color:red'>Fail,<span style='color:red'>Fail,<span style='color:green'>Lift,<span style='color:red'>Fail,<span style='color:green'>Lift,<span style='color:red'>Fail","<span style='color:red'>Fail,<span style='color:red'>Fail,<span style='color:green'>Lift,<span style='color:green'>Lift,<span style='color:green'>Lift,<span style='color:green'>Lift,<span style='color:red'>Fail,<span style='color:green'>Lift,<span style='color:green'>Lift,<span style='color:green'>Lift,<span style='color:green'>Lift,<span style='color:red'>Fail","<span style='color:red'>Fail,<span style='color:green'>Lift,<span style='color:green'>Lift,<span style='color:red'>Fail,<span style='color:green'>Lift,<span style='color:green'>Lift","0,0,1,1,0,0,0,0,1,0,1,0","0,0,1,1,1,1,0,1,1,1,1,0","0,1,1,0,1,1",10,20,20,"","","","","{""box1"":""50"",""box2"":""50""}","",NA,2,"round2_ready",2,2,2,NA,NA,NA,NA,NA,NA,NA,NA,NA,NA,NA,NA,NA,NA,50,50,50,50,NA,NA,NA,NA,NA,NA,NA,NA,NA,NA,NA,NA,NA,NA,NA,NA,NA,NA,"",NA,NA,NA,NA,NA,NA,NA,NA,2025-11-18 02:23:16
"18135.200000047684","https://psyc-201.github.io/xiang2023/exp/index1.html?PROLIFIC_PID=REDACTED&STUDY_ID=69168b21477cff9ada6cb980&SESSION_ID=691bd46bcdd5e877c02610e6","survey-html-form",40,773208,"0.0-319.0","qqw+6O/bmICv0iLz6CgEWGDcPB0HX5+sUUVykZwRai9KQQRWmombCzTQ/PEttFMWKs/1pNPyEwijxsSbr4jvIAJEg1b6M/Djd6fTKIZAz5pIhl/q6GLnFauyk6V1phG4mUWatPouLx0yV9U/8mT2SmgSRcNzAw+B14aq8jzrYN98bwtX1UVdAr+cIMjFRzmvEo9wq5HArbOBVYp60wnNQWpzEjYCZFgRuv7admnEximdmlMGDWrn4N5BvPU1zCGsxoicHT2NREIymUqiwWT8mPdxlNErN4S7tP/DkymwR8jieLEqG9N0BX2KLmrJyrDkptojsdrOtvgogvej3M5X1g==","69168b21477cff9ada6cb980","691bd46bcdd5e877c02610e6","index1","<span style='color:red'>Fail,<span style='color:red'>Fail,<span style='color:green'>Lift,<span style='color:green'>Lift,<span style='color:red'>Fail,<span style='color:red'>Fail,<span style='color:red'>Fail,<span style='color:red'>Fail,<span style='color:green'>Lift,<span style='color:red'>Fail,<span style='color:green'>Lift,<span style='color:red'>Fail","<span style='color:red'>Fail,<span style='color:red'>Fail,<span style='color:green'>Lift,<span style='color:green'>Lift,<span style='color:green'>Lift,<span style='color:green'>Lift,<span style='color:red'>Fail,<span style='color:green'>Lift,<span style='color:green'>Lift,<span style='color:green'>Lift,<span style='color:green'>Lift,<span style='color:red'>Fail","<span style='color:red'>Fail,<span style='color:green'>Lift,<span style='color:green'>Lift,<span style='color:red'>Fail,<span style='color:green'>Lift,<span style='color:green'>Lift","0,0,1,1,0,0,0,0,1,0,1,0","0,0,1,1,1,1,0,1,1,1,1,0","0,1,1,0,1,1",10,20,20,"","","","","{""box1"":""7"",""box2"":""7"",""box3"":""100"",""box4"":""100""}","",NA,2,"round2_outcome",3,2,2,7,7,100,100,1,1,20,NA,NA,NA,NA,NA,NA,NA,NA,NA,NA,NA,7,7,100,100,1,1,20,NA,NA,NA,NA,NA,NA,NA,NA,NA,NA,NA,"",NA,NA,NA,NA,NA,NA,NA,NA,2025-11-18 02:23:16
"4121.900000095367","https://psyc-201.github.io/xiang2023/exp/index1.html?PROLIFIC_PID=REDACTED&STUDY_ID=69168b21477cff9ada6cb980&SESSION_ID=691bd46bcdd5e877c02610e6","survey-html-form",41,777335,"0.0-320.0","qqw+6O/bmICv0iLz6CgEWGDcPB0HX5+sUUVykZwRai9KQQRWmombCzTQ/PEttFMWKs/1pNPyEwijxsSbr4jvIAJEg1b6M/Djd6fTKIZAz5pIhl/q6GLnFauyk6V1phG4mUWatPouLx0yV9U/8mT2SmgSRcNzAw+B14aq8jzrYN98bwtX1UVdAr+cIMjFRzmvEo9wq5HArbOBVYp60wnNQWpzEjYCZFgRuv7admnEximdmlMGDWrn4N5BvPU1zCGsxoicHT2NREIymUqiwWT8mPdxlNErN4S7tP/DkymwR8jieLEqG9N0BX2KLmrJyrDkptojsdrOtvgogvej3M5X1g==","69168b21477cff9ada6cb980","691bd46bcdd5e877c02610e6","index1","<span style='color:red'>Fail,<span style='color:red'>Fail,<span style='color:green'>Lift,<span style='color:green'>Lift,<span style='color:red'>Fail,<span style='color:red'>Fail,<span style='color:red'>Fail,<span style='color:red'>Fail,<span style='color:green'>Lift,<span style='color:red'>Fail,<span style='color:green'>Lift,<span style='color:red'>Fail","<span style='color:red'>Fail,<span style='color:red'>Fail,<span style='color:green'>Lift,<span style='color:green'>Lift,<span style='color:green'>Lift,<span style='color:green'>Lift,<span style='color:red'>Fail,<span style='color:green'>Lift,<span style='color:green'>Lift,<span style='color:green'>Lift,<span style='color:green'>Lift,<span style='color:red'>Fail","<span style='color:red'>Fail,<span style='color:green'>Lift,<span style='color:green'>Lift,<span style='color:red'>Fail,<span style='color:green'>Lift,<span style='color:green'>Lift","0,0,1,1,0,0,0,0,1,0,1,0","0,0,1,1,1,1,0,1,1,1,1,0","0,1,1,0,1,1",10,20,20,"","","","","{""box1"":""100""}","",NA,2,"round3_ready",4,2,3,NA,NA,NA,NA,NA,NA,NA,NA,NA,NA,NA,NA,NA,NA,100,100,NA,NA,NA,NA,NA,NA,NA,NA,NA,100,100,NA,NA,NA,NA,NA,NA,NA,NA,NA,"",NA,NA,NA,NA,NA,NA,NA,NA,2025-11-18 02:23:16
"18682.700000047684","https://psyc-201.github.io/xiang2023/exp/index1.html?PROLIFIC_PID=REDACTED&STUDY_ID=69168b21477cff9ada6cb980&SESSION_ID=691bd46bcdd5e877c02610e6","survey-html-form",42,796021,"0.0-321.0-0.0","qqw+6O/bmICv0iLz6CgEWGDcPB0HX5+sUUVykZwRai9KQQRWmombCzTQ/PEttFMWKs/1pNPyEwijxsSbr4jvIAJEg1b6M/Djd6fTKIZAz5pIhl/q6GLnFauyk6V1phG4mUWatPouLx0yV9U/8mT2SmgSRcNzAw+B14aq8jzrYN98bwtX1UVdAr+cIMjFRzmvEo9wq5HArbOBVYp60wnNQWpzEjYCZFgRuv7admnEximdmlMGDWrn4N5BvPU1zCGsxoicHT2NREIymUqiwWT8mPdxlNErN4S7tP/DkymwR8jieLEqG9N0BX2KLmrJyrDkptojsdrOtvgogvej3M5X1g==","69168b21477cff9ada6cb980","691bd46bcdd5e877c02610e6","index1","<span style='color:red'>Fail,<span style='color:red'>Fail,<span style='color:green'>Lift,<span style='color:green'>Lift,<span style='color:red'>Fail,<span style='color:red'>Fail,<span style='color:red'>Fail,<span style='color:red'>Fail,<span style='color:green'>Lift,<span style='color:red'>Fail,<span style='color:green'>Lift,<span style='color:red'>Fail","<span style='color:red'>Fail,<span style='color:red'>Fail,<span style='color:green'>Lift,<span style='color:green'>Lift,<span style='color:green'>Lift,<span style='color:green'>Lift,<span style='color:red'>Fail,<span style='color:green'>Lift,<span style='color:green'>Lift,<span style='color:green'>Lift,<span style='color:green'>Lift,<span style='color:red'>Fail","<span style='color:red'>Fail,<span style='color:green'>Lift,<span style='color:green'>Lift,<span style='color:red'>Fail,<span style='color:green'>Lift,<span style='color:green'>Lift","0,0,1,1,0,0,0,0,1,0,1,0","0,0,1,1,1,1,0,1,1,1,1,0","0,1,1,0,1,1",10,20,20,"","","","","{""box1"":""7"",""box2"":""7"",""box3"":""100"",""box4"":""100""}","",NA,3,"round3_lift",5,2,3,7,7,100,100,1,1,20,NA,NA,NA,NA,NA,NA,NA,NA,NA,NA,NA,NA,NA,NA,NA,NA,NA,NA,NA,NA,7,7,100,100,1,1,20,NA,NA,"",NA,NA,NA,NA,NA,NA,NA,NA,2025-11-18 02:23:16
"null","https://psyc-201.github.io/xiang2023/exp/index1.html?PROLIFIC_PID=REDACTED&STUDY_ID=69168b21477cff9ada6cb980&SESSION_ID=691bd46bcdd5e877c02610e6","html-keyboard-response",43,799036,"0.0-325.0","qqw+6O/bmICv0iLz6CgEWGDcPB0HX5+sUUVykZwRai9KQQRWmombCzTQ/PEttFMWKs/1pNPyEwijxsSbr4jvIAJEg1b6M/Djd6fTKIZAz5pIhl/q6GLnFauyk6V1phG4mUWatPouLx0yV9U/8mT2SmgSRcNzAw+B14aq8jzrYN98bwtX1UVdAr+cIMjFRzmvEo9wq5HArbOBVYp60wnNQWpzEjYCZFgRuv7admnEximdmlMGDWrn4N5BvPU1zCGsxoicHT2NREIymUqiwWT8mPdxlNErN4S7tP/DkymwR8jieLEqG9N0BX2KLmrJyrDkptojsdrOtvgogvej3M5X1g==","69168b21477cff9ada6cb980","691bd46bcdd5e877c02610e6","index1","<span style='color:red'>Fail,<span style='color:red'>Fail,<span style='color:green'>Lift,<span style='color:green'>Lift,<span style='color:red'>Fail,<span style='color:red'>Fail,<span style='color:red'>Fail,<span style='color:red'>Fail,<span style='color:green'>Lift,<span style='color:red'>Fail,<span style='color:green'>Lift,<span style='color:red'>Fail","<span style='color:red'>Fail,<span style='color:red'>Fail,<span style='color:green'>Lift,<span style='color:green'>Lift,<span style='color:green'>Lift,<span style='color:green'>Lift,<span style='color:red'>Fail,<span style='color:green'>Lift,<span style='color:green'>Lift,<span style='color:green'>Lift,<span style='color:green'>Lift,<span style='color:red'>Fail","<span style='color:red'>Fail,<span style='color:green'>Lift,<span style='color:green'>Lift,<span style='color:red'>Fail,<span style='color:green'>Lift,<span style='color:green'>Lift","0,0,1,1,0,0,0,0,1,0,1,0","0,0,1,1,1,1,0,1,1,1,1,0","0,1,1,0,1,1",10,20,20,"","","<p style='font-size:30px'><b> New Contest! </b></p>","null","","",NA,3,"",NA,NA,NA,NA,NA,NA,NA,NA,NA,NA,NA,NA,NA,NA,NA,NA,NA,NA,NA,NA,NA,NA,NA,NA,NA,NA,NA,NA,NA,NA,NA,NA,NA,NA,NA,NA,NA,NA,NA,"",NA,NA,NA,NA,NA,NA,NA,NA,2025-11-18 02:23:16
"8475","https://psyc-201.github.io/xiang2023/exp/index1.html?PROLIFIC_PID=REDACTED&STUDY_ID=69168b21477cff9ada6cb980&SESSION_ID=691bd46bcdd5e877c02610e6","survey-html-form",44,807513,"0.0-326.0","qqw+6O/bmICv0iLz6CgEWGDcPB0HX5+sUUVykZwRai9KQQRWmombCzTQ/PEttFMWKs/1pNPyEwijxsSbr4jvIAJEg1b6M/Djd6fTKIZAz5pIhl/q6GLnFauyk6V1phG4mUWatPouLx0yV9U/8mT2SmgSRcNzAw+B14aq8jzrYN98bwtX1UVdAr+cIMjFRzmvEo9wq5HArbOBVYp60wnNQWpzEjYCZFgRuv7admnEximdmlMGDWrn4N5BvPU1zCGsxoicHT2NREIymUqiwWT8mPdxlNErN4S7tP/DkymwR8jieLEqG9N0BX2KLmrJyrDkptojsdrOtvgogvej3M5X1g==","69168b21477cff9ada6cb980","691bd46bcdd5e877c02610e6","index1","<span style='color:red'>Fail,<span style='color:red'>Fail,<span style='color:green'>Lift,<span style='color:green'>Lift,<span style='color:red'>Fail,<span style='color:red'>Fail,<span style='color:red'>Fail,<span style='color:red'>Fail,<span style='color:green'>Lift,<span style='color:red'>Fail,<span style='color:green'>Lift,<span style='color:red'>Fail","<span style='color:red'>Fail,<span style='color:red'>Fail,<span style='color:green'>Lift,<span style='color:green'>Lift,<span style='color:green'>Lift,<span style='color:green'>Lift,<span style='color:red'>Fail,<span style='color:green'>Lift,<span style='color:green'>Lift,<span style='color:green'>Lift,<span style='color:green'>Lift,<span style='color:red'>Fail","<span style='color:red'>Fail,<span style='color:green'>Lift,<span style='color:green'>Lift,<span style='color:red'>Fail,<span style='color:green'>Lift,<span style='color:green'>Lift","0,0,1,1,0,0,0,0,1,0,1,0","0,0,1,1,1,1,0,1,1,1,1,0","0,1,1,0,1,1",10,20,20,"","","","","{""box1"":""3"",""box2"":""3""}","",NA,3,"round1_outcome",1,3,1,3,3,NA,NA,0,0,10,3,3,NA,NA,0,0,10,NA,NA,NA,NA,NA,NA,NA,NA,NA,NA,NA,NA,NA,NA,NA,NA,NA,NA,NA,NA,NA,NA,"",NA,NA,NA,NA,NA,NA,NA,NA,2025-11-18 02:23:16
"11061.700000047684","https://psyc-201.github.io/xiang2023/exp/index1.html?PROLIFIC_PID=REDACTED&STUDY_ID=69168b21477cff9ada6cb980&SESSION_ID=691bd46bcdd5e877c02610e6","survey-html-form",45,818580,"0.0-327.0","qqw+6O/bmICv0iLz6CgEWGDcPB0HX5+sUUVykZwRai9KQQRWmombCzTQ/PEttFMWKs/1pNPyEwijxsSbr4jvIAJEg1b6M/Djd6fTKIZAz5pIhl/q6GLnFauyk6V1phG4mUWatPouLx0yV9U/8mT2SmgSRcNzAw+B14aq8jzrYN98bwtX1UVdAr+cIMjFRzmvEo9wq5HArbOBVYp60wnNQWpzEjYCZFgRuv7admnEximdmlMGDWrn4N5BvPU1zCGsxoicHT2NREIymUqiwWT8mPdxlNErN4S7tP/DkymwR8jieLEqG9N0BX2KLmrJyrDkptojsdrOtvgogvej3M5X1g==","69168b21477cff9ada6cb980","691bd46bcdd5e877c02610e6","index1","<span style='color:red'>Fail,<span style='color:red'>Fail,<span style='color:green'>Lift,<span style='color:green'>Lift,<span style='color:red'>Fail,<span style='color:red'>Fail,<span style='color:red'>Fail,<span style='color:red'>Fail,<span style='color:green'>Lift,<span style='color:red'>Fail,<span style='color:green'>Lift,<span style='color:red'>Fail","<span style='color:red'>Fail,<span style='color:red'>Fail,<span style='color:green'>Lift,<span style='color:green'>Lift,<span style='color:green'>Lift,<span style='color:green'>Lift,<span style='color:red'>Fail,<span style='color:green'>Lift,<span style='color:green'>Lift,<span style='color:green'>Lift,<span style='color:green'>Lift,<span style='color:red'>Fail","<span style='color:red'>Fail,<span style='color:green'>Lift,<span style='color:green'>Lift,<span style='color:red'>Fail,<span style='color:green'>Lift,<span style='color:green'>Lift","0,0,1,1,0,0,0,0,1,0,1,0","0,0,1,1,1,1,0,1,1,1,1,0","0,1,1,0,1,1",10,20,20,"","","","","{""box1"":""50"",""box2"":""50""}","",NA,3,"round2_ready",2,3,2,NA,NA,NA,NA,NA,NA,NA,NA,NA,NA,NA,NA,NA,NA,50,50,50,50,NA,NA,NA,NA,NA,NA,NA,NA,NA,NA,NA,NA,NA,NA,NA,NA,NA,NA,"",NA,NA,NA,NA,NA,NA,NA,NA,2025-11-18 02:23:16
"10686.100000143051","https://psyc-201.github.io/xiang2023/exp/index1.html?PROLIFIC_PID=REDACTED&STUDY_ID=69168b21477cff9ada6cb980&SESSION_ID=691bd46bcdd5e877c02610e6","survey-html-form",46,829270,"0.0-328.0","qqw+6O/bmICv0iLz6CgEWGDcPB0HX5+sUUVykZwRai9KQQRWmombCzTQ/PEttFMWKs/1pNPyEwijxsSbr4jvIAJEg1b6M/Djd6fTKIZAz5pIhl/q6GLnFauyk6V1phG4mUWatPouLx0yV9U/8mT2SmgSRcNzAw+B14aq8jzrYN98bwtX1UVdAr+cIMjFRzmvEo9wq5HArbOBVYp60wnNQWpzEjYCZFgRuv7admnEximdmlMGDWrn4N5BvPU1zCGsxoicHT2NREIymUqiwWT8mPdxlNErN4S7tP/DkymwR8jieLEqG9N0BX2KLmrJyrDkptojsdrOtvgogvej3M5X1g==","69168b21477cff9ada6cb980","691bd46bcdd5e877c02610e6","index1","<span style='color:red'>Fail,<span style='color:red'>Fail,<span style='color:green'>Lift,<span style='color:green'>Lift,<span style='color:red'>Fail,<span style='color:red'>Fail,<span style='color:red'>Fail,<span style='color:red'>Fail,<span style='color:green'>Lift,<span style='color:red'>Fail,<span style='color:green'>Lift,<span style='color:red'>Fail","<span style='color:red'>Fail,<span style='color:red'>Fail,<span style='color:green'>Lift,<span style='color:green'>Lift,<span style='color:green'>Lift,<span style='color:green'>Lift,<span style='color:red'>Fail,<span style='color:green'>Lift,<span style='color:green'>Lift,<span style='color:green'>Lift,<span style='color:green'>Lift,<span style='color:red'>Fail","<span style='color:red'>Fail,<span style='color:green'>Lift,<span style='color:green'>Lift,<span style='color:red'>Fail,<span style='color:green'>Lift,<span style='color:green'>Lift","0,0,1,1,0,0,0,0,1,0,1,0","0,0,1,1,1,1,0,1,1,1,1,0","0,1,1,0,1,1",10,20,20,"","","","","{""box1"":""3"",""box2"":""7"",""box4"":""100""}","",NA,3,"round2_outcome",3,3,2,3,7,NA,100,0,1,20,NA,NA,NA,NA,NA,NA,NA,NA,NA,NA,NA,3,7,NA,100,0,1,20,NA,NA,NA,NA,NA,NA,NA,NA,NA,NA,NA,"",NA,NA,NA,NA,NA,NA,NA,NA,2025-11-18 02:23:16
"4511.299999952316","https://psyc-201.github.io/xiang2023/exp/index1.html?PROLIFIC_PID=REDACTED&STUDY_ID=69168b21477cff9ada6cb980&SESSION_ID=691bd46bcdd5e877c02610e6","survey-html-form",47,833786,"0.0-329.0","qqw+6O/bmICv0iLz6CgEWGDcPB0HX5+sUUVykZwRai9KQQRWmombCzTQ/PEttFMWKs/1pNPyEwijxsSbr4jvIAJEg1b6M/Djd6fTKIZAz5pIhl/q6GLnFauyk6V1phG4mUWatPouLx0yV9U/8mT2SmgSRcNzAw+B14aq8jzrYN98bwtX1UVdAr+cIMjFRzmvEo9wq5HArbOBVYp60wnNQWpzEjYCZFgRuv7admnEximdmlMGDWrn4N5BvPU1zCGsxoicHT2NREIymUqiwWT8mPdxlNErN4S7tP/DkymwR8jieLEqG9N0BX2KLmrJyrDkptojsdrOtvgogvej3M5X1g==","69168b21477cff9ada6cb980","691bd46bcdd5e877c02610e6","index1","<span style='color:red'>Fail,<span style='color:red'>Fail,<span style='color:green'>Lift,<span style='color:green'>Lift,<span style='color:red'>Fail,<span style='color:red'>Fail,<span style='color:red'>Fail,<span style='color:red'>Fail,<span style='color:green'>Lift,<span style='color:red'>Fail,<span style='color:green'>Lift,<span style='color:red'>Fail","<span style='color:red'>Fail,<span style='color:red'>Fail,<span style='color:green'>Lift,<span style='color:green'>Lift,<span style='color:green'>Lift,<span style='color:green'>Lift,<span style='color:red'>Fail,<span style='color:green'>Lift,<span style='color:green'>Lift,<span style='color:green'>Lift,<span style='color:green'>Lift,<span style='color:red'>Fail","<span style='color:red'>Fail,<span style='color:green'>Lift,<span style='color:green'>Lift,<span style='color:red'>Fail,<span style='color:green'>Lift,<span style='color:green'>Lift","0,0,1,1,0,0,0,0,1,0,1,0","0,0,1,1,1,1,0,1,1,1,1,0","0,1,1,0,1,1",10,20,20,"","","","","{""box1"":""80""}","",NA,3,"round3_ready",4,3,3,NA,NA,NA,NA,NA,NA,NA,NA,NA,NA,NA,NA,NA,NA,80,80,NA,NA,NA,NA,NA,NA,NA,NA,NA,80,80,NA,NA,NA,NA,NA,NA,NA,NA,NA,"",NA,NA,NA,NA,NA,NA,NA,NA,2025-11-18 02:23:16
"19554.099999904633","https://psyc-201.github.io/xiang2023/exp/index1.html?PROLIFIC_PID=REDACTED&STUDY_ID=69168b21477cff9ada6cb980&SESSION_ID=691bd46bcdd5e877c02610e6","survey-html-form",48,853345,"0.0-331.0-0.0","qqw+6O/bmICv0iLz6CgEWGDcPB0HX5+sUUVykZwRai9KQQRWmombCzTQ/PEttFMWKs/1pNPyEwijxsSbr4jvIAJEg1b6M/Djd6fTKIZAz5pIhl/q6GLnFauyk6V1phG4mUWatPouLx0yV9U/8mT2SmgSRcNzAw+B14aq8jzrYN98bwtX1UVdAr+cIMjFRzmvEo9wq5HArbOBVYp60wnNQWpzEjYCZFgRuv7admnEximdmlMGDWrn4N5BvPU1zCGsxoicHT2NREIymUqiwWT8mPdxlNErN4S7tP/DkymwR8jieLEqG9N0BX2KLmrJyrDkptojsdrOtvgogvej3M5X1g==","69168b21477cff9ada6cb980","691bd46bcdd5e877c02610e6","index1","<span style='color:red'>Fail,<span style='color:red'>Fail,<span style='color:green'>Lift,<span style='color:green'>Lift,<span style='color:red'>Fail,<span style='color:red'>Fail,<span style='color:red'>Fail,<span style='color:red'>Fail,<span style='color:green'>Lift,<span style='color:red'>Fail,<span style='color:green'>Lift,<span style='color:red'>Fail","<span style='color:red'>Fail,<span style='color:red'>Fail,<span style='color:green'>Lift,<span style='color:green'>Lift,<span style='color:green'>Lift,<span style='color:green'>Lift,<span style='color:red'>Fail,<span style='color:green'>Lift,<span style='color:green'>Lift,<span style='color:green'>Lift,<span style='color:green'>Lift,<span style='color:red'>Fail","<span style='color:red'>Fail,<span style='color:green'>Lift,<span style='color:green'>Lift,<span style='color:red'>Fail,<span style='color:green'>Lift,<span style='color:green'>Lift","0,0,1,1,0,0,0,0,1,0,1,0","0,0,1,1,1,1,0,1,1,1,1,0","0,1,1,0,1,1",10,20,20,"","","","","{""box1"":""3"",""box2"":""5"",""box3"":""999"",""box4"":""999""}","",NA,4,"round3_fail",5,3,3,3,5,NA,NA,0,0,20,NA,NA,NA,NA,NA,NA,NA,NA,NA,NA,NA,NA,NA,NA,NA,NA,NA,NA,NA,NA,3,5,NA,NA,0,0,20,1,1,"",NA,NA,NA,NA,NA,NA,NA,NA,2025-11-18 02:23:16
"null","https://psyc-201.github.io/xiang2023/exp/index1.html?PROLIFIC_PID=REDACTED&STUDY_ID=69168b21477cff9ada6cb980&SESSION_ID=691bd46bcdd5e877c02610e6","html-keyboard-response",49,856367,"0.0-334.0","qqw+6O/bmICv0iLz6CgEWGDcPB0HX5+sUUVykZwRai9KQQRWmombCzTQ/PEttFMWKs/1pNPyEwijxsSbr4jvIAJEg1b6M/Djd6fTKIZAz5pIhl/q6GLnFauyk6V1phG4mUWatPouLx0yV9U/8mT2SmgSRcNzAw+B14aq8jzrYN98bwtX1UVdAr+cIMjFRzmvEo9wq5HArbOBVYp60wnNQWpzEjYCZFgRuv7admnEximdmlMGDWrn4N5BvPU1zCGsxoicHT2NREIymUqiwWT8mPdxlNErN4S7tP/DkymwR8jieLEqG9N0BX2KLmrJyrDkptojsdrOtvgogvej3M5X1g==","69168b21477cff9ada6cb980","691bd46bcdd5e877c02610e6","index1","<span style='color:red'>Fail,<span style='color:red'>Fail,<span style='color:green'>Lift,<span style='color:green'>Lift,<span style='color:red'>Fail,<span style='color:red'>Fail,<span style='color:red'>Fail,<span style='color:red'>Fail,<span style='color:green'>Lift,<span style='color:red'>Fail,<span style='color:green'>Lift,<span style='color:red'>Fail","<span style='color:red'>Fail,<span style='color:red'>Fail,<span style='color:green'>Lift,<span style='color:green'>Lift,<span style='color:green'>Lift,<span style='color:green'>Lift,<span style='color:red'>Fail,<span style='color:green'>Lift,<span style='color:green'>Lift,<span style='color:green'>Lift,<span style='color:green'>Lift,<span style='color:red'>Fail","<span style='color:red'>Fail,<span style='color:green'>Lift,<span style='color:green'>Lift,<span style='color:red'>Fail,<span style='color:green'>Lift,<span style='color:green'>Lift","0,0,1,1,0,0,0,0,1,0,1,0","0,0,1,1,1,1,0,1,1,1,1,0","0,1,1,0,1,1",10,20,20,"","","<p style='font-size:30px'><b> New Contest! </b></p>","null","","",NA,4,"",NA,NA,NA,NA,NA,NA,NA,NA,NA,NA,NA,NA,NA,NA,NA,NA,NA,NA,NA,NA,NA,NA,NA,NA,NA,NA,NA,NA,NA,NA,NA,NA,NA,NA,NA,NA,NA,NA,NA,"",NA,NA,NA,NA,NA,NA,NA,NA,2025-11-18 02:23:16
"8169.400000095367","https://psyc-201.github.io/xiang2023/exp/index1.html?PROLIFIC_PID=REDACTED&STUDY_ID=69168b21477cff9ada6cb980&SESSION_ID=691bd46bcdd5e877c02610e6","survey-html-form",50,864539,"0.0-335.0","qqw+6O/bmICv0iLz6CgEWGDcPB0HX5+sUUVykZwRai9KQQRWmombCzTQ/PEttFMWKs/1pNPyEwijxsSbr4jvIAJEg1b6M/Djd6fTKIZAz5pIhl/q6GLnFauyk6V1phG4mUWatPouLx0yV9U/8mT2SmgSRcNzAw+B14aq8jzrYN98bwtX1UVdAr+cIMjFRzmvEo9wq5HArbOBVYp60wnNQWpzEjYCZFgRuv7admnEximdmlMGDWrn4N5BvPU1zCGsxoicHT2NREIymUqiwWT8mPdxlNErN4S7tP/DkymwR8jieLEqG9N0BX2KLmrJyrDkptojsdrOtvgogvej3M5X1g==","69168b21477cff9ada6cb980","691bd46bcdd5e877c02610e6","index1","<span style='color:red'>Fail,<span style='color:red'>Fail,<span style='color:green'>Lift,<span style='color:green'>Lift,<span style='color:red'>Fail,<span style='color:red'>Fail,<span style='color:red'>Fail,<span style='color:red'>Fail,<span style='color:green'>Lift,<span style='color:red'>Fail,<span style='color:green'>Lift,<span style='color:red'>Fail","<span style='color:red'>Fail,<span style='color:red'>Fail,<span style='color:green'>Lift,<span style='color:green'>Lift,<span style='color:green'>Lift,<span style='color:green'>Lift,<span style='color:red'>Fail,<span style='color:green'>Lift,<span style='color:green'>Lift,<span style='color:green'>Lift,<span style='color:green'>Lift,<span style='color:red'>Fail","<span style='color:red'>Fail,<span style='color:green'>Lift,<span style='color:green'>Lift,<span style='color:red'>Fail,<span style='color:green'>Lift,<span style='color:green'>Lift","0,0,1,1,0,0,0,0,1,0,1,0","0,0,1,1,1,1,0,1,1,1,1,0","0,1,1,0,1,1",10,20,20,"","","","","{""box1"":""3"",""box2"":""3""}","",NA,4,"round1_outcome",1,4,1,3,3,NA,NA,0,0,10,3,3,NA,NA,0,0,10,NA,NA,NA,NA,NA,NA,NA,NA,NA,NA,NA,NA,NA,NA,NA,NA,NA,NA,NA,NA,NA,NA,"",NA,NA,NA,NA,NA,NA,NA,NA,2025-11-18 02:23:16
