"rt","url","trial_type","trial_index","time_elapsed","internal_node_id","encryptedProlificId","studyId","sessionId","expIndex","round1_outcomes","round2_outcomes","round3_outcomes","round1_o","round2_o","round3_o","round1_reward","round2_reward","round3_reward","success","view_history","stimulus","key_press","responses","question_order","button_pressed","j","Stage","stage","contest","round","strength_a","strength_b","effort_a","effort_b","outcome_a","outcome_b","reward","r1_strength_a","r1_strength_b","r1_effort_a","r1_effort_b","r1_outcome_a","r1_outcome_b","r1_reward","probability_a","probability_b","r2_prob_a","r2_prob_b","r2_strength_a","r2_strength_b","r2_effort_a","r2_effort_b","r2_outcome_a","r2_outcome_b","r2_reward","r3_prob_a","r3_prob_b","r3_strength_a","r3_strength_b","r3_effort_a","r3_effort_b","r3_outcome_a","r3_outcome_b","r3_reward","attention_check","count","screen","pick_contest","pick_round","pick_side","trial_probability","trial_outcome","bonus","attention_sum","attention","datapipe_meta.attributes.date_modified"
"4734.10000000149","https://psyc-201.github.io/xiang2023/exp/index1.html?PROLIFIC_PID=REDACTED&STUDY_ID=69168b21477cff9ada6cb980&SESSION_ID=691bd3a2cfac43e7aebac1ec","external-html",0,4787,"0.0-0.0","Z4cBGxLmWFUpYAGMyvMU6anEwIw7Gsys6d2QUGTJYrtS1mXGJqxPxFEJlRqbQX9M4qYkM5Qo4MK8sP7MCs6uVBf+9A3zJFze4Xw8XxlqXGAdSKhDw1cOb48tvBYhHRD6uhNhRguYlQ73ni2YvzYStHHRoMR4EuTzjFpA4eeTFBdPie1Ibmqef1hivNl3eqGkkbTJk9O34PY3CcmxHYZ72C/f06X6TVB8+ZUzRVrg8iQkO7XyBHXp+d4SXNb3younzY991T1TnC1NGh6UmeRhifdFSXyrBBvBtJZ3mahRa21rDmThr71V5dm6ChAHmtvya6c3zMM7kQ7CL26+a6GplQ==","69168b21477cff9ada6cb980","691bd3a2cfac43e7aebac1ec","index1","<span style='color:red'>Fail,<span style='color:red'>Fail,<span style='color:green'>Lift,<span style='color:green'>Lift,<span style='color:red'>Fail,<span style='color:red'>Fail,<span style='color:red'>Fail,<span style='color:red'>Fail,<span style='color:green'>Lift,<span style='color:red'>Fail,<span style='color:green'>Lift,<span style='color:red'>Fail","<span style='color:red'>Fail,<span style='color:red'>Fail,<span style='color:green'>Lift,<span style='color:green'>Lift,<span style='color:green'>Lift,<span style='color:green'>Lift,<span style='color:red'>Fail,<span style='color:green'>Lift,<span style='color:green'>Lift,<span style='color:green'>Lift,<span style='color:green'>Lift,<span style='color:red'>Fail","<span style='color:red'>Fail,<span style='color:green'>Lift,<span style='color:green'>Lift,<span style='color:red'>Fail,<span style='color:green'>Lift,<span style='color:green'>Lift","0,0,1,1,0,0,0,0,1,0,1,0","0,0,1,1,1,1,0,1,1,1,1,0","0,1,1,0,1,1",10,20,20,"","","","","","",NA,NA,"",NA,NA,NA,NA,NA,NA,NA,NA,NA,NA,NA,NA,NA,NA,NA,NA,NA,NA,NA,NA,NA,NA,NA,NA,NA,NA,NA,NA,NA,NA,NA,NA,NA,NA,NA,NA,NA,NA,NA,"",NA,NA,NA,NA,NA,NA,NA,NA,2025-11-18 02:20:56
"","https://psyc-201.github.io/xiang2023/exp/index1.html?PROLIFIC_PID=REDACTED&STUDY_ID=69168b21477cff9ada6cb980&SESSION_ID=691bd3a2cfac43e7aebac1ec","fullscreen",1,9052,"0.0-1.0","Z4cBGxLmWFUpYAGMyvMU6anEwIw7Gsys6d2QUGTJYrtS1mXGJqxPxFEJlRqbQX9M4qYkM5Qo4MK8sP7MCs6uVBf+9A3zJFze4Xw8XxlqXGAdSKhDw1cOb48tvBYhHRD6uhNhRguYlQ73ni2YvzYStHHRoMR4EuTzjFpA4eeTFBdPie1Ibmqef1hivNl3eqGkkbTJk9O34PY3CcmxHYZ72C/f06X6TVB8+ZUzRVrg8iQkO7XyBHXp+d4SXNb3younzY991T1TnC1NGh6UmeRhifdFSXyrBBvBtJZ3mahRa21rDmThr71V5dm6ChAHmtvya6c3zMM7kQ7CL26+a6GplQ==","69168b21477cff9ada6cb980","691bd3a2cfac43e7aebac1ec","index1","<span style='color:red'>Fail,<span style='color:red'>Fail,<span style='color:green'>Lift,<span style='color:green'>Lift,<span style='color:red'>Fail,<span style='color:red'>Fail,<span style='color:red'>Fail,<span style='color:red'>Fail,<span style='color:green'>Lift,<span style='color:red'>Fail,<span style='color:green'>Lift,<span style='color:red'>Fail","<span style='color:red'>Fail,<span style='color:red'>Fail,<span style='color:green'>Lift,<span style='color:green'>Lift,<span style='color:green'>Lift,<span style='color:green'>Lift,<span style='color:red'>Fail,<span style='color:green'>Lift,<span style='color:green'>Lift,<span style='color:green'>Lift,<span style='color:green'>Lift,<span style='color:red'>Fail","<span style='color:red'>Fail,<span style='color:green'>Lift,<span style='color:green'>Lift,<span style='color:red'>Fail,<span style='color:green'>Lift,<span style='color:green'>Lift","0,0,1,1,0,0,0,0,1,0,1,0","0,0,1,1,1,1,0,1,1,1,1,0","0,1,1,0,1,1",10,20,20,"true","","","","","",NA,NA,"",NA,NA,NA,NA,NA,NA,NA,NA,NA,NA,NA,NA,NA,NA,NA,NA,NA,NA,NA,NA,NA,NA,NA,NA,NA,NA,NA,NA,NA,NA,NA,NA,NA,NA,NA,NA,NA,NA,NA,"",NA,NA,NA,NA,NA,NA,NA,NA,2025-11-18 02:20:56
"224903.90000000596","https://psyc-201.github.io/xiang2023/exp/index1.html?PROLIFIC_PID=REDACTED&STUDY_ID=69168b21477cff9ada6cb980&SESSION_ID=691bd3a2cfac43e7aebac1ec","instructions",2,233957,"0.0-2.0","Z4cBGxLmWFUpYAGMyvMU6anEwIw7Gsys6d2QUGTJYrtS1mXGJqxPxFEJlRqbQX9M4qYkM5Qo4MK8sP7MCs6uVBf+9A3zJFze4Xw8XxlqXGAdSKhDw1cOb48tvBYhHRD6uhNhRguYlQ73ni2YvzYStHHRoMR4EuTzjFpA4eeTFBdPie1Ibmqef1hivNl3eqGkkbTJk9O34PY3CcmxHYZ72C/f06X6TVB8+ZUzRVrg8iQkO7XyBHXp+d4SXNb3younzY991T1TnC1NGh6UmeRhifdFSXyrBBvBtJZ3mahRa21rDmThr71V5dm6ChAHmtvya6c3zMM7kQ7CL26+a6GplQ==","69168b21477cff9ada6cb980","691bd3a2cfac43e7aebac1ec","index1","<span style='color:red'>Fail,<span style='color:red'>Fail,<span style='color:green'>Lift,<span style='color:green'>Lift,<span style='color:red'>Fail,<span style='color:red'>Fail,<span style='color:red'>Fail,<span style='color:red'>Fail,<span style='color:green'>Lift,<span style='color:red'>Fail,<span style='color:green'>Lift,<span style='color:red'>Fail","<span style='color:red'>Fail,<span style='color:red'>Fail,<span style='color:green'>Lift,<span style='color:green'>Lift,<span style='color:green'>Lift,<span style='color:green'>Lift,<span style='color:red'>Fail,<span style='color:green'>Lift,<span style='color:green'>Lift,<span style='color:green'>Lift,<span style='color:green'>Lift,<span style='color:red'>Fail","<span style='color:red'>Fail,<span style='color:green'>Lift,<span style='color:green'>Lift,<span style='color:red'>Fail,<span style='color:green'>Lift,<span style='color:green'>Lift","0,0,1,1,0,0,0,0,1,0,1,0","0,0,1,1,1,1,0,1,1,1,1,0","0,1,1,0,1,1",10,20,20,"","[{""page_index"":0,""viewing_time"":41318.70000000298},{""page_index"":1,""viewing_time"":45767.10000000149},{""page_index"":2,""viewing_time"":19579.89999999851},{""page_index"":3,""viewing_time"":56160.89999999851},{""page_index"":4,""viewing_time"":18336},{""page_index"":5,""viewing_time"":35623},{""page_index"":6,""viewing_time"":8118}]","","","","",NA,NA,"",NA,NA,NA,NA,NA,NA,NA,NA,NA,NA,NA,NA,NA,NA,NA,NA,NA,NA,NA,NA,NA,NA,NA,NA,NA,NA,NA,NA,NA,NA,NA,NA,NA,NA,NA,NA,NA,NA,NA,"",NA,NA,NA,NA,NA,NA,NA,NA,2025-11-18 02:20:56
"null","https://psyc-201.github.io/xiang2023/exp/index1.html?PROLIFIC_PID=REDACTED&STUDY_ID=69168b21477cff9ada6cb980&SESSION_ID=691bd3a2cfac43e7aebac1ec","html-keyboard-response",3,234969,"0.0-3.0","Z4cBGxLmWFUpYAGMyvMU6anEwIw7Gsys6d2QUGTJYrtS1mXGJqxPxFEJlRqbQX9M4qYkM5Qo4MK8sP7MCs6uVBf+9A3zJFze4Xw8XxlqXGAdSKhDw1cOb48tvBYhHRD6uhNhRguYlQ73ni2YvzYStHHRoMR4EuTzjFpA4eeTFBdPie1Ibmqef1hivNl3eqGkkbTJk9O34PY3CcmxHYZ72C/f06X6TVB8+ZUzRVrg8iQkO7XyBHXp+d4SXNb3younzY991T1TnC1NGh6UmeRhifdFSXyrBBvBtJZ3mahRa21rDmThr71V5dm6ChAHmtvya6c3zMM7kQ7CL26+a6GplQ==","69168b21477cff9ada6cb980","691bd3a2cfac43e7aebac1ec","index1","<span style='color:red'>Fail,<span style='color:red'>Fail,<span style='color:green'>Lift,<span style='color:green'>Lift,<span style='color:red'>Fail,<span style='color:red'>Fail,<span style='color:red'>Fail,<span style='color:red'>Fail,<span style='color:green'>Lift,<span style='color:red'>Fail,<span style='color:green'>Lift,<span style='color:red'>Fail","<span style='color:red'>Fail,<span style='color:red'>Fail,<span style='color:green'>Lift,<span style='color:green'>Lift,<span style='color:green'>Lift,<span style='color:green'>Lift,<span style='color:red'>Fail,<span style='color:green'>Lift,<span style='color:green'>Lift,<span style='color:green'>Lift,<span style='color:green'>Lift,<span style='color:red'>Fail","<span style='color:red'>Fail,<span style='color:green'>Lift,<span style='color:green'>Lift,<span style='color:red'>Fail,<span style='color:green'>Lift,<span style='color:green'>Lift","0,0,1,1,0,0,0,0,1,0,1,0","0,0,1,1,1,1,0,1,1,1,1,0","0,1,1,0,1,1",10,20,20,"",""," ","null","","",NA,NA,"",NA,NA,NA,NA,NA,NA,NA,NA,NA,NA,NA,NA,NA,NA,NA,NA,NA,NA,NA,NA,NA,NA,NA,NA,NA,NA,NA,NA,NA,NA,NA,NA,NA,NA,NA,NA,NA,NA,NA,"",NA,NA,NA,NA,NA,NA,NA,NA,2025-11-18 02:20:56
"107480","https://psyc-201.github.io/xiang2023/exp/index1.html?PROLIFIC_PID=REDACTED&STUDY_ID=69168b21477cff9ada6cb980&SESSION_ID=691bd3a2cfac43e7aebac1ec","survey-multi-choice",4,342450,"0.0-4.0","Z4cBGxLmWFUpYAGMyvMU6anEwIw7Gsys6d2QUGTJYrtS1mXGJqxPxFEJlRqbQX9M4qYkM5Qo4MK8sP7MCs6uVBf+9A3zJFze4Xw8XxlqXGAdSKhDw1cOb48tvBYhHRD6uhNhRguYlQ73ni2YvzYStHHRoMR4EuTzjFpA4eeTFBdPie1Ibmqef1hivNl3eqGkkbTJk9O34PY3CcmxHYZ72C/f06X6TVB8+ZUzRVrg8iQkO7XyBHXp+d4SXNb3younzY991T1TnC1NGh6UmeRhifdFSXyrBBvBtJZ3mahRa21rDmThr71V5dm6ChAHmtvya6c3zMM7kQ7CL26+a6GplQ==","69168b21477cff9ada6cb980","691bd3a2cfac43e7aebac1ec","index1","<span style='color:red'>Fail,<span style='color:red'>Fail,<span style='color:green'>Lift,<span style='color:green'>Lift,<span style='color:red'>Fail,<span style='color:red'>Fail,<span style='color:red'>Fail,<span style='color:red'>Fail,<span style='color:green'>Lift,<span style='color:red'>Fail,<span style='color:green'>Lift,<span style='color:red'>Fail","<span style='color:red'>Fail,<span style='color:red'>Fail,<span style='color:green'>Lift,<span style='color:green'>Lift,<span style='color:green'>Lift,<span style='color:green'>Lift,<span style='color:red'>Fail,<span style='color:green'>Lift,<span style='color:green'>Lift,<span style='color:green'>Lift,<span style='color:green'>Lift,<span style='color:red'>Fail","<span style='color:red'>Fail,<span style='color:green'>Lift,<span style='color:green'>Lift,<span style='color:red'>Fail,<span style='color:green'>Lift,<span style='color:green'>Lift","0,0,1,1,0,0,0,0,1,0,1,0","0,0,1,1,1,1,0,1,1,1,1,0","0,1,1,0,1,1",10,20,20,"","","","","{""Q0"":""It consists of multiple contests, each contest with three rounds."",""Q1"":""When a new contest begins."",""Q2"":""The box weight always stays the same (equivalent to strength of 5)."",""Q3"":""They will split the $20, that is $10 for each."",""Q4"":""How close my guesses are to the actual outcome.""}","[0,1,2,3,4]",NA,NA,"",NA,NA,NA,NA,NA,NA,NA,NA,NA,NA,NA,NA,NA,NA,NA,NA,NA,NA,NA,NA,NA,NA,NA,NA,NA,NA,NA,NA,NA,NA,NA,NA,NA,NA,NA,NA,NA,NA,NA,"",NA,NA,NA,NA,NA,NA,NA,NA,2025-11-18 02:20:56
"3156.8000000044703","https://psyc-201.github.io/xiang2023/exp/index1.html?PROLIFIC_PID=REDACTED&STUDY_ID=69168b21477cff9ada6cb980&SESSION_ID=691bd3a2cfac43e7aebac1ec","html-button-response",5,345608,"0.0-5.0-0.0","Z4cBGxLmWFUpYAGMyvMU6anEwIw7Gsys6d2QUGTJYrtS1mXGJqxPxFEJlRqbQX9M4qYkM5Qo4MK8sP7MCs6uVBf+9A3zJFze4Xw8XxlqXGAdSKhDw1cOb48tvBYhHRD6uhNhRguYlQ73ni2YvzYStHHRoMR4EuTzjFpA4eeTFBdPie1Ibmqef1hivNl3eqGkkbTJk9O34PY3CcmxHYZ72C/f06X6TVB8+ZUzRVrg8iQkO7XyBHXp+d4SXNb3younzY991T1TnC1NGh6UmeRhifdFSXyrBBvBtJZ3mahRa21rDmThr71V5dm6ChAHmtvya6c3zMM7kQ7CL26+a6GplQ==","69168b21477cff9ada6cb980","691bd3a2cfac43e7aebac1ec","index1","<span style='color:red'>Fail,<span style='color:red'>Fail,<span style='color:green'>Lift,<span style='color:green'>Lift,<span style='color:red'>Fail,<span style='color:red'>Fail,<span style='color:red'>Fail,<span style='color:red'>Fail,<span style='color:green'>Lift,<span style='color:red'>Fail,<span style='color:green'>Lift,<span style='color:red'>Fail","<span style='color:red'>Fail,<span style='color:red'>Fail,<span style='color:green'>Lift,<span style='color:green'>Lift,<span style='color:green'>Lift,<span style='color:green'>Lift,<span style='color:red'>Fail,<span style='color:green'>Lift,<span style='color:green'>Lift,<span style='color:green'>Lift,<span style='color:green'>Lift,<span style='color:red'>Fail","<span style='color:red'>Fail,<span style='color:green'>Lift,<span style='color:green'>Lift,<span style='color:red'>Fail,<span style='color:green'>Lift,<span style='color:green'>Lift","0,0,1,1,0,0,0,0,1,0,1,0","0,0,1,1,1,1,0,1,1,1,1,0","0,1,1,0,1,1",10,20,20,"","","<p> Oops! You did not pass the comprehension check.</p>","","","",1,NA,"",NA,NA,NA,NA,NA,NA,NA,NA,NA,NA,NA,NA,NA,NA,NA,NA,NA,NA,NA,NA,NA,NA,NA,NA,NA,NA,NA,NA,NA,NA,NA,NA,NA,NA,NA,NA,NA,NA,NA,"",NA,NA,NA,NA,NA,NA,NA,NA,2025-11-18 02:20:56
"102989.10000000149","https://psyc-201.github.io/xiang2023/exp/index1.html?PROLIFIC_PID=REDACTED&STUDY_ID=69168b21477cff9ada6cb980&SESSION_ID=691bd3a2cfac43e7aebac1ec","instructions",6,448598,"0.0-6.0-0.0","Z4cBGxLmWFUpYAGMyvMU6anEwIw7Gsys6d2QUGTJYrtS1mXGJqxPxFEJlRqbQX9M4qYkM5Qo4MK8sP7MCs6uVBf+9A3zJFze4Xw8XxlqXGAdSKhDw1cOb48tvBYhHRD6uhNhRguYlQ73ni2YvzYStHHRoMR4EuTzjFpA4eeTFBdPie1Ibmqef1hivNl3eqGkkbTJk9O34PY3CcmxHYZ72C/f06X6TVB8+ZUzRVrg8iQkO7XyBHXp+d4SXNb3younzY991T1TnC1NGh6UmeRhifdFSXyrBBvBtJZ3mahRa21rDmThr71V5dm6ChAHmtvya6c3zMM7kQ7CL26+a6GplQ==","69168b21477cff9ada6cb980","691bd3a2cfac43e7aebac1ec","index1","<span style='color:red'>Fail,<span style='color:red'>Fail,<span style='color:green'>Lift,<span style='color:green'>Lift,<span style='color:red'>Fail,<span style='color:red'>Fail,<span style='color:red'>Fail,<span style='color:red'>Fail,<span style='color:green'>Lift,<span style='color:red'>Fail,<span style='color:green'>Lift,<span style='color:red'>Fail","<span style='color:red'>Fail,<span style='color:red'>Fail,<span style='color:green'>Lift,<span style='color:green'>Lift,<span style='color:green'>Lift,<span style='color:green'>Lift,<span style='color:red'>Fail,<span style='color:green'>Lift,<span style='color:green'>Lift,<span style='color:green'>Lift,<span style='color:green'>Lift,<span style='color:red'>Fail","<span style='color:red'>Fail,<span style='color:green'>Lift,<span style='color:green'>Lift,<span style='color:red'>Fail,<span style='color:green'>Lift,<span style='color:green'>Lift","0,0,1,1,0,0,0,0,1,0,1,0","0,0,1,1,1,1,0,1,1,1,1,0","0,1,1,0,1,1",10,20,20,"","[{""page_index"":0,""viewing_time"":58605},{""page_index"":1,""viewing_time"":3366},{""page_index"":2,""viewing_time"":14359.89999999851},{""page_index"":3,""viewing_time"":4804.89999999851},{""page_index"":4,""viewing_time"":3194},{""page_index"":5,""viewing_time"":17112},{""page_index"":6,""viewing_time"":1547.1000000014901}]","","","","",NA,NA,"",NA,NA,NA,NA,NA,NA,NA,NA,NA,NA,NA,NA,NA,NA,NA,NA,NA,NA,NA,NA,NA,NA,NA,NA,NA,NA,NA,NA,NA,NA,NA,NA,NA,NA,NA,NA,NA,NA,NA,"",NA,NA,NA,NA,NA,NA,NA,NA,2025-11-18 02:20:56
"null","https://psyc-201.github.io/xiang2023/exp/index1.html?PROLIFIC_PID=REDACTED&STUDY_ID=69168b21477cff9ada6cb980&SESSION_ID=691bd3a2cfac43e7aebac1ec","html-keyboard-response",7,449600,"0.0-6.0-1.0","Z4cBGxLmWFUpYAGMyvMU6anEwIw7Gsys6d2QUGTJYrtS1mXGJqxPxFEJlRqbQX9M4qYkM5Qo4MK8sP7MCs6uVBf+9A3zJFze4Xw8XxlqXGAdSKhDw1cOb48tvBYhHRD6uhNhRguYlQ73ni2YvzYStHHRoMR4EuTzjFpA4eeTFBdPie1Ibmqef1hivNl3eqGkkbTJk9O34PY3CcmxHYZ72C/f06X6TVB8+ZUzRVrg8iQkO7XyBHXp+d4SXNb3younzY991T1TnC1NGh6UmeRhifdFSXyrBBvBtJZ3mahRa21rDmThr71V5dm6ChAHmtvya6c3zMM7kQ7CL26+a6GplQ==","69168b21477cff9ada6cb980","691bd3a2cfac43e7aebac1ec","index1","<span style='color:red'>Fail,<span style='color:red'>Fail,<span style='color:green'>Lift,<span style='color:green'>Lift,<span style='color:red'>Fail,<span style='color:red'>Fail,<span style='color:red'>Fail,<span style='color:red'>Fail,<span style='color:green'>Lift,<span style='color:red'>Fail,<span style='color:green'>Lift,<span style='color:red'>Fail","<span style='color:red'>Fail,<span style='color:red'>Fail,<span style='color:green'>Lift,<span style='color:green'>Lift,<span style='color:green'>Lift,<span style='color:green'>Lift,<span style='color:red'>Fail,<span style='color:green'>Lift,<span style='color:green'>Lift,<span style='color:green'>Lift,<span style='color:green'>Lift,<span style='color:red'>Fail","<span style='color:red'>Fail,<span style='color:green'>Lift,<span style='color:green'>Lift,<span style='color:red'>Fail,<span style='color:green'>Lift,<span style='color:green'>Lift","0,0,1,1,0,0,0,0,1,0,1,0","0,0,1,1,1,1,0,1,1,1,1,0","0,1,1,0,1,1",10,20,20,"",""," ","null","","",NA,NA,"",NA,NA,NA,NA,NA,NA,NA,NA,NA,NA,NA,NA,NA,NA,NA,NA,NA,NA,NA,NA,NA,NA,NA,NA,NA,NA,NA,NA,NA,NA,NA,NA,NA,NA,NA,NA,NA,NA,NA,"",NA,NA,NA,NA,NA,NA,NA,NA,2025-11-18 02:20:56
"41278.40000000596","https://psyc-201.github.io/xiang2023/exp/index1.html?PROLIFIC_PID=REDACTED&STUDY_ID=69168b21477cff9ada6cb980&SESSION_ID=691bd3a2cfac43e7aebac1ec","survey-multi-choice",8,490880,"0.0-7.0-0.0","Z4cBGxLmWFUpYAGMyvMU6anEwIw7Gsys6d2QUGTJYrtS1mXGJqxPxFEJlRqbQX9M4qYkM5Qo4MK8sP7MCs6uVBf+9A3zJFze4Xw8XxlqXGAdSKhDw1cOb48tvBYhHRD6uhNhRguYlQ73ni2YvzYStHHRoMR4EuTzjFpA4eeTFBdPie1Ibmqef1hivNl3eqGkkbTJk9O34PY3CcmxHYZ72C/f06X6TVB8+ZUzRVrg8iQkO7XyBHXp+d4SXNb3younzY991T1TnC1NGh6UmeRhifdFSXyrBBvBtJZ3mahRa21rDmThr71V5dm6ChAHmtvya6c3zMM7kQ7CL26+a6GplQ==","69168b21477cff9ada6cb980","691bd3a2cfac43e7aebac1ec","index1","<span style='color:red'>Fail,<span style='color:red'>Fail,<span style='color:green'>Lift,<span style='color:green'>Lift,<span style='color:red'>Fail,<span style='color:red'>Fail,<span style='color:red'>Fail,<span style='color:red'>Fail,<span style='color:green'>Lift,<span style='color:red'>Fail,<span style='color:green'>Lift,<span style='color:red'>Fail","<span style='color:red'>Fail,<span style='color:red'>Fail,<span style='color:green'>Lift,<span style='color:green'>Lift,<span style='color:green'>Lift,<span style='color:green'>Lift,<span style='color:red'>Fail,<span style='color:green'>Lift,<span style='color:green'>Lift,<span style='color:green'>Lift,<span style='color:green'>Lift,<span style='color:red'>Fail","<span style='color:red'>Fail,<span style='color:green'>Lift,<span style='color:green'>Lift,<span style='color:red'>Fail,<span style='color:green'>Lift,<span style='color:green'>Lift","0,0,1,1,0,0,0,0,1,0,1,0","0,0,1,1,1,1,0,1,1,1,1,0","0,1,1,0,1,1",10,20,20,"","","","","{""Q0"":""It consists of multiple contests, each contest with three rounds."",""Q1"":""When a new contest begins."",""Q2"":""The box weight always stays the same (equivalent to strength of 5)."",""Q3"":""Each will get $20."",""Q4"":""How close my guesses are to the actual outcome.""}","[0,1,2,3,4]",NA,NA,"",NA,NA,NA,NA,NA,NA,NA,NA,NA,NA,NA,NA,NA,NA,NA,NA,NA,NA,NA,NA,NA,NA,NA,NA,NA,NA,NA,NA,NA,NA,NA,NA,NA,NA,NA,NA,NA,NA,NA,"",NA,NA,NA,NA,NA,NA,NA,NA,2025-11-18 02:20:56
"32588.5","https://psyc-201.github.io/xiang2023/exp/index1.html?PROLIFIC_PID=REDACTED&STUDY_ID=69168b21477cff9ada6cb980&SESSION_ID=691bd3a2cfac43e7aebac1ec","instructions",9,523472,"0.0-305.0","Z4cBGxLmWFUpYAGMyvMU6anEwIw7Gsys6d2QUGTJYrtS1mXGJqxPxFEJlRqbQX9M4qYkM5Qo4MK8sP7MCs6uVBf+9A3zJFze4Xw8XxlqXGAdSKhDw1cOb48tvBYhHRD6uhNhRguYlQ73ni2YvzYStHHRoMR4EuTzjFpA4eeTFBdPie1Ibmqef1hivNl3eqGkkbTJk9O34PY3CcmxHYZ72C/f06X6TVB8+ZUzRVrg8iQkO7XyBHXp+d4SXNb3younzY991T1TnC1NGh6UmeRhifdFSXyrBBvBtJZ3mahRa21rDmThr71V5dm6ChAHmtvya6c3zMM7kQ7CL26+a6GplQ==","69168b21477cff9ada6cb980","691bd3a2cfac43e7aebac1ec","index1","<span style='color:red'>Fail,<span style='color:red'>Fail,<span style='color:green'>Lift,<span style='color:green'>Lift,<span style='color:red'>Fail,<span style='color:red'>Fail,<span style='color:red'>Fail,<span style='color:red'>Fail,<span style='color:green'>Lift,<span style='color:red'>Fail,<span style='color:green'>Lift,<span style='color:red'>Fail","<span style='color:red'>Fail,<span style='color:red'>Fail,<span style='color:green'>Lift,<span style='color:green'>Lift,<span style='color:green'>Lift,<span style='color:green'>Lift,<span style='color:red'>Fail,<span style='color:green'>Lift,<span style='color:green'>Lift,<span style='color:green'>Lift,<span style='color:green'>Lift,<span style='color:red'>Fail","<span style='color:red'>Fail,<span style='color:green'>Lift,<span style='color:green'>Lift,<span style='color:red'>Fail,<span style='color:green'>Lift,<span style='color:green'>Lift","0,0,1,1,0,0,0,0,1,0,1,0","0,0,1,1,1,1,0,1,1,1,1,0","0,1,1,0,1,1",10,20,20,"","[{""page_index"":0,""viewing_time"":18742.5},{""page_index"":1,""viewing_time"":13845.89999999851}]","","","","",NA,NA,"",NA,NA,NA,NA,NA,NA,NA,NA,NA,NA,NA,NA,NA,NA,NA,NA,NA,NA,NA,NA,NA,NA,NA,NA,NA,NA,NA,NA,NA,NA,NA,NA,NA,NA,NA,NA,NA,NA,NA,"",NA,NA,NA,NA,NA,NA,NA,NA,2025-11-18 02:20:56
"null","https://psyc-201.github.io/xiang2023/exp/index1.html?PROLIFIC_PID=REDACTED&STUDY_ID=69168b21477cff9ada6cb980&SESSION_ID=691bd3a2cfac43e7aebac1ec","html-keyboard-response",10,524475,"0.0-306.0","Z4cBGxLmWFUpYAGMyvMU6anEwIw7Gsys6d2QUGTJYrtS1mXGJqxPxFEJlRqbQX9M4qYkM5Qo4MK8sP7MCs6uVBf+9A3zJFze4Xw8XxlqXGAdSKhDw1cOb48tvBYhHRD6uhNhRguYlQ73ni2YvzYStHHRoMR4EuTzjFpA4eeTFBdPie1Ibmqef1hivNl3eqGkkbTJk9O34PY3CcmxHYZ72C/f06X6TVB8+ZUzRVrg8iQkO7XyBHXp+d4SXNb3younzY991T1TnC1NGh6UmeRhifdFSXyrBBvBtJZ3mahRa21rDmThr71V5dm6ChAHmtvya6c3zMM7kQ7CL26+a6GplQ==","69168b21477cff9ada6cb980","691bd3a2cfac43e7aebac1ec","index1","<span style='color:red'>Fail,<span style='color:red'>Fail,<span style='color:green'>Lift,<span style='color:green'>Lift,<span style='color:red'>Fail,<span style='color:red'>Fail,<span style='color:red'>Fail,<span style='color:red'>Fail,<span style='color:green'>Lift,<span style='color:red'>Fail,<span style='color:green'>Lift,<span style='color:red'>Fail","<span style='color:red'>Fail,<span style='color:red'>Fail,<span style='color:green'>Lift,<span style='color:green'>Lift,<span style='color:green'>Lift,<span style='color:green'>Lift,<span style='color:red'>Fail,<span style='color:green'>Lift,<span style='color:green'>Lift,<span style='color:green'>Lift,<span style='color:green'>Lift,<span style='color:red'>Fail","<span style='color:red'>Fail,<span style='color:green'>Lift,<span style='color:green'>Lift,<span style='color:red'>Fail,<span style='color:green'>Lift,<span style='color:green'>Lift","0,0,1,1,0,0,0,0,1,0,1,0","0,0,1,1,1,1,0,1,1,1,1,0","0,1,1,0,1,1",10,20,20,"",""," ","null","","",NA,1,"",NA,NA,NA,NA,NA,NA,NA,NA,NA,NA,NA,NA,NA,NA,NA,NA,NA,NA,NA,NA,NA,NA,NA,NA,NA,NA,NA,NA,NA,NA,NA,NA,NA,NA,NA,NA,NA,NA,NA,"",NA,NA,NA,NA,NA,NA,NA,NA,2025-11-18 02:20:56
"null","https://psyc-201.github.io/xiang2023/exp/index1.html?PROLIFIC_PID=REDACTED&STUDY_ID=69168b21477cff9ada6cb980&SESSION_ID=691bd3a2cfac43e7aebac1ec","html-keyboard-response",11,527485,"0.0-307.0","Z4cBGxLmWFUpYAGMyvMU6anEwIw7Gsys6d2QUGTJYrtS1mXGJqxPxFEJlRqbQX9M4qYkM5Qo4MK8sP7MCs6uVBf+9A3zJFze4Xw8XxlqXGAdSKhDw1cOb48tvBYhHRD6uhNhRguYlQ73ni2YvzYStHHRoMR4EuTzjFpA4eeTFBdPie1Ibmqef1hivNl3eqGkkbTJk9O34PY3CcmxHYZ72C/f06X6TVB8+ZUzRVrg8iQkO7XyBHXp+d4SXNb3younzY991T1TnC1NGh6UmeRhifdFSXyrBBvBtJZ3mahRa21rDmThr71V5dm6ChAHmtvya6c3zMM7kQ7CL26+a6GplQ==","69168b21477cff9ada6cb980","691bd3a2cfac43e7aebac1ec","index1","<span style='color:red'>Fail,<span style='color:red'>Fail,<span style='color:green'>Lift,<span style='color:green'>Lift,<span style='color:red'>Fail,<span style='color:red'>Fail,<span style='color:red'>Fail,<span style='color:red'>Fail,<span style='color:green'>Lift,<span style='color:red'>Fail,<span style='color:green'>Lift,<span style='color:red'>Fail","<span style='color:red'>Fail,<span style='color:red'>Fail,<span style='color:green'>Lift,<span style='color:green'>Lift,<span style='color:green'>Lift,<span style='color:green'>Lift,<span style='color:red'>Fail,<span style='color:green'>Lift,<span style='color:green'>Lift,<span style='color:green'>Lift,<span style='color:green'>Lift,<span style='color:red'>Fail","<span style='color:red'>Fail,<span style='color:green'>Lift,<span style='color:green'>Lift,<span style='color:red'>Fail,<span style='color:green'>Lift,<span style='color:green'>Lift","0,0,1,1,0,0,0,0,1,0,1,0","0,0,1,1,1,1,0,1,1,1,1,0","0,1,1,0,1,1",10,20,20,"","","<p style='font-size:30px'><b> New Contest! </b></p>","null","","",NA,1,"",NA,NA,NA,NA,NA,NA,NA,NA,NA,NA,NA,NA,NA,NA,NA,NA,NA,NA,NA,NA,NA,NA,NA,NA,NA,NA,NA,NA,NA,NA,NA,NA,NA,NA,NA,NA,NA,NA,NA,"",NA,NA,NA,NA,NA,NA,NA,NA,2025-11-18 02:20:56
"23828.5","https://psyc-201.github.io/xiang2023/exp/index1.html?PROLIFIC_PID=REDACTED&STUDY_ID=69168b21477cff9ada6cb980&SESSION_ID=691bd3a2cfac43e7aebac1ec","survey-html-form",12,551315,"0.0-308.0","Z4cBGxLmWFUpYAGMyvMU6anEwIw7Gsys6d2QUGTJYrtS1mXGJqxPxFEJlRqbQX9M4qYkM5Qo4MK8sP7MCs6uVBf+9A3zJFze4Xw8XxlqXGAdSKhDw1cOb48tvBYhHRD6uhNhRguYlQ73ni2YvzYStHHRoMR4EuTzjFpA4eeTFBdPie1Ibmqef1hivNl3eqGkkbTJk9O34PY3CcmxHYZ72C/f06X6TVB8+ZUzRVrg8iQkO7XyBHXp+d4SXNb3younzY991T1TnC1NGh6UmeRhifdFSXyrBBvBtJZ3mahRa21rDmThr71V5dm6ChAHmtvya6c3zMM7kQ7CL26+a6GplQ==","69168b21477cff9ada6cb980","691bd3a2cfac43e7aebac1ec","index1","<span style='color:red'>Fail,<span style='color:red'>Fail,<span style='color:green'>Lift,<span style='color:green'>Lift,<span style='color:red'>Fail,<span style='color:red'>Fail,<span style='color:red'>Fail,<span style='color:red'>Fail,<span style='color:green'>Lift,<span style='color:red'>Fail,<span style='color:green'>Lift,<span style='color:red'>Fail","<span style='color:red'>Fail,<span style='color:red'>Fail,<span style='color:green'>Lift,<span style='color:green'>Lift,<span style='color:green'>Lift,<span style='color:green'>Lift,<span style='color:red'>Fail,<span style='color:green'>Lift,<span style='color:green'>Lift,<span style='color:green'>Lift,<span style='color:green'>Lift,<span style='color:red'>Fail","<span style='color:red'>Fail,<span style='color:green'>Lift,<span style='color:green'>Lift,<span style='color:red'>Fail,<span style='color:green'>Lift,<span style='color:green'>Lift","0,0,1,1,0,0,0,0,1,0,1,0","0,0,1,1,1,1,0,1,1,1,1,0","0,1,1,0,1,1",10,20,20,"","","","","{""box1"":""5"",""box2"":""5""}","",NA,1,"round1_outcome",1,1,1,5,5,NA,NA,0,0,10,5,5,NA,NA,0,0,10,NA,NA,NA,NA,NA,NA,NA,NA,NA,NA,NA,NA,NA,NA,NA,NA,NA,NA,NA,NA,NA,NA,"",NA,NA,NA,NA,NA,NA,NA,NA,2025-11-18 02:20:56
"9788.60000000149","https://psyc-201.github.io/xiang2023/exp/index1.html?PROLIFIC_PID=REDACTED&STUDY_ID=69168b21477cff9ada6cb980&SESSION_ID=691bd3a2cfac43e7aebac1ec","survey-html-form",13,561105,"0.0-309.0","Z4cBGxLmWFUpYAGMyvMU6anEwIw7Gsys6d2QUGTJYrtS1mXGJqxPxFEJlRqbQX9M4qYkM5Qo4MK8sP7MCs6uVBf+9A3zJFze4Xw8XxlqXGAdSKhDw1cOb48tvBYhHRD6uhNhRguYlQ73ni2YvzYStHHRoMR4EuTzjFpA4eeTFBdPie1Ibmqef1hivNl3eqGkkbTJk9O34PY3CcmxHYZ72C/f06X6TVB8+ZUzRVrg8iQkO7XyBHXp+d4SXNb3younzY991T1TnC1NGh6UmeRhifdFSXyrBBvBtJZ3mahRa21rDmThr71V5dm6ChAHmtvya6c3zMM7kQ7CL26+a6GplQ==","69168b21477cff9ada6cb980","691bd3a2cfac43e7aebac1ec","index1","<span style='color:red'>Fail,<span style='color:red'>Fail,<span style='color:green'>Lift,<span style='color:green'>Lift,<span style='color:red'>Fail,<span style='color:red'>Fail,<span style='color:red'>Fail,<span style='color:red'>Fail,<span style='color:green'>Lift,<span style='color:red'>Fail,<span style='color:green'>Lift,<span style='color:red'>Fail","<span style='color:red'>Fail,<span style='color:red'>Fail,<span style='color:green'>Lift,<span style='color:green'>Lift,<span style='color:green'>Lift,<span style='color:green'>Lift,<span style='color:red'>Fail,<span style='color:green'>Lift,<span style='color:green'>Lift,<span style='color:green'>Lift,<span style='color:green'>Lift,<span style='color:red'>Fail","<span style='color:red'>Fail,<span style='color:green'>Lift,<span style='color:green'>Lift,<span style='color:red'>Fail,<span style='color:green'>Lift,<span style='color:green'>Lift","0,0,1,1,0,0,0,0,1,0,1,0","0,0,1,1,1,1,0,1,1,1,1,0","0,1,1,0,1,1",10,20,20,"","","","","{""box1"":""75"",""box2"":""75""}","",NA,1,"round2_ready",2,1,2,NA,NA,NA,NA,NA,NA,NA,NA,NA,NA,NA,NA,NA,NA,75,75,75,75,NA,NA,NA,NA,NA,NA,NA,NA,NA,NA,NA,NA,NA,NA,NA,NA,NA,NA,"",NA,NA,NA,NA,NA,NA,NA,NA,2025-11-18 02:20:56
"23517.80000000447","https://psyc-201.github.io/xiang2023/exp/index1.html?PROLIFIC_PID=REDACTED&STUDY_ID=69168b21477cff9ada6cb980&SESSION_ID=691bd3a2cfac43e7aebac1ec","survey-html-form",14,584624,"0.0-310.0","Z4cBGxLmWFUpYAGMyvMU6anEwIw7Gsys6d2QUGTJYrtS1mXGJqxPxFEJlRqbQX9M4qYkM5Qo4MK8sP7MCs6uVBf+9A3zJFze4Xw8XxlqXGAdSKhDw1cOb48tvBYhHRD6uhNhRguYlQ73ni2YvzYStHHRoMR4EuTzjFpA4eeTFBdPie1Ibmqef1hivNl3eqGkkbTJk9O34PY3CcmxHYZ72C/f06X6TVB8+ZUzRVrg8iQkO7XyBHXp+d4SXNb3younzY991T1TnC1NGh6UmeRhifdFSXyrBBvBtJZ3mahRa21rDmThr71V5dm6ChAHmtvya6c3zMM7kQ7CL26+a6GplQ==","69168b21477cff9ada6cb980","691bd3a2cfac43e7aebac1ec","index1","<span style='color:red'>Fail,<span style='color:red'>Fail,<span style='color:green'>Lift,<span style='color:green'>Lift,<span style='color:red'>Fail,<span style='color:red'>Fail,<span style='color:red'>Fail,<span style='color:red'>Fail,<span style='color:green'>Lift,<span style='color:red'>Fail,<span style='color:green'>Lift,<span style='color:red'>Fail","<span style='color:red'>Fail,<span style='color:red'>Fail,<span style='color:green'>Lift,<span style='color:green'>Lift,<span style='color:green'>Lift,<span style='color:green'>Lift,<span style='color:red'>Fail,<span style='color:green'>Lift,<span style='color:green'>Lift,<span style='color:green'>Lift,<span style='color:green'>Lift,<span style='color:red'>Fail","<span style='color:red'>Fail,<span style='color:green'>Lift,<span style='color:green'>Lift,<span style='color:red'>Fail,<span style='color:green'>Lift,<span style='color:green'>Lift","0,0,1,1,0,0,0,0,1,0,1,0","0,0,1,1,1,1,0,1,1,1,1,0","0,1,1,0,1,1",10,20,20,"","","","","{""box1"":""5"",""box2"":""5"",""box3"":""75"",""box4"":""75""}","",NA,1,"round2_outcome",3,1,2,5,5,75,75,1,1,20,NA,NA,NA,NA,NA,NA,NA,NA,NA,NA,NA,5,5,75,75,1,1,20,NA,NA,NA,NA,NA,NA,NA,NA,NA,NA,NA,"",NA,NA,NA,NA,NA,NA,NA,NA,2025-11-18 02:20:56
"9430.90000000596","https://psyc-201.github.io/xiang2023/exp/index1.html?PROLIFIC_PID=REDACTED&STUDY_ID=69168b21477cff9ada6cb980&SESSION_ID=691bd3a2cfac43e7aebac1ec","survey-html-form",15,594056,"0.0-311.0","Z4cBGxLmWFUpYAGMyvMU6anEwIw7Gsys6d2QUGTJYrtS1mXGJqxPxFEJlRqbQX9M4qYkM5Qo4MK8sP7MCs6uVBf+9A3zJFze4Xw8XxlqXGAdSKhDw1cOb48tvBYhHRD6uhNhRguYlQ73ni2YvzYStHHRoMR4EuTzjFpA4eeTFBdPie1Ibmqef1hivNl3eqGkkbTJk9O34PY3CcmxHYZ72C/f06X6TVB8+ZUzRVrg8iQkO7XyBHXp+d4SXNb3younzY991T1TnC1NGh6UmeRhifdFSXyrBBvBtJZ3mahRa21rDmThr71V5dm6ChAHmtvya6c3zMM7kQ7CL26+a6GplQ==","69168b21477cff9ada6cb980","691bd3a2cfac43e7aebac1ec","index1","<span style='color:red'>Fail,<span style='color:red'>Fail,<span style='color:green'>Lift,<span style='color:green'>Lift,<span style='color:red'>Fail,<span style='color:red'>Fail,<span style='color:red'>Fail,<span style='color:red'>Fail,<span style='color:green'>Lift,<span style='color:red'>Fail,<span style='color:green'>Lift,<span style='color:red'>Fail","<span style='color:red'>Fail,<span style='color:red'>Fail,<span style='color:green'>Lift,<span style='color:green'>Lift,<span style='color:green'>Lift,<span style='color:green'>Lift,<span style='color:red'>Fail,<span style='color:green'>Lift,<span style='color:green'>Lift,<span style='color:green'>Lift,<span style='color:green'>Lift,<span style='color:red'>Fail","<span style='color:red'>Fail,<span style='color:green'>Lift,<span style='color:green'>Lift,<span style='color:red'>Fail,<span style='color:green'>Lift,<span style='color:green'>Lift","0,0,1,1,0,0,0,0,1,0,1,0","0,0,1,1,1,1,0,1,1,1,1,0","0,1,1,0,1,1",10,20,20,"","","","","{""box1"":""85""}","",NA,1,"round3_ready",4,1,3,NA,NA,NA,NA,NA,NA,NA,NA,NA,NA,NA,NA,NA,NA,85,85,NA,NA,NA,NA,NA,NA,NA,NA,NA,85,85,NA,NA,NA,NA,NA,NA,NA,NA,NA,"",NA,NA,NA,NA,NA,NA,NA,NA,2025-11-18 02:20:56
"23221","https://psyc-201.github.io/xiang2023/exp/index1.html?PROLIFIC_PID=REDACTED&STUDY_ID=69168b21477cff9ada6cb980&SESSION_ID=691bd3a2cfac43e7aebac1ec","survey-html-form",16,617278,"0.0-312.0-0.0","Z4cBGxLmWFUpYAGMyvMU6anEwIw7Gsys6d2QUGTJYrtS1mXGJqxPxFEJlRqbQX9M4qYkM5Qo4MK8sP7MCs6uVBf+9A3zJFze4Xw8XxlqXGAdSKhDw1cOb48tvBYhHRD6uhNhRguYlQ73ni2YvzYStHHRoMR4EuTzjFpA4eeTFBdPie1Ibmqef1hivNl3eqGkkbTJk9O34PY3CcmxHYZ72C/f06X6TVB8+ZUzRVrg8iQkO7XyBHXp+d4SXNb3younzY991T1TnC1NGh6UmeRhifdFSXyrBBvBtJZ3mahRa21rDmThr71V5dm6ChAHmtvya6c3zMM7kQ7CL26+a6GplQ==","69168b21477cff9ada6cb980","691bd3a2cfac43e7aebac1ec","index1","<span style='color:red'>Fail,<span style='color:red'>Fail,<span style='color:green'>Lift,<span style='color:green'>Lift,<span style='color:red'>Fail,<span style='color:red'>Fail,<span style='color:red'>Fail,<span style='color:red'>Fail,<span style='color:green'>Lift,<span style='color:red'>Fail,<span style='color:green'>Lift,<span style='color:red'>Fail","<span style='color:red'>Fail,<span style='color:red'>Fail,<span style='color:green'>Lift,<span style='color:green'>Lift,<span style='color:green'>Lift,<span style='color:green'>Lift,<span style='color:red'>Fail,<span style='color:green'>Lift,<span style='color:green'>Lift,<span style='color:green'>Lift,<span style='color:green'>Lift,<span style='color:red'>Fail","<span style='color:red'>Fail,<span style='color:green'>Lift,<span style='color:green'>Lift,<span style='color:red'>Fail,<span style='color:green'>Lift,<span style='color:green'>Lift","0,0,1,1,0,0,0,0,1,0,1,0","0,0,1,1,1,1,0,1,1,1,1,0","0,1,1,0,1,1",10,20,20,"","","","","{""box1"":""7"",""box2"":""7"",""box3"":""65"",""box4"":""65""}","",NA,2,"round3_lift",5,1,3,7,7,65,65,1,1,20,NA,NA,NA,NA,NA,NA,NA,NA,NA,NA,NA,NA,NA,NA,NA,NA,NA,NA,NA,NA,7,7,65,65,1,1,20,NA,NA,"",NA,NA,NA,NA,NA,NA,NA,NA,2025-11-18 02:20:56
"null","https://psyc-201.github.io/xiang2023/exp/index1.html?PROLIFIC_PID=REDACTED&STUDY_ID=69168b21477cff9ada6cb980&SESSION_ID=691bd3a2cfac43e7aebac1ec","html-keyboard-response",17,620280,"0.0-316.0","Z4cBGxLmWFUpYAGMyvMU6anEwIw7Gsys6d2QUGTJYrtS1mXGJqxPxFEJlRqbQX9M4qYkM5Qo4MK8sP7MCs6uVBf+9A3zJFze4Xw8XxlqXGAdSKhDw1cOb48tvBYhHRD6uhNhRguYlQ73ni2YvzYStHHRoMR4EuTzjFpA4eeTFBdPie1Ibmqef1hivNl3eqGkkbTJk9O34PY3CcmxHYZ72C/f06X6TVB8+ZUzRVrg8iQkO7XyBHXp+d4SXNb3younzY991T1TnC1NGh6UmeRhifdFSXyrBBvBtJZ3mahRa21rDmThr71V5dm6ChAHmtvya6c3zMM7kQ7CL26+a6GplQ==","69168b21477cff9ada6cb980","691bd3a2cfac43e7aebac1ec","index1","<span style='color:red'>Fail,<span style='color:red'>Fail,<span style='color:green'>Lift,<span style='color:green'>Lift,<span style='color:red'>Fail,<span style='color:red'>Fail,<span style='color:red'>Fail,<span style='color:red'>Fail,<span style='color:green'>Lift,<span style='color:red'>Fail,<span style='color:green'>Lift,<span style='color:red'>Fail","<span style='color:red'>Fail,<span style='color:red'>Fail,<span style='color:green'>Lift,<span style='color:green'>Lift,<span style='color:green'>Lift,<span style='color:green'>Lift,<span style='color:red'>Fail,<span style='color:green'>Lift,<span style='color:green'>Lift,<span style='color:green'>Lift,<span style='color:green'>Lift,<span style='color:red'>Fail","<span style='color:red'>Fail,<span style='color:green'>Lift,<span style='color:green'>Lift,<span style='color:red'>Fail,<span style='color:green'>Lift,<span style='color:green'>Lift","0,0,1,1,0,0,0,0,1,0,1,0","0,0,1,1,1,1,0,1,1,1,1,0","0,1,1,0,1,1",10,20,20,"","","<p style='font-size:30px'><b> New Contest! </b></p>","null","","",NA,2,"",NA,NA,NA,NA,NA,NA,NA,NA,NA,NA,NA,NA,NA,NA,NA,NA,NA,NA,NA,NA,NA,NA,NA,NA,NA,NA,NA,NA,NA,NA,NA,NA,NA,NA,NA,NA,NA,NA,NA,"",NA,NA,NA,NA,NA,NA,NA,NA,2025-11-18 02:20:56
"27250.70000000298","https://psyc-201.github.io/xiang2023/exp/index1.html?PROLIFIC_PID=REDACTED&STUDY_ID=69168b21477cff9ada6cb980&SESSION_ID=691bd3a2cfac43e7aebac1ec","survey-html-form",18,647532,"0.0-317.0","Z4cBGxLmWFUpYAGMyvMU6anEwIw7Gsys6d2QUGTJYrtS1mXGJqxPxFEJlRqbQX9M4qYkM5Qo4MK8sP7MCs6uVBf+9A3zJFze4Xw8XxlqXGAdSKhDw1cOb48tvBYhHRD6uhNhRguYlQ73ni2YvzYStHHRoMR4EuTzjFpA4eeTFBdPie1Ibmqef1hivNl3eqGkkbTJk9O34PY3CcmxHYZ72C/f06X6TVB8+ZUzRVrg8iQkO7XyBHXp+d4SXNb3younzY991T1TnC1NGh6UmeRhifdFSXyrBBvBtJZ3mahRa21rDmThr71V5dm6ChAHmtvya6c3zMM7kQ7CL26+a6GplQ==","69168b21477cff9ada6cb980","691bd3a2cfac43e7aebac1ec","index1","<span style='color:red'>Fail,<span style='color:red'>Fail,<span style='color:green'>Lift,<span style='color:green'>Lift,<span style='color:red'>Fail,<span style='color:red'>Fail,<span style='color:red'>Fail,<span style='color:red'>Fail,<span style='color:green'>Lift,<span style='color:red'>Fail,<span style='color:green'>Lift,<span style='color:red'>Fail","<span style='color:red'>Fail,<span style='color:red'>Fail,<span style='color:green'>Lift,<span style='color:green'>Lift,<span style='color:green'>Lift,<span style='color:green'>Lift,<span style='color:red'>Fail,<span style='color:green'>Lift,<span style='color:green'>Lift,<span style='color:green'>Lift,<span style='color:green'>Lift,<span style='color:red'>Fail","<span style='color:red'>Fail,<span style='color:green'>Lift,<span style='color:green'>Lift,<span style='color:red'>Fail,<span style='color:green'>Lift,<span style='color:green'>Lift","0,0,1,1,0,0,0,0,1,0,1,0","0,0,1,1,1,1,0,1,1,1,1,0","0,1,1,0,1,1",10,20,20,"","","","","{""box1"":""4"",""box2"":""3"",""box3"":""80""}","",NA,2,"round1_outcome",1,2,1,4,3,80,NA,1,0,10,4,3,80,NA,1,0,10,NA,NA,NA,NA,NA,NA,NA,NA,NA,NA,NA,NA,NA,NA,NA,NA,NA,NA,NA,NA,NA,NA,"",NA,NA,NA,NA,NA,NA,NA,NA,2025-11-18 02:20:56
"12901.10000000149","https://psyc-201.github.io/xiang2023/exp/index1.html?PROLIFIC_PID=REDACTED&STUDY_ID=69168b21477cff9ada6cb980&SESSION_ID=691bd3a2cfac43e7aebac1ec","survey-html-form",19,660434,"0.0-318.0","Z4cBGxLmWFUpYAGMyvMU6anEwIw7Gsys6d2QUGTJYrtS1mXGJqxPxFEJlRqbQX9M4qYkM5Qo4MK8sP7MCs6uVBf+9A3zJFze4Xw8XxlqXGAdSKhDw1cOb48tvBYhHRD6uhNhRguYlQ73ni2YvzYStHHRoMR4EuTzjFpA4eeTFBdPie1Ibmqef1hivNl3eqGkkbTJk9O34PY3CcmxHYZ72C/f06X6TVB8+ZUzRVrg8iQkO7XyBHXp+d4SXNb3younzY991T1TnC1NGh6UmeRhifdFSXyrBBvBtJZ3mahRa21rDmThr71V5dm6ChAHmtvya6c3zMM7kQ7CL26+a6GplQ==","69168b21477cff9ada6cb980","691bd3a2cfac43e7aebac1ec","index1","<span style='color:red'>Fail,<span style='color:red'>Fail,<span style='color:green'>Lift,<span style='color:green'>Lift,<span style='color:red'>Fail,<span style='color:red'>Fail,<span style='color:red'>Fail,<span style='color:red'>Fail,<span style='color:green'>Lift,<span style='color:red'>Fail,<span style='color:green'>Lift,<span style='color:red'>Fail","<span style='color:red'>Fail,<span style='color:red'>Fail,<span style='color:green'>Lift,<span style='color:green'>Lift,<span style='color:green'>Lift,<span style='color:green'>Lift,<span style='color:red'>Fail,<span style='color:green'>Lift,<span style='color:green'>Lift,<span style='color:green'>Lift,<span style='color:green'>Lift,<span style='color:red'>Fail","<span style='color:red'>Fail,<span style='color:green'>Lift,<span style='color:green'>Lift,<span style='color:red'>Fail,<span style='color:green'>Lift,<span style='color:green'>Lift","0,0,1,1,0,0,0,0,1,0,1,0","0,0,1,1,1,1,0,1,1,1,1,0","0,1,1,0,1,1",10,20,20,"","","","","{""box1"":""90"",""box2"":""55""}","",NA,2,"round2_ready",2,2,2,NA,NA,NA,NA,NA,NA,NA,NA,NA,NA,NA,NA,NA,NA,90,55,90,55,NA,NA,NA,NA,NA,NA,NA,NA,NA,NA,NA,NA,NA,NA,NA,NA,NA,NA,"",NA,NA,NA,NA,NA,NA,NA,NA,2025-11-18 02:20:56
"16491.19999999553","https://psyc-201.github.io/xiang2023/exp/index1.html?PROLIFIC_PID=REDACTED&STUDY_ID=69168b21477cff9ada6cb980&SESSION_ID=691bd3a2cfac43e7aebac1ec","survey-html-form",20,676926,"0.0-319.0","Z4cBGxLmWFUpYAGMyvMU6anEwIw7Gsys6d2QUGTJYrtS1mXGJqxPxFEJlRqbQX9M4qYkM5Qo4MK8sP7MCs6uVBf+9A3zJFze4Xw8XxlqXGAdSKhDw1cOb48tvBYhHRD6uhNhRguYlQ73ni2YvzYStHHRoMR4EuTzjFpA4eeTFBdPie1Ibmqef1hivNl3eqGkkbTJk9O34PY3CcmxHYZ72C/f06X6TVB8+ZUzRVrg8iQkO7XyBHXp+d4SXNb3younzY991T1TnC1NGh6UmeRhifdFSXyrBBvBtJZ3mahRa21rDmThr71V5dm6ChAHmtvya6c3zMM7kQ7CL26+a6GplQ==","69168b21477cff9ada6cb980","691bd3a2cfac43e7aebac1ec","index1","<span style='color:red'>Fail,<span style='color:red'>Fail,<span style='color:green'>Lift,<span style='color:green'>Lift,<span style='color:red'>Fail,<span style='color:red'>Fail,<span style='color:red'>Fail,<span style='color:red'>Fail,<span style='color:green'>Lift,<span style='color:red'>Fail,<span style='color:green'>Lift,<span style='color:red'>Fail","<span style='color:red'>Fail,<span style='color:red'>Fail,<span style='color:green'>Lift,<span style='color:green'>Lift,<span style='color:green'>Lift,<span style='color:green'>Lift,<span style='color:red'>Fail,<span style='color:green'>Lift,<span style='color:green'>Lift,<span style='color:green'>Lift,<span style='color:green'>Lift,<span style='color:red'>Fail","<span style='color:red'>Fail,<span style='color:green'>Lift,<span style='color:green'>Lift,<span style='color:red'>Fail,<span style='color:green'>Lift,<span style='color:green'>Lift","0,0,1,1,0,0,0,0,1,0,1,0","0,0,1,1,1,1,0,1,1,1,1,0","0,1,1,0,1,1",10,20,20,"","","","","{""box1"":""4"",""box2"":""4"",""box3"":""85"",""box4"":""85""}","",NA,2,"round2_outcome",3,2,2,4,4,85,85,1,1,20,NA,NA,NA,NA,NA,NA,NA,NA,NA,NA,NA,4,4,85,85,1,1,20,NA,NA,NA,NA,NA,NA,NA,NA,NA,NA,NA,"",NA,NA,NA,NA,NA,NA,NA,NA,2025-11-18 02:20:56
"8446.70000000298","https://psyc-201.github.io/xiang2023/exp/index1.html?PROLIFIC_PID=REDACTED&STUDY_ID=69168b21477cff9ada6cb980&SESSION_ID=691bd3a2cfac43e7aebac1ec","survey-html-form",21,685374,"0.0-320.0","Z4cBGxLmWFUpYAGMyvMU6anEwIw7Gsys6d2QUGTJYrtS1mXGJqxPxFEJlRqbQX9M4qYkM5Qo4MK8sP7MCs6uVBf+9A3zJFze4Xw8XxlqXGAdSKhDw1cOb48tvBYhHRD6uhNhRguYlQ73ni2YvzYStHHRoMR4EuTzjFpA4eeTFBdPie1Ibmqef1hivNl3eqGkkbTJk9O34PY3CcmxHYZ72C/f06X6TVB8+ZUzRVrg8iQkO7XyBHXp+d4SXNb3younzY991T1TnC1NGh6UmeRhifdFSXyrBBvBtJZ3mahRa21rDmThr71V5dm6ChAHmtvya6c3zMM7kQ7CL26+a6GplQ==","69168b21477cff9ada6cb980","691bd3a2cfac43e7aebac1ec","index1","<span style='color:red'>Fail,<span style='color:red'>Fail,<span style='color:green'>Lift,<span style='color:green'>Lift,<span style='color:red'>Fail,<span style='color:red'>Fail,<span style='color:red'>Fail,<span style='color:red'>Fail,<span style='color:green'>Lift,<span style='color:red'>Fail,<span style='color:green'>Lift,<span style='color:red'>Fail","<span style='color:red'>Fail,<span style='color:red'>Fail,<span style='color:green'>Lift,<span style='color:green'>Lift,<span style='color:green'>Lift,<span style='color:green'>Lift,<span style='color:red'>Fail,<span style='color:green'>Lift,<span style='color:green'>Lift,<span style='color:green'>Lift,<span style='color:green'>Lift,<span style='color:red'>Fail","<span style='color:red'>Fail,<span style='color:green'>Lift,<span style='color:green'>Lift,<span style='color:red'>Fail,<span style='color:green'>Lift,<span style='color:green'>Lift","0,0,1,1,0,0,0,0,1,0,1,0","0,0,1,1,1,1,0,1,1,1,1,0","0,1,1,0,1,1",10,20,20,"","","","","{""box1"":""75""}","",NA,2,"round3_ready",4,2,3,NA,NA,NA,NA,NA,NA,NA,NA,NA,NA,NA,NA,NA,NA,75,75,NA,NA,NA,NA,NA,NA,NA,NA,NA,75,75,NA,NA,NA,NA,NA,NA,NA,NA,NA,"",NA,NA,NA,NA,NA,NA,NA,NA,2025-11-18 02:20:56
"21028.20000000298","https://psyc-201.github.io/xiang2023/exp/index1.html?PROLIFIC_PID=REDACTED&STUDY_ID=69168b21477cff9ada6cb980&SESSION_ID=691bd3a2cfac43e7aebac1ec","survey-html-form",22,706403,"0.0-321.0-0.0","Z4cBGxLmWFUpYAGMyvMU6anEwIw7Gsys6d2QUGTJYrtS1mXGJqxPxFEJlRqbQX9M4qYkM5Qo4MK8sP7MCs6uVBf+9A3zJFze4Xw8XxlqXGAdSKhDw1cOb48tvBYhHRD6uhNhRguYlQ73ni2YvzYStHHRoMR4EuTzjFpA4eeTFBdPie1Ibmqef1hivNl3eqGkkbTJk9O34PY3CcmxHYZ72C/f06X6TVB8+ZUzRVrg8iQkO7XyBHXp+d4SXNb3younzY991T1TnC1NGh6UmeRhifdFSXyrBBvBtJZ3mahRa21rDmThr71V5dm6ChAHmtvya6c3zMM7kQ7CL26+a6GplQ==","69168b21477cff9ada6cb980","691bd3a2cfac43e7aebac1ec","index1","<span style='color:red'>Fail,<span style='color:red'>Fail,<span style='color:green'>Lift,<span style='color:green'>Lift,<span style='color:red'>Fail,<span style='color:red'>Fail,<span style='color:red'>Fail,<span style='color:red'>Fail,<span style='color:green'>Lift,<span style='color:red'>Fail,<span style='color:green'>Lift,<span style='color:red'>Fail","<span style='color:red'>Fail,<span style='color:red'>Fail,<span style='color:green'>Lift,<span style='color:green'>Lift,<span style='color:green'>Lift,<span style='color:green'>Lift,<span style='color:red'>Fail,<span style='color:green'>Lift,<span style='color:green'>Lift,<span style='color:green'>Lift,<span style='color:green'>Lift,<span style='color:red'>Fail","<span style='color:red'>Fail,<span style='color:green'>Lift,<span style='color:green'>Lift,<span style='color:red'>Fail,<span style='color:green'>Lift,<span style='color:green'>Lift","0,0,1,1,0,0,0,0,1,0,1,0","0,0,1,1,1,1,0,1,1,1,1,0","0,1,1,0,1,1",10,20,20,"","","","","{""box1"":""4"",""box2"":""4"",""box3"":""80"",""box4"":""70""}","",NA,3,"round3_lift",5,2,3,4,4,80,70,1,1,20,NA,NA,NA,NA,NA,NA,NA,NA,NA,NA,NA,NA,NA,NA,NA,NA,NA,NA,NA,NA,4,4,80,70,1,1,20,NA,NA,"",NA,NA,NA,NA,NA,NA,NA,NA,2025-11-18 02:20:56
"null","https://psyc-201.github.io/xiang2023/exp/index1.html?PROLIFIC_PID=REDACTED&STUDY_ID=69168b21477cff9ada6cb980&SESSION_ID=691bd3a2cfac43e7aebac1ec","html-keyboard-response",23,709414,"0.0-325.0","Z4cBGxLmWFUpYAGMyvMU6anEwIw7Gsys6d2QUGTJYrtS1mXGJqxPxFEJlRqbQX9M4qYkM5Qo4MK8sP7MCs6uVBf+9A3zJFze4Xw8XxlqXGAdSKhDw1cOb48tvBYhHRD6uhNhRguYlQ73ni2YvzYStHHRoMR4EuTzjFpA4eeTFBdPie1Ibmqef1hivNl3eqGkkbTJk9O34PY3CcmxHYZ72C/f06X6TVB8+ZUzRVrg8iQkO7XyBHXp+d4SXNb3younzY991T1TnC1NGh6UmeRhifdFSXyrBBvBtJZ3mahRa21rDmThr71V5dm6ChAHmtvya6c3zMM7kQ7CL26+a6GplQ==","69168b21477cff9ada6cb980","691bd3a2cfac43e7aebac1ec","index1","<span style='color:red'>Fail,<span style='color:red'>Fail,<span style='color:green'>Lift,<span style='color:green'>Lift,<span style='color:red'>Fail,<span style='color:red'>Fail,<span style='color:red'>Fail,<span style='color:red'>Fail,<span style='color:green'>Lift,<span style='color:red'>Fail,<span style='color:green'>Lift,<span style='color:red'>Fail","<span style='color:red'>Fail,<span style='color:red'>Fail,<span style='color:green'>Lift,<span style='color:green'>Lift,<span style='color:green'>Lift,<span style='color:green'>Lift,<span style='color:red'>Fail,<span style='color:green'>Lift,<span style='color:green'>Lift,<span style='color:green'>Lift,<span style='color:green'>Lift,<span style='color:red'>Fail","<span style='color:red'>Fail,<span style='color:green'>Lift,<span style='color:green'>Lift,<span style='color:red'>Fail,<span style='color:green'>Lift,<span style='color:green'>Lift","0,0,1,1,0,0,0,0,1,0,1,0","0,0,1,1,1,1,0,1,1,1,1,0","0,1,1,0,1,1",10,20,20,"","","<p style='font-size:30px'><b> New Contest! </b></p>","null","","",NA,3,"",NA,NA,NA,NA,NA,NA,NA,NA,NA,NA,NA,NA,NA,NA,NA,NA,NA,NA,NA,NA,NA,NA,NA,NA,NA,NA,NA,NA,NA,NA,NA,NA,NA,NA,NA,NA,NA,NA,NA,"",NA,NA,NA,NA,NA,NA,NA,NA,2025-11-18 02:20:56
"10440.10000000149","https://psyc-201.github.io/xiang2023/exp/index1.html?PROLIFIC_PID=REDACTED&STUDY_ID=69168b21477cff9ada6cb980&SESSION_ID=691bd3a2cfac43e7aebac1ec","survey-html-form",24,719855,"0.0-326.0","Z4cBGxLmWFUpYAGMyvMU6anEwIw7Gsys6d2QUGTJYrtS1mXGJqxPxFEJlRqbQX9M4qYkM5Qo4MK8sP7MCs6uVBf+9A3zJFze4Xw8XxlqXGAdSKhDw1cOb48tvBYhHRD6uhNhRguYlQ73ni2YvzYStHHRoMR4EuTzjFpA4eeTFBdPie1Ibmqef1hivNl3eqGkkbTJk9O34PY3CcmxHYZ72C/f06X6TVB8+ZUzRVrg8iQkO7XyBHXp+d4SXNb3younzY991T1TnC1NGh6UmeRhifdFSXyrBBvBtJZ3mahRa21rDmThr71V5dm6ChAHmtvya6c3zMM7kQ7CL26+a6GplQ==","69168b21477cff9ada6cb980","691bd3a2cfac43e7aebac1ec","index1","<span style='color:red'>Fail,<span style='color:red'>Fail,<span style='color:green'>Lift,<span style='color:green'>Lift,<span style='color:red'>Fail,<span style='color:red'>Fail,<span style='color:red'>Fail,<span style='color:red'>Fail,<span style='color:green'>Lift,<span style='color:red'>Fail,<span style='color:green'>Lift,<span style='color:red'>Fail","<span style='color:red'>Fail,<span style='color:red'>Fail,<span style='color:green'>Lift,<span style='color:green'>Lift,<span style='color:green'>Lift,<span style='color:green'>Lift,<span style='color:red'>Fail,<span style='color:green'>Lift,<span style='color:green'>Lift,<span style='color:green'>Lift,<span style='color:green'>Lift,<span style='color:red'>Fail","<span style='color:red'>Fail,<span style='color:green'>Lift,<span style='color:green'>Lift,<span style='color:red'>Fail,<span style='color:green'>Lift,<span style='color:green'>Lift","0,0,1,1,0,0,0,0,1,0,1,0","0,0,1,1,1,1,0,1,1,1,1,0","0,1,1,0,1,1",10,20,20,"","","","","{""box1"":""3"",""box2"":""3""}","",NA,3,"round1_outcome",1,3,1,3,3,NA,NA,0,0,10,3,3,NA,NA,0,0,10,NA,NA,NA,NA,NA,NA,NA,NA,NA,NA,NA,NA,NA,NA,NA,NA,NA,NA,NA,NA,NA,NA,"",NA,NA,NA,NA,NA,NA,NA,NA,2025-11-18 02:20:56
"12790.60000000149","https://psyc-201.github.io/xiang2023/exp/index1.html?PROLIFIC_PID=REDACTED&STUDY_ID=69168b21477cff9ada6cb980&SESSION_ID=691bd3a2cfac43e7aebac1ec","survey-html-form",25,732647,"0.0-327.0","Z4cBGxLmWFUpYAGMyvMU6anEwIw7Gsys6d2QUGTJYrtS1mXGJqxPxFEJlRqbQX9M4qYkM5Qo4MK8sP7MCs6uVBf+9A3zJFze4Xw8XxlqXGAdSKhDw1cOb48tvBYhHRD6uhNhRguYlQ73ni2YvzYStHHRoMR4EuTzjFpA4eeTFBdPie1Ibmqef1hivNl3eqGkkbTJk9O34PY3CcmxHYZ72C/f06X6TVB8+ZUzRVrg8iQkO7XyBHXp+d4SXNb3younzY991T1TnC1NGh6UmeRhifdFSXyrBBvBtJZ3mahRa21rDmThr71V5dm6ChAHmtvya6c3zMM7kQ7CL26+a6GplQ==","69168b21477cff9ada6cb980","691bd3a2cfac43e7aebac1ec","index1","<span style='color:red'>Fail,<span style='color:red'>Fail,<span style='color:green'>Lift,<span style='color:green'>Lift,<span style='color:red'>Fail,<span style='color:red'>Fail,<span style='color:red'>Fail,<span style='color:red'>Fail,<span style='color:green'>Lift,<span style='color:red'>Fail,<span style='color:green'>Lift,<span style='color:red'>Fail","<span style='color:red'>Fail,<span style='color:red'>Fail,<span style='color:green'>Lift,<span style='color:green'>Lift,<span style='color:green'>Lift,<span style='color:green'>Lift,<span style='color:red'>Fail,<span style='color:green'>Lift,<span style='color:green'>Lift,<span style='color:green'>Lift,<span style='color:green'>Lift,<span style='color:red'>Fail","<span style='color:red'>Fail,<span style='color:green'>Lift,<span style='color:green'>Lift,<span style='color:red'>Fail,<span style='color:green'>Lift,<span style='color:green'>Lift","0,0,1,1,0,0,0,0,1,0,1,0","0,0,1,1,1,1,0,1,1,1,1,0","0,1,1,0,1,1",10,20,20,"","","","","{""box1"":""40"",""box2"":""40""}","",NA,3,"round2_ready",2,3,2,NA,NA,NA,NA,NA,NA,NA,NA,NA,NA,NA,NA,NA,NA,40,40,40,40,NA,NA,NA,NA,NA,NA,NA,NA,NA,NA,NA,NA,NA,NA,NA,NA,NA,NA,"",NA,NA,NA,NA,NA,NA,NA,NA,2025-11-18 02:20:56
"14697.29999999702","https://psyc-201.github.io/xiang2023/exp/index1.html?PROLIFIC_PID=REDACTED&STUDY_ID=69168b21477cff9ada6cb980&SESSION_ID=691bd3a2cfac43e7aebac1ec","survey-html-form",26,747345,"0.0-328.0","Z4cBGxLmWFUpYAGMyvMU6anEwIw7Gsys6d2QUGTJYrtS1mXGJqxPxFEJlRqbQX9M4qYkM5Qo4MK8sP7MCs6uVBf+9A3zJFze4Xw8XxlqXGAdSKhDw1cOb48tvBYhHRD6uhNhRguYlQ73ni2YvzYStHHRoMR4EuTzjFpA4eeTFBdPie1Ibmqef1hivNl3eqGkkbTJk9O34PY3CcmxHYZ72C/f06X6TVB8+ZUzRVrg8iQkO7XyBHXp+d4SXNb3younzY991T1TnC1NGh6UmeRhifdFSXyrBBvBtJZ3mahRa21rDmThr71V5dm6ChAHmtvya6c3zMM7kQ7CL26+a6GplQ==","69168b21477cff9ada6cb980","691bd3a2cfac43e7aebac1ec","index1","<span style='color:red'>Fail,<span style='color:red'>Fail,<span style='color:green'>Lift,<span style='color:green'>Lift,<span style='color:red'>Fail,<span style='color:red'>Fail,<span style='color:red'>Fail,<span style='color:red'>Fail,<span style='color:green'>Lift,<span style='color:red'>Fail,<span style='color:green'>Lift,<span style='color:red'>Fail","<span style='color:red'>Fail,<span style='color:red'>Fail,<span style='color:green'>Lift,<span style='color:green'>Lift,<span style='color:green'>Lift,<span style='color:green'>Lift,<span style='color:red'>Fail,<span style='color:green'>Lift,<span style='color:green'>Lift,<span style='color:green'>Lift,<span style='color:green'>Lift,<span style='color:red'>Fail","<span style='color:red'>Fail,<span style='color:green'>Lift,<span style='color:green'>Lift,<span style='color:red'>Fail,<span style='color:green'>Lift,<span style='color:green'>Lift","0,0,1,1,0,0,0,0,1,0,1,0","0,0,1,1,1,1,0,1,1,1,1,0","0,1,1,0,1,1",10,20,20,"","","","","{""box1"":""3"",""box2"":""4"",""box4"":""85""}","",NA,3,"round2_outcome",3,3,2,3,4,NA,85,0,1,20,NA,NA,NA,NA,NA,NA,NA,NA,NA,NA,NA,3,4,NA,85,0,1,20,NA,NA,NA,NA,NA,NA,NA,NA,NA,NA,NA,"",NA,NA,NA,NA,NA,NA,NA,NA,2025-11-18 02:20:56
"4844.79999999702","https://psyc-201.github.io/xiang2023/exp/index1.html?PROLIFIC_PID=REDACTED&STUDY_ID=69168b21477cff9ada6cb980&SESSION_ID=691bd3a2cfac43e7aebac1ec","survey-html-form",27,752191,"0.0-329.0","Z4cBGxLmWFUpYAGMyvMU6anEwIw7Gsys6d2QUGTJYrtS1mXGJqxPxFEJlRqbQX9M4qYkM5Qo4MK8sP7MCs6uVBf+9A3zJFze4Xw8XxlqXGAdSKhDw1cOb48tvBYhHRD6uhNhRguYlQ73ni2YvzYStHHRoMR4EuTzjFpA4eeTFBdPie1Ibmqef1hivNl3eqGkkbTJk9O34PY3CcmxHYZ72C/f06X6TVB8+ZUzRVrg8iQkO7XyBHXp+d4SXNb3younzY991T1TnC1NGh6UmeRhifdFSXyrBBvBtJZ3mahRa21rDmThr71V5dm6ChAHmtvya6c3zMM7kQ7CL26+a6GplQ==","69168b21477cff9ada6cb980","691bd3a2cfac43e7aebac1ec","index1","<span style='color:red'>Fail,<span style='color:red'>Fail,<span style='color:green'>Lift,<span style='color:green'>Lift,<span style='color:red'>Fail,<span style='color:red'>Fail,<span style='color:red'>Fail,<span style='color:red'>Fail,<span style='color:green'>Lift,<span style='color:red'>Fail,<span style='color:green'>Lift,<span style='color:red'>Fail","<span style='color:red'>Fail,<span style='color:red'>Fail,<span style='color:green'>Lift,<span style='color:green'>Lift,<span style='color:green'>Lift,<span style='color:green'>Lift,<span style='color:red'>Fail,<span style='color:green'>Lift,<span style='color:green'>Lift,<span style='color:green'>Lift,<span style='color:green'>Lift,<span style='color:red'>Fail","<span style='color:red'>Fail,<span style='color:green'>Lift,<span style='color:green'>Lift,<span style='color:red'>Fail,<span style='color:green'>Lift,<span style='color:green'>Lift","0,0,1,1,0,0,0,0,1,0,1,0","0,0,1,1,1,1,0,1,1,1,1,0","0,1,1,0,1,1",10,20,20,"","","","","{""box1"":""90""}","",NA,3,"round3_ready",4,3,3,NA,NA,NA,NA,NA,NA,NA,NA,NA,NA,NA,NA,NA,NA,90,90,NA,NA,NA,NA,NA,NA,NA,NA,NA,90,90,NA,NA,NA,NA,NA,NA,NA,NA,NA,"",NA,NA,NA,NA,NA,NA,NA,NA,2025-11-18 02:20:56
"48652.30000000447","https://psyc-201.github.io/xiang2023/exp/index1.html?PROLIFIC_PID=REDACTED&STUDY_ID=69168b21477cff9ada6cb980&SESSION_ID=691bd3a2cfac43e7aebac1ec","survey-html-form",28,800844,"0.0-331.0-0.0","Z4cBGxLmWFUpYAGMyvMU6anEwIw7Gsys6d2QUGTJYrtS1mXGJqxPxFEJlRqbQX9M4qYkM5Qo4MK8sP7MCs6uVBf+9A3zJFze4Xw8XxlqXGAdSKhDw1cOb48tvBYhHRD6uhNhRguYlQ73ni2YvzYStHHRoMR4EuTzjFpA4eeTFBdPie1Ibmqef1hivNl3eqGkkbTJk9O34PY3CcmxHYZ72C/f06X6TVB8+ZUzRVrg8iQkO7XyBHXp+d4SXNb3younzY991T1TnC1NGh6UmeRhifdFSXyrBBvBtJZ3mahRa21rDmThr71V5dm6ChAHmtvya6c3zMM7kQ7CL26+a6GplQ==","69168b21477cff9ada6cb980","691bd3a2cfac43e7aebac1ec","index1","<span style='color:red'>Fail,<span style='color:red'>Fail,<span style='color:green'>Lift,<span style='color:green'>Lift,<span style='color:red'>Fail,<span style='color:red'>Fail,<span style='color:red'>Fail,<span style='color:red'>Fail,<span style='color:green'>Lift,<span style='color:red'>Fail,<span style='color:green'>Lift,<span style='color:red'>Fail","<span style='color:red'>Fail,<span style='color:red'>Fail,<span style='color:green'>Lift,<span style='color:green'>Lift,<span style='color:green'>Lift,<span style='color:green'>Lift,<span style='color:red'>Fail,<span style='color:green'>Lift,<span style='color:green'>Lift,<span style='color:green'>Lift,<span style='color:green'>Lift,<span style='color:red'>Fail","<span style='color:red'>Fail,<span style='color:green'>Lift,<span style='color:green'>Lift,<span style='color:red'>Fail,<span style='color:green'>Lift,<span style='color:green'>Lift","0,0,1,1,0,0,0,0,1,0,1,0","0,0,1,1,1,1,0,1,1,1,1,0","0,1,1,0,1,1",10,20,20,"","","","","{""box1"":""2"",""box2"":""2"",""box3"":""999"",""box4"":""999""}","",NA,4,"round3_fail",5,3,3,2,2,NA,NA,0,0,20,NA,NA,NA,NA,NA,NA,NA,NA,NA,NA,NA,NA,NA,NA,NA,NA,NA,NA,NA,NA,2,2,NA,NA,0,0,20,1,1,"",NA,NA,NA,NA,NA,NA,NA,NA,2025-11-18 02:20:56
"null","https://psyc-201.github.io/xiang2023/exp/index1.html?PROLIFIC_PID=REDACTED&STUDY_ID=69168b21477cff9ada6cb980&SESSION_ID=691bd3a2cfac43e7aebac1ec","html-keyboard-response",29,803854,"0.0-334.0","Z4cBGxLmWFUpYAGMyvMU6anEwIw7Gsys6d2QUGTJYrtS1mXGJqxPxFEJlRqbQX9M4qYkM5Qo4MK8sP7MCs6uVBf+9A3zJFze4Xw8XxlqXGAdSKhDw1cOb48tvBYhHRD6uhNhRguYlQ73ni2YvzYStHHRoMR4EuTzjFpA4eeTFBdPie1Ibmqef1hivNl3eqGkkbTJk9O34PY3CcmxHYZ72C/f06X6TVB8+ZUzRVrg8iQkO7XyBHXp+d4SXNb3younzY991T1TnC1NGh6UmeRhifdFSXyrBBvBtJZ3mahRa21rDmThr71V5dm6ChAHmtvya6c3zMM7kQ7CL26+a6GplQ==","69168b21477cff9ada6cb980","691bd3a2cfac43e7aebac1ec","index1","<span style='color:red'>Fail,<span style='color:red'>Fail,<span style='color:green'>Lift,<span style='color:green'>Lift,<span style='color:red'>Fail,<span style='color:red'>Fail,<span style='color:red'>Fail,<span style='color:red'>Fail,<span style='color:green'>Lift,<span style='color:red'>Fail,<span style='color:green'>Lift,<span style='color:red'>Fail","<span style='color:red'>Fail,<span style='color:red'>Fail,<span style='color:green'>Lift,<span style='color:green'>Lift,<span style='color:green'>Lift,<span style='color:green'>Lift,<span style='color:red'>Fail,<span style='color:green'>Lift,<span style='color:green'>Lift,<span style='color:green'>Lift,<span style='color:green'>Lift,<span style='color:red'>Fail","<span style='color:red'>Fail,<span style='color:green'>Lift,<span style='color:green'>Lift,<span style='color:red'>Fail,<span style='color:green'>Lift,<span style='color:green'>Lift","0,0,1,1,0,0,0,0,1,0,1,0","0,0,1,1,1,1,0,1,1,1,1,0","0,1,1,0,1,1",10,20,20,"","","<p style='font-size:30px'><b> New Contest! </b></p>","null","","",NA,4,"",NA,NA,NA,NA,NA,NA,NA,NA,NA,NA,NA,NA,NA,NA,NA,NA,NA,NA,NA,NA,NA,NA,NA,NA,NA,NA,NA,NA,NA,NA,NA,NA,NA,NA,NA,NA,NA,NA,NA,"",NA,NA,NA,NA,NA,NA,NA,NA,2025-11-18 02:20:56
"24189.30000000447","https://psyc-201.github.io/xiang2023/exp/index1.html?PROLIFIC_PID=REDACTED&STUDY_ID=69168b21477cff9ada6cb980&SESSION_ID=691bd3a2cfac43e7aebac1ec","survey-html-form",30,828044,"0.0-335.0","Z4cBGxLmWFUpYAGMyvMU6anEwIw7Gsys6d2QUGTJYrtS1mXGJqxPxFEJlRqbQX9M4qYkM5Qo4MK8sP7MCs6uVBf+9A3zJFze4Xw8XxlqXGAdSKhDw1cOb48tvBYhHRD6uhNhRguYlQ73ni2YvzYStHHRoMR4EuTzjFpA4eeTFBdPie1Ibmqef1hivNl3eqGkkbTJk9O34PY3CcmxHYZ72C/f06X6TVB8+ZUzRVrg8iQkO7XyBHXp+d4SXNb3younzY991T1TnC1NGh6UmeRhifdFSXyrBBvBtJZ3mahRa21rDmThr71V5dm6ChAHmtvya6c3zMM7kQ7CL26+a6GplQ==","69168b21477cff9ada6cb980","691bd3a2cfac43e7aebac1ec","index1","<span style='color:red'>Fail,<span style='color:red'>Fail,<span style='color:green'>Lift,<span style='color:green'>Lift,<span style='color:red'>Fail,<span style='color:red'>Fail,<span style='color:red'>Fail,<span style='color:red'>Fail,<span style='color:green'>Lift,<span style='color:red'>Fail,<span style='color:green'>Lift,<span style='color:red'>Fail","<span style='color:red'>Fail,<span style='color:red'>Fail,<span style='color:green'>Lift,<span style='color:green'>Lift,<span style='color:green'>Lift,<span style='color:green'>Lift,<span style='color:red'>Fail,<span style='color:green'>Lift,<span style='color:green'>Lift,<span style='color:green'>Lift,<span style='color:green'>Lift,<span style='color:red'>Fail","<span style='color:red'>Fail,<span style='color:green'>Lift,<span style='color:green'>Lift,<span style='color:red'>Fail,<span style='color:green'>Lift,<span style='color:green'>Lift","0,0,1,1,0,0,0,0,1,0,1,0","0,0,1,1,1,1,0,1,1,1,1,0","0,1,1,0,1,1",10,20,20,"","","","","{""box1"":""5"",""box2"":""5"",""box3"":""90"",""box4"":""90""}","",NA,4,"round1_outcome",1,4,1,5,5,90,90,1,1,10,5,5,90,90,1,1,10,NA,NA,NA,NA,NA,NA,NA,NA,NA,NA,NA,NA,NA,NA,NA,NA,NA,NA,NA,NA,NA,NA,"",NA,NA,NA,NA,NA,NA,NA,NA,2025-11-18 02:20:56
"11951.79999999702","https://psyc-201.github.io/xiang2023/exp/index1.html?PROLIFIC_PID=REDACTED&STUDY_ID=69168b21477cff9ada6cb980&SESSION_ID=691bd3a2cfac43e7aebac1ec","survey-html-form",31,839997,"0.0-336.0","Z4cBGxLmWFUpYAGMyvMU6anEwIw7Gsys6d2QUGTJYrtS1mXGJqxPxFEJlRqbQX9M4qYkM5Qo4MK8sP7MCs6uVBf+9A3zJFze4Xw8XxlqXGAdSKhDw1cOb48tvBYhHRD6uhNhRguYlQ73ni2YvzYStHHRoMR4EuTzjFpA4eeTFBdPie1Ibmqef1hivNl3eqGkkbTJk9O34PY3CcmxHYZ72C/f06X6TVB8+ZUzRVrg8iQkO7XyBHXp+d4SXNb3younzY991T1TnC1NGh6UmeRhifdFSXyrBBvBtJZ3mahRa21rDmThr71V5dm6ChAHmtvya6c3zMM7kQ7CL26+a6GplQ==","69168b21477cff9ada6cb980","691bd3a2cfac43e7aebac1ec","index1","<span style='color:red'>Fail,<span style='color:red'>Fail,<span style='color:green'>Lift,<span style='color:green'>Lift,<span style='color:red'>Fail,<span style='color:red'>Fail,<span style='color:red'>Fail,<span style='color:red'>Fail,<span style='color:green'>Lift,<span style='color:red'>Fail,<span style='color:green'>Lift,<span style='color:red'>Fail","<span style='color:red'>Fail,<span style='color:red'>Fail,<span style='color:green'>Lift,<span style='color:green'>Lift,<span style='color:green'>Lift,<span style='color:green'>Lift,<span style='color:red'>Fail,<span style='color:green'>Lift,<span style='color:green'>Lift,<span style='color:green'>Lift,<span style='color:green'>Lift,<span style='color:red'>Fail","<span style='color:red'>Fail,<span style='color:green'>Lift,<span style='color:green'>Lift,<span style='color:red'>Fail,<span style='color:green'>Lift,<span style='color:green'>Lift","0,0,1,1,0,0,0,0,1,0,1,0","0,0,1,1,1,1,0,1,1,1,1,0","0,1,1,0,1,1",10,20,20,"","","","","{""box1"":""95"",""box2"":""95""}","",NA,4,"round2_ready",2,4,2,NA,NA,NA,NA,NA,NA,NA,NA,NA,NA,NA,NA,NA,NA,95,95,95,95,NA,NA,NA,NA,NA,NA,NA,NA,NA,NA,NA,NA,NA,NA,NA,NA,NA,NA,"",NA,NA,NA,NA,NA,NA,NA,NA,2025-11-18 02:20:56
"12698.10000000149","https://psyc-201.github.io/xiang2023/exp/index1.html?PROLIFIC_PID=REDACTED&STUDY_ID=69168b21477cff9ada6cb980&SESSION_ID=691bd3a2cfac43e7aebac1ec","survey-html-form",32,852696,"0.0-337.0","Z4cBGxLmWFUpYAGMyvMU6anEwIw7Gsys6d2QUGTJYrtS1mXGJqxPxFEJlRqbQX9M4qYkM5Qo4MK8sP7MCs6uVBf+9A3zJFze4Xw8XxlqXGAdSKhDw1cOb48tvBYhHRD6uhNhRguYlQ73ni2YvzYStHHRoMR4EuTzjFpA4eeTFBdPie1Ibmqef1hivNl3eqGkkbTJk9O34PY3CcmxHYZ72C/f06X6TVB8+ZUzRVrg8iQkO7XyBHXp+d4SXNb3younzY991T1TnC1NGh6UmeRhifdFSXyrBBvBtJZ3mahRa21rDmThr71V5dm6ChAHmtvya6c3zMM7kQ7CL26+a6GplQ==","69168b21477cff9ada6cb980","691bd3a2cfac43e7aebac1ec","index1","<span style='color:red'>Fail,<span style='color:red'>Fail,<span style='color:green'>Lift,<span style='color:green'>Lift,<span style='color:red'>Fail,<span style='color:red'>Fail,<span style='color:red'>Fail,<span style='color:red'>Fail,<span style='color:green'>Lift,<span style='color:red'>Fail,<span style='color:green'>Lift,<span style='color:red'>Fail","<span style='color:red'>Fail,<span style='color:red'>Fail,<span style='color:green'>Lift,<span style='color:green'>Lift,<span style='color:green'>Lift,<span style='color:green'>Lift,<span style='color:red'>Fail,<span style='color:green'>Lift,<span style='color:green'>Lift,<span style='color:green'>Lift,<span style='color:green'>Lift,<span style='color:red'>Fail","<span style='color:red'>Fail,<span style='color:green'>Lift,<span style='color:green'>Lift,<span style='color:red'>Fail,<span style='color:green'>Lift,<span style='color:green'>Lift","0,0,1,1,0,0,0,0,1,0,1,0","0,0,1,1,1,1,0,1,1,1,1,0","0,1,1,0,1,1",10,20,20,"","","","","{""box1"":""5"",""box2"":""5"",""box3"":""95"",""box4"":""95""}","",NA,4,"round2_outcome",3,4,2,5,5,95,95,1,1,20,NA,NA,NA,NA,NA,NA,NA,NA,NA,NA,NA,5,5,95,95,1,1,20,NA,NA,NA,NA,NA,NA,NA,NA,NA,NA,NA,"",NA,NA,NA,NA,NA,NA,NA,NA,2025-11-18 02:20:56
"7945.5999999940395","https://psyc-201.github.io/xiang2023/exp/index1.html?PROLIFIC_PID=REDACTED&STUDY_ID=69168b21477cff9ada6cb980&SESSION_ID=691bd3a2cfac43e7aebac1ec","survey-html-form",33,860643,"0.0-338.0","Z4cBGxLmWFUpYAGMyvMU6anEwIw7Gsys6d2QUGTJYrtS1mXGJqxPxFEJlRqbQX9M4qYkM5Qo4MK8sP7MCs6uVBf+9A3zJFze4Xw8XxlqXGAdSKhDw1cOb48tvBYhHRD6uhNhRguYlQ73ni2YvzYStHHRoMR4EuTzjFpA4eeTFBdPie1Ibmqef1hivNl3eqGkkbTJk9O34PY3CcmxHYZ72C/f06X6TVB8+ZUzRVrg8iQkO7XyBHXp+d4SXNb3younzY991T1TnC1NGh6UmeRhifdFSXyrBBvBtJZ3mahRa21rDmThr71V5dm6ChAHmtvya6c3zMM7kQ7CL26+a6GplQ==","69168b21477cff9ada6cb980","691bd3a2cfac43e7aebac1ec","index1","<span style='color:red'>Fail,<span style='color:red'>Fail,<span style='color:green'>Lift,<span style='color:green'>Lift,<span style='color:red'>Fail,<span style='color:red'>Fail,<span style='color:red'>Fail,<span style='color:red'>Fail,<span style='color:green'>Lift,<span style='color:red'>Fail,<span style='color:green'>Lift,<span style='color:red'>Fail","<span style='color:red'>Fail,<span style='color:red'>Fail,<span style='color:green'>Lift,<span style='color:green'>Lift,<span style='color:green'>Lift,<span style='color:green'>Lift,<span style='color:red'>Fail,<span style='color:green'>Lift,<span style='color:green'>Lift,<span style='color:green'>Lift,<span style='color:green'>Lift,<span style='color:red'>Fail","<span style='color:red'>Fail,<span style='color:green'>Lift,<span style='color:green'>Lift,<span style='color:red'>Fail,<span style='color:green'>Lift,<span style='color:green'>Lift","0,0,1,1,0,0,0,0,1,0,1,0","0,0,1,1,1,1,0,1,1,1,1,0","0,1,1,0,1,1",10,20,20,"","","","","{""box1"":""85""}","",NA,4,"round3_ready",4,4,3,NA,NA,NA,NA,NA,NA,NA,NA,NA,NA,NA,NA,NA,NA,85,85,NA,NA,NA,NA,NA,NA,NA,NA,NA,85,85,NA,NA,NA,NA,NA,NA,NA,NA,NA,"",NA,NA,NA,NA,NA,NA,NA,NA,2025-11-18 02:20:56
"15028.20000000298","https://psyc-201.github.io/xiang2023/exp/index1.html?PROLIFIC_PID=REDACTED&STUDY_ID=69168b21477cff9ada6cb980&SESSION_ID=691bd3a2cfac43e7aebac1ec","survey-html-form",34,875672,"0.0-339.0-0.0","Z4cBGxLmWFUpYAGMyvMU6anEwIw7Gsys6d2QUGTJYrtS1mXGJqxPxFEJlRqbQX9M4qYkM5Qo4MK8sP7MCs6uVBf+9A3zJFze4Xw8XxlqXGAdSKhDw1cOb48tvBYhHRD6uhNhRguYlQ73ni2YvzYStHHRoMR4EuTzjFpA4eeTFBdPie1Ibmqef1hivNl3eqGkkbTJk9O34PY3CcmxHYZ72C/f06X6TVB8+ZUzRVrg8iQkO7XyBHXp+d4SXNb3younzY991T1TnC1NGh6UmeRhifdFSXyrBBvBtJZ3mahRa21rDmThr71V5dm6ChAHmtvya6c3zMM7kQ7CL26+a6GplQ==","69168b21477cff9ada6cb980","691bd3a2cfac43e7aebac1ec","index1","<span style='color:red'>Fail,<span style='color:red'>Fail,<span style='color:green'>Lift,<span style='color:green'>Lift,<span style='color:red'>Fail,<span style='color:red'>Fail,<span style='color:red'>Fail,<span style='color:red'>Fail,<span style='color:green'>Lift,<span style='color:red'>Fail,<span style='color:green'>Lift,<span style='color:red'>Fail","<span style='color:red'>Fail,<span style='color:red'>Fail,<span style='color:green'>Lift,<span style='color:green'>Lift,<span style='color:green'>Lift,<span style='color:green'>Lift,<span style='color:red'>Fail,<span style='color:green'>Lift,<span style='color:green'>Lift,<span style='color:green'>Lift,<span style='color:green'>Lift,<span style='color:red'>Fail","<span style='color:red'>Fail,<span style='color:green'>Lift,<span style='color:green'>Lift,<span style='color:red'>Fail,<span style='color:green'>Lift,<span style='color:green'>Lift","0,0,1,1,0,0,0,0,1,0,1,0","0,0,1,1,1,1,0,1,1,1,1,0","0,1,1,0,1,1",10,20,20,"","","","","{""box1"":""4"",""box2"":""4"",""box3"":""90"",""box4"":""90""}","",NA,5,"round3_lift",5,4,3,4,4,90,90,1,1,20,NA,NA,NA,NA,NA,NA,NA,NA,NA,NA,NA,NA,NA,NA,NA,NA,NA,NA,NA,NA,4,4,90,90,1,1,20,NA,NA,"",NA,NA,NA,NA,NA,NA,NA,NA,2025-11-18 02:20:56
"null","https://psyc-201.github.io/xiang2023/exp/index1.html?PROLIFIC_PID=REDACTED&STUDY_ID=69168b21477cff9ada6cb980&SESSION_ID=691bd3a2cfac43e7aebac1ec","html-keyboard-response",35,878684,"0.0-343.0","Z4cBGxLmWFUpYAGMyvMU6anEwIw7Gsys6d2QUGTJYrtS1mXGJqxPxFEJlRqbQX9M4qYkM5Qo4MK8sP7MCs6uVBf+9A3zJFze4Xw8XxlqXGAdSKhDw1cOb48tvBYhHRD6uhNhRguYlQ73ni2YvzYStHHRoMR4EuTzjFpA4eeTFBdPie1Ibmqef1hivNl3eqGkkbTJk9O34PY3CcmxHYZ72C/f06X6TVB8+ZUzRVrg8iQkO7XyBHXp+d4SXNb3younzY991T1TnC1NGh6UmeRhifdFSXyrBBvBtJZ3mahRa21rDmThr71V5dm6ChAHmtvya6c3zMM7kQ7CL26+a6GplQ==","69168b21477cff9ada6cb980","691bd3a2cfac43e7aebac1ec","index1","<span style='color:red'>Fail,<span style='color:red'>Fail,<span style='color:green'>Lift,<span style='color:green'>Lift,<span style='color:red'>Fail,<span style='color:red'>Fail,<span style='color:red'>Fail,<span style='color:red'>Fail,<span style='color:green'>Lift,<span style='color:red'>Fail,<span style='color:green'>Lift,<span style='color:red'>Fail","<span style='color:red'>Fail,<span style='color:red'>Fail,<span style='color:green'>Lift,<span style='color:green'>Lift,<span style='color:green'>Lift,<span style='color:green'>Lift,<span style='color:red'>Fail,<span style='color:green'>Lift,<span style='color:green'>Lift,<span style='color:green'>Lift,<span style='color:green'>Lift,<span style='color:red'>Fail","<span style='color:red'>Fail,<span style='color:green'>Lift,<span style='color:green'>Lift,<span style='color:red'>Fail,<span style='color:green'>Lift,<span style='color:green'>Lift","0,0,1,1,0,0,0,0,1,0,1,0","0,0,1,1,1,1,0,1,1,1,1,0","0,1,1,0,1,1",10,20,20,"","","<p style='font-size:30px'><b> New Contest! </b></p>","null","","",NA,5,"",NA,NA,NA,NA,NA,NA,NA,NA,NA,NA,NA,NA,NA,NA,NA,NA,NA,NA,NA,NA,NA,NA,NA,NA,NA,NA,NA,NA,NA,NA,NA,NA,NA,NA,NA,NA,NA,NA,NA,"",NA,NA,NA,NA,NA,NA,NA,NA,2025-11-18 02:20:56
"12230.5","https://psyc-201.github.io/xiang2023/exp/index1.html?PROLIFIC_PID=REDACTED&STUDY_ID=69168b21477cff9ada6cb980&SESSION_ID=691bd3a2cfac43e7aebac1ec","survey-html-form",36,890915,"0.0-344.0","Z4cBGxLmWFUpYAGMyvMU6anEwIw7Gsys6d2QUGTJYrtS1mXGJqxPxFEJlRqbQX9M4qYkM5Qo4MK8sP7MCs6uVBf+9A3zJFze4Xw8XxlqXGAdSKhDw1cOb48tvBYhHRD6uhNhRguYlQ73ni2YvzYStHHRoMR4EuTzjFpA4eeTFBdPie1Ibmqef1hivNl3eqGkkbTJk9O34PY3CcmxHYZ72C/f06X6TVB8+ZUzRVrg8iQkO7XyBHXp+d4SXNb3younzY991T1TnC1NGh6UmeRhifdFSXyrBBvBtJZ3mahRa21rDmThr71V5dm6ChAHmtvya6c3zMM7kQ7CL26+a6GplQ==","69168b21477cff9ada6cb980","691bd3a2cfac43e7aebac1ec","index1","<span style='color:red'>Fail,<span style='color:red'>Fail,<span style='color:green'>Lift,<span style='color:green'>Lift,<span style='color:red'>Fail,<span style='color:red'>Fail,<span style='color:red'>Fail,<span style='color:red'>Fail,<span style='color:green'>Lift,<span style='color:red'>Fail,<span style='color:green'>Lift,<span style='color:red'>Fail","<span style='color:red'>Fail,<span style='color:red'>Fail,<span style='color:green'>Lift,<span style='color:green'>Lift,<span style='color:green'>Lift,<span style='color:green'>Lift,<span style='color:red'>Fail,<span style='color:green'>Lift,<span style='color:green'>Lift,<span style='color:green'>Lift,<span style='color:green'>Lift,<span style='color:red'>Fail","<span style='color:red'>Fail,<span style='color:green'>Lift,<span style='color:green'>Lift,<span style='color:red'>Fail,<span style='color:green'>Lift,<span style='color:green'>Lift","0,0,1,1,0,0,0,0,1,0,1,0","0,0,1,1,1,1,0,1,1,1,1,0","0,1,1,0,1,1",10,20,20,"","","","","{""box1"":""3"",""box2"":""3""}","",NA,5,"round1_outcome",1,5,1,3,3,NA,NA,0,0,10,3,3,NA,NA,0,0,10,NA,NA,NA,NA,NA,NA,NA,NA,NA,NA,NA,NA,NA,NA,NA,NA,NA,NA,NA,NA,NA,NA,"",NA,NA,NA,NA,NA,NA,NA,NA,2025-11-18 02:20:56
"19605.29999999702","https://psyc-201.github.io/xiang2023/exp/index1.html?PROLIFIC_PID=REDACTED&STUDY_ID=69168b21477cff9ada6cb980&SESSION_ID=691bd3a2cfac43e7aebac1ec","survey-html-form",37,910522,"0.0-345.0","Z4cBGxLmWFUpYAGMyvMU6anEwIw7Gsys6d2QUGTJYrtS1mXGJqxPxFEJlRqbQX9M4qYkM5Qo4MK8sP7MCs6uVBf+9A3zJFze4Xw8XxlqXGAdSKhDw1cOb48tvBYhHRD6uhNhRguYlQ73ni2YvzYStHHRoMR4EuTzjFpA4eeTFBdPie1Ibmqef1hivNl3eqGkkbTJk9O34PY3CcmxHYZ72C/f06X6TVB8+ZUzRVrg8iQkO7XyBHXp+d4SXNb3younzY991T1TnC1NGh6UmeRhifdFSXyrBBvBtJZ3mahRa21rDmThr71V5dm6ChAHmtvya6c3zMM7kQ7CL26+a6GplQ==","69168b21477cff9ada6cb980","691bd3a2cfac43e7aebac1ec","index1","<span style='color:red'>Fail,<span style='color:red'>Fail,<span style='color:green'>Lift,<span style='color:green'>Lift,<span style='color:red'>Fail,<span style='color:red'>Fail,<span style='color:red'>Fail,<span style='color:red'>Fail,<span style='color:green'>Lift,<span style='color:red'>Fail,<span style='color:green'>Lift,<span style='color:red'>Fail","<span style='color:red'>Fail,<span style='color:red'>Fail,<span style='color:green'>Lift,<span style='color:green'>Lift,<span style='color:green'>Lift,<span style='color:green'>Lift,<span style='color:red'>Fail,<span style='color:green'>Lift,<span style='color:green'>Lift,<span style='color:green'>Lift,<span style='color:green'>Lift,<span style='color:red'>Fail","<span style='color:red'>Fail,<span style='color:green'>Lift,<span style='color:green'>Lift,<span style='color:red'>Fail,<span style='color:green'>Lift,<span style='color:green'>Lift","0,0,1,1,0,0,0,0,1,0,1,0","0,0,1,1,1,1,0,1,1,1,1,0","0,1,1,0,1,1",10,20,20,"","","","","{""box1"":""45"",""box2"":""40""}","",NA,5,"round2_ready",2,5,2,NA,NA,NA,NA,NA,NA,NA,NA,NA,NA,NA,NA,NA,NA,45,40,45,40,NA,NA,NA,NA,NA,NA,NA,NA,NA,NA,NA,NA,NA,NA,NA,NA,NA,NA,"",NA,NA,NA,NA,NA,NA,NA,NA,2025-11-18 02:20:56
"9040.20000000298","https://psyc-201.github.io/xiang2023/exp/index1.html?PROLIFIC_PID=REDACTED&STUDY_ID=69168b21477cff9ada6cb980&SESSION_ID=691bd3a2cfac43e7aebac1ec","survey-html-form",38,919563,"0.0-346.0","Z4cBGxLmWFUpYAGMyvMU6anEwIw7Gsys6d2QUGTJYrtS1mXGJqxPxFEJlRqbQX9M4qYkM5Qo4MK8sP7MCs6uVBf+9A3zJFze4Xw8XxlqXGAdSKhDw1cOb48tvBYhHRD6uhNhRguYlQ73ni2YvzYStHHRoMR4EuTzjFpA4eeTFBdPie1Ibmqef1hivNl3eqGkkbTJk9O34PY3CcmxHYZ72C/f06X6TVB8+ZUzRVrg8iQkO7XyBHXp+d4SXNb3younzY991T1TnC1NGh6UmeRhifdFSXyrBBvBtJZ3mahRa21rDmThr71V5dm6ChAHmtvya6c3zMM7kQ7CL26+a6GplQ==","69168b21477cff9ada6cb980","691bd3a2cfac43e7aebac1ec","index1","<span style='color:red'>Fail,<span style='color:red'>Fail,<span style='color:green'>Lift,<span style='color:green'>Lift,<span style='color:red'>Fail,<span style='color:red'>Fail,<span style='color:red'>Fail,<span style='color:red'>Fail,<span style='color:green'>Lift,<span style='color:red'>Fail,<span style='color:green'>Lift,<span style='color:red'>Fail","<span style='color:red'>Fail,<span style='color:red'>Fail,<span style='color:green'>Lift,<span style='color:green'>Lift,<span style='color:green'>Lift,<span style='color:green'>Lift,<span style='color:red'>Fail,<span style='color:green'>Lift,<span style='color:green'>Lift,<span style='color:green'>Lift,<span style='color:green'>Lift,<span style='color:red'>Fail","<span style='color:red'>Fail,<span style='color:green'>Lift,<span style='color:green'>Lift,<span style='color:red'>Fail,<span style='color:green'>Lift,<span style='color:green'>Lift","0,0,1,1,0,0,0,0,1,0,1,0","0,0,1,1,1,1,0,1,1,1,1,0","0,1,1,0,1,1",10,20,20,"","","","","{""box1"":""3"",""box2"":""3""}","",NA,5,"round2_outcome",3,5,2,3,3,NA,NA,0,0,20,NA,NA,NA,NA,NA,NA,NA,NA,NA,NA,NA,3,3,NA,NA,0,0,20,NA,NA,NA,NA,NA,NA,NA,NA,NA,NA,NA,"",NA,NA,NA,NA,NA,NA,NA,NA,2025-11-18 02:20:56
"7574.10000000149","https://psyc-201.github.io/xiang2023/exp/index1.html?PROLIFIC_PID=REDACTED&STUDY_ID=69168b21477cff9ada6cb980&SESSION_ID=691bd3a2cfac43e7aebac1ec","survey-html-form",39,927138,"0.0-347.0","Z4cBGxLmWFUpYAGMyvMU6anEwIw7Gsys6d2QUGTJYrtS1mXGJqxPxFEJlRqbQX9M4qYkM5Qo4MK8sP7MCs6uVBf+9A3zJFze4Xw8XxlqXGAdSKhDw1cOb48tvBYhHRD6uhNhRguYlQ73ni2YvzYStHHRoMR4EuTzjFpA4eeTFBdPie1Ibmqef1hivNl3eqGkkbTJk9O34PY3CcmxHYZ72C/f06X6TVB8+ZUzRVrg8iQkO7XyBHXp+d4SXNb3younzY991T1TnC1NGh6UmeRhifdFSXyrBBvBtJZ3mahRa21rDmThr71V5dm6ChAHmtvya6c3zMM7kQ7CL26+a6GplQ==","69168b21477cff9ada6cb980","691bd3a2cfac43e7aebac1ec","index1","<span style='color:red'>Fail,<span style='color:red'>Fail,<span style='color:green'>Lift,<span style='color:green'>Lift,<span style='color:red'>Fail,<span style='color:red'>Fail,<span style='color:red'>Fail,<span style='color:red'>Fail,<span style='color:green'>Lift,<span style='color:red'>Fail,<span style='color:green'>Lift,<span style='color:red'>Fail","<span style='color:red'>Fail,<span style='color:red'>Fail,<span style='color:green'>Lift,<span style='color:green'>Lift,<span style='color:green'>Lift,<span style='color:green'>Lift,<span style='color:red'>Fail,<span style='color:green'>Lift,<span style='color:green'>Lift,<span style='color:green'>Lift,<span style='color:green'>Lift,<span style='color:red'>Fail","<span style='color:red'>Fail,<span style='color:green'>Lift,<span style='color:green'>Lift,<span style='color:red'>Fail,<span style='color:green'>Lift,<span style='color:green'>Lift","0,0,1,1,0,0,0,0,1,0,1,0","0,0,1,1,1,1,0,1,1,1,1,0","0,1,1,0,1,1",10,20,20,"","","","","{""box1"":""50""}","",NA,5,"round3_ready",4,5,3,NA,NA,NA,NA,NA,NA,NA,NA,NA,NA,NA,NA,NA,NA,50,50,NA,NA,NA,NA,NA,NA,NA,NA,NA,50,50,NA,NA,NA,NA,NA,NA,NA,NA,NA,"",NA,NA,NA,NA,NA,NA,NA,NA,2025-11-18 02:20:56
"19212.20000000298","https://psyc-201.github.io/xiang2023/exp/index1.html?PROLIFIC_PID=REDACTED&STUDY_ID=69168b21477cff9ada6cb980&SESSION_ID=691bd3a2cfac43e7aebac1ec","survey-html-form",40,946351,"0.0-349.0-0.0","Z4cBGxLmWFUpYAGMyvMU6anEwIw7Gsys6d2QUGTJYrtS1mXGJqxPxFEJlRqbQX9M4qYkM5Qo4MK8sP7MCs6uVBf+9A3zJFze4Xw8XxlqXGAdSKhDw1cOb48tvBYhHRD6uhNhRguYlQ73ni2YvzYStHHRoMR4EuTzjFpA4eeTFBdPie1Ibmqef1hivNl3eqGkkbTJk9O34PY3CcmxHYZ72C/f06X6TVB8+ZUzRVrg8iQkO7XyBHXp+d4SXNb3younzY991T1TnC1NGh6UmeRhifdFSXyrBBvBtJZ3mahRa21rDmThr71V5dm6ChAHmtvya6c3zMM7kQ7CL26+a6GplQ==","69168b21477cff9ada6cb980","691bd3a2cfac43e7aebac1ec","index1","<span style='color:red'>Fail,<span style='color:red'>Fail,<span style='color:green'>Lift,<span style='color:green'>Lift,<span style='color:red'>Fail,<span style='color:red'>Fail,<span style='color:red'>Fail,<span style='color:red'>Fail,<span style='color:green'>Lift,<span style='color:red'>Fail,<span style='color:green'>Lift,<span style='color:red'>Fail","<span style='color:red'>Fail,<span style='color:red'>Fail,<span style='color:green'>Lift,<span style='color:green'>Lift,<span style='color:green'>Lift,<span style='color:green'>Lift,<span style='color:red'>Fail,<span style='color:green'>Lift,<span style='color:green'>Lift,<span style='color:green'>Lift,<span style='color:green'>Lift,<span style='color:red'>Fail","<span style='color:red'>Fail,<span style='color:green'>Lift,<span style='color:green'>Lift,<span style='color:red'>Fail,<span style='color:green'>Lift,<span style='color:green'>Lift","0,0,1,1,0,0,0,0,1,0,1,0","0,0,1,1,1,1,0,1,1,1,1,0","0,1,1,0,1,1",10,20,20,"","","","","{""box1"":""3"",""box2"":""3"",""box3"":""999"",""box4"":""999""}","",NA,6,"round3_fail",5,5,3,3,3,NA,NA,0,0,20,NA,NA,NA,NA,NA,NA,NA,NA,NA,NA,NA,NA,NA,NA,NA,NA,NA,NA,NA,NA,3,3,NA,NA,0,0,20,1,1,"",NA,NA,NA,NA,NA,NA,NA,NA,2025-11-18 02:20:56
"null","https://psyc-201.github.io/xiang2023/exp/index1.html?PROLIFIC_PID=REDACTED&STUDY_ID=69168b21477cff9ada6cb980&SESSION_ID=691bd3a2cfac43e7aebac1ec","html-keyboard-response",41,949353,"0.0-352.0","Z4cBGxLmWFUpYAGMyvMU6anEwIw7Gsys6d2QUGTJYrtS1mXGJqxPxFEJlRqbQX9M4qYkM5Qo4MK8sP7MCs6uVBf+9A3zJFze4Xw8XxlqXGAdSKhDw1cOb48tvBYhHRD6uhNhRguYlQ73ni2YvzYStHHRoMR4EuTzjFpA4eeTFBdPie1Ibmqef1hivNl3eqGkkbTJk9O34PY3CcmxHYZ72C/f06X6TVB8+ZUzRVrg8iQkO7XyBHXp+d4SXNb3younzY991T1TnC1NGh6UmeRhifdFSXyrBBvBtJZ3mahRa21rDmThr71V5dm6ChAHmtvya6c3zMM7kQ7CL26+a6GplQ==","69168b21477cff9ada6cb980","691bd3a2cfac43e7aebac1ec","index1","<span style='color:red'>Fail,<span style='color:red'>Fail,<span style='color:green'>Lift,<span style='color:green'>Lift,<span style='color:red'>Fail,<span style='color:red'>Fail,<span style='color:red'>Fail,<span style='color:red'>Fail,<span style='color:green'>Lift,<span style='color:red'>Fail,<span style='color:green'>Lift,<span style='color:red'>Fail","<span style='color:red'>Fail,<span style='color:red'>Fail,<span style='color:green'>Lift,<span style='color:green'>Lift,<span style='color:green'>Lift,<span style='color:green'>Lift,<span style='color:red'>Fail,<span style='color:green'>Lift,<span style='color:green'>Lift,<span style='color:green'>Lift,<span style='color:green'>Lift,<span style='color:red'>Fail","<span style='color:red'>Fail,<span style='color:green'>Lift,<span style='color:green'>Lift,<span style='color:red'>Fail,<span style='color:green'>Lift,<span style='color:green'>Lift","0,0,1,1,0,0,0,0,1,0,1,0","0,0,1,1,1,1,0,1,1,1,1,0","0,1,1,0,1,1",10,20,20,"","","<p style='font-size:30px'><b> New Contest! </b></p>","null","","",NA,6,"",NA,NA,NA,NA,NA,NA,NA,NA,NA,NA,NA,NA,NA,NA,NA,NA,NA,NA,NA,NA,NA,NA,NA,NA,NA,NA,NA,NA,NA,NA,NA,NA,NA,NA,NA,NA,NA,NA,NA,"",NA,NA,NA,NA,NA,NA,NA,NA,2025-11-18 02:20:56
"14982.60000000149","https://psyc-201.github.io/xiang2023/exp/index1.html?PROLIFIC_PID=REDACTED&STUDY_ID=69168b21477cff9ada6cb980&SESSION_ID=691bd3a2cfac43e7aebac1ec","survey-html-form",42,964337,"0.0-353.0","Z4cBGxLmWFUpYAGMyvMU6anEwIw7Gsys6d2QUGTJYrtS1mXGJqxPxFEJlRqbQX9M4qYkM5Qo4MK8sP7MCs6uVBf+9A3zJFze4Xw8XxlqXGAdSKhDw1cOb48tvBYhHRD6uhNhRguYlQ73ni2YvzYStHHRoMR4EuTzjFpA4eeTFBdPie1Ibmqef1hivNl3eqGkkbTJk9O34PY3CcmxHYZ72C/f06X6TVB8+ZUzRVrg8iQkO7XyBHXp+d4SXNb3younzY991T1TnC1NGh6UmeRhifdFSXyrBBvBtJZ3mahRa21rDmThr71V5dm6ChAHmtvya6c3zMM7kQ7CL26+a6GplQ==","69168b21477cff9ada6cb980","691bd3a2cfac43e7aebac1ec","index1","<span style='color:red'>Fail,<span style='color:red'>Fail,<span style='color:green'>Lift,<span style='color:green'>Lift,<span style='color:red'>Fail,<span style='color:red'>Fail,<span style='color:red'>Fail,<span style='color:red'>Fail,<span style='color:green'>Lift,<span style='color:red'>Fail,<span style='color:green'>Lift,<span style='color:red'>Fail","<span style='color:red'>Fail,<span style='color:red'>Fail,<span style='color:green'>Lift,<span style='color:green'>Lift,<span style='color:green'>Lift,<span style='color:green'>Lift,<span style='color:red'>Fail,<span style='color:green'>Lift,<span style='color:green'>Lift,<span style='color:green'>Lift,<span style='color:green'>Lift,<span style='color:red'>Fail","<span style='color:red'>Fail,<span style='color:green'>Lift,<span style='color:green'>Lift,<span style='color:red'>Fail,<span style='color:green'>Lift,<span style='color:green'>Lift","0,0,1,1,0,0,0,0,1,0,1,0","0,0,1,1,1,1,0,1,1,1,1,0","0,1,1,0,1,1",10,20,20,"","","","","{""box1"":""5"",""box2"":""4"",""box3"":""85""}","",NA,6,"round1_outcome",1,6,1,5,4,85,NA,1,0,10,5,4,85,NA,1,0,10,NA,NA,NA,NA,NA,NA,NA,NA,NA,NA,NA,NA,NA,NA,NA,NA,NA,NA,NA,NA,NA,NA,"",NA,NA,NA,NA,NA,NA,NA,NA,2025-11-18 02:20:56
"9106.39999999851","https://psyc-201.github.io/xiang2023/exp/index1.html?PROLIFIC_PID=REDACTED&STUDY_ID=69168b21477cff9ada6cb980&SESSION_ID=691bd3a2cfac43e7aebac1ec","survey-html-form",43,973444,"0.0-354.0","Z4cBGxLmWFUpYAGMyvMU6anEwIw7Gsys6d2QUGTJYrtS1mXGJqxPxFEJlRqbQX9M4qYkM5Qo4MK8sP7MCs6uVBf+9A3zJFze4Xw8XxlqXGAdSKhDw1cOb48tvBYhHRD6uhNhRguYlQ73ni2YvzYStHHRoMR4EuTzjFpA4eeTFBdPie1Ibmqef1hivNl3eqGkkbTJk9O34PY3CcmxHYZ72C/f06X6TVB8+ZUzRVrg8iQkO7XyBHXp+d4SXNb3younzY991T1TnC1NGh6UmeRhifdFSXyrBBvBtJZ3mahRa21rDmThr71V5dm6ChAHmtvya6c3zMM7kQ7CL26+a6GplQ==","69168b21477cff9ada6cb980","691bd3a2cfac43e7aebac1ec","index1","<span style='color:red'>Fail,<span style='color:red'>Fail,<span style='color:green'>Lift,<span style='color:green'>Lift,<span style='color:red'>Fail,<span style='color:red'>Fail,<span style='color:red'>Fail,<span style='color:red'>Fail,<span style='color:green'>Lift,<span style='color:red'>Fail,<span style='color:green'>Lift,<span style='color:red'>Fail","<span style='color:red'>Fail,<span style='color:red'>Fail,<span style='color:green'>Lift,<span style='color:green'>Lift,<span style='color:green'>Lift,<span style='color:green'>Lift,<span style='color:red'>Fail,<span style='color:green'>Lift,<span style='color:green'>Lift,<span style='color:green'>Lift,<span style='color:green'>Lift,<span style='color:red'>Fail","<span style='color:red'>Fail,<span style='color:green'>Lift,<span style='color:green'>Lift,<span style='color:red'>Fail,<span style='color:green'>Lift,<span style='color:green'>Lift","0,0,1,1,0,0,0,0,1,0,1,0","0,0,1,1,1,1,0,1,1,1,1,0","0,1,1,0,1,1",10,20,20,"","","","","{""box1"":""95"",""box2"":""70""}","",NA,6,"round2_ready",2,6,2,NA,NA,NA,NA,NA,NA,NA,NA,NA,NA,NA,NA,NA,NA,95,70,95,70,NA,NA,NA,NA,NA,NA,NA,NA,NA,NA,NA,NA,NA,NA,NA,NA,NA,NA,"",NA,NA,NA,NA,NA,NA,NA,NA,2025-11-18 02:20:56
"15506.39999999851","https://psyc-201.github.io/xiang2023/exp/index1.html?PROLIFIC_PID=REDACTED&STUDY_ID=69168b21477cff9ada6cb980&SESSION_ID=691bd3a2cfac43e7aebac1ec","survey-html-form",44,988952,"0.0-355.0","Z4cBGxLmWFUpYAGMyvMU6anEwIw7Gsys6d2QUGTJYrtS1mXGJqxPxFEJlRqbQX9M4qYkM5Qo4MK8sP7MCs6uVBf+9A3zJFze4Xw8XxlqXGAdSKhDw1cOb48tvBYhHRD6uhNhRguYlQ73ni2YvzYStHHRoMR4EuTzjFpA4eeTFBdPie1Ibmqef1hivNl3eqGkkbTJk9O34PY3CcmxHYZ72C/f06X6TVB8+ZUzRVrg8iQkO7XyBHXp+d4SXNb3younzY991T1TnC1NGh6UmeRhifdFSXyrBBvBtJZ3mahRa21rDmThr71V5dm6ChAHmtvya6c3zMM7kQ7CL26+a6GplQ==","69168b21477cff9ada6cb980","691bd3a2cfac43e7aebac1ec","index1","<span style='color:red'>Fail,<span style='color:red'>Fail,<span style='color:green'>Lift,<span style='color:green'>Lift,<span style='color:red'>Fail,<span style='color:red'>Fail,<span style='color:red'>Fail,<span style='color:red'>Fail,<span style='color:green'>Lift,<span style='color:red'>Fail,<span style='color:green'>Lift,<span style='color:red'>Fail","<span style='color:red'>Fail,<span style='color:red'>Fail,<span style='color:green'>Lift,<span style='color:green'>Lift,<span style='color:green'>Lift,<span style='color:green'>Lift,<span style='color:red'>Fail,<span style='color:green'>Lift,<span style='color:green'>Lift,<span style='color:green'>Lift,<span style='color:green'>Lift,<span style='color:red'>Fail","<span style='color:red'>Fail,<span style='color:green'>Lift,<span style='color:green'>Lift,<span style='color:red'>Fail,<span style='color:green'>Lift,<span style='color:green'>Lift","0,0,1,1,0,0,0,0,1,0,1,0","0,0,1,1,1,1,0,1,1,1,1,0","0,1,1,0,1,1",10,20,20,"","","","","{""box1"":""5"",""box2"":""3"",""box3"":""95""}","",NA,6,"round2_outcome",3,6,2,5,3,95,NA,1,0,20,NA,NA,NA,NA,NA,NA,NA,NA,NA,NA,NA,5,3,95,NA,1,0,20,NA,NA,NA,NA,NA,NA,NA,NA,NA,NA,NA,"",NA,NA,NA,NA,NA,NA,NA,NA,2025-11-18 02:20:56
"9400.10000000149","https://psyc-201.github.io/xiang2023/exp/index1.html?PROLIFIC_PID=REDACTED&STUDY_ID=69168b21477cff9ada6cb980&SESSION_ID=691bd3a2cfac43e7aebac1ec","survey-html-form",45,998353,"0.0-356.0","Z4cBGxLmWFUpYAGMyvMU6anEwIw7Gsys6d2QUGTJYrtS1mXGJqxPxFEJlRqbQX9M4qYkM5Qo4MK8sP7MCs6uVBf+9A3zJFze4Xw8XxlqXGAdSKhDw1cOb48tvBYhHRD6uhNhRguYlQ73ni2YvzYStHHRoMR4EuTzjFpA4eeTFBdPie1Ibmqef1hivNl3eqGkkbTJk9O34PY3CcmxHYZ72C/f06X6TVB8+ZUzRVrg8iQkO7XyBHXp+d4SXNb3younzY991T1TnC1NGh6UmeRhifdFSXyrBBvBtJZ3mahRa21rDmThr71V5dm6ChAHmtvya6c3zMM7kQ7CL26+a6GplQ==","69168b21477cff9ada6cb980","691bd3a2cfac43e7aebac1ec","index1","<span style='color:red'>Fail,<span style='color:red'>Fail,<span style='color:green'>Lift,<span style='color:green'>Lift,<span style='color:red'>Fail,<span style='color:red'>Fail,<span style='color:red'>Fail,<span style='color:red'>Fail,<span style='color:green'>Lift,<span style='color:red'>Fail,<span style='color:green'>Lift,<span style='color:red'>Fail","<span style='color:red'>Fail,<span style='color:red'>Fail,<span style='color:green'>Lift,<span style='color:green'>Lift,<span style='color:green'>Lift,<span style='color:green'>Lift,<span style='color:red'>Fail,<span style='color:green'>Lift,<span style='color:green'>Lift,<span style='color:green'>Lift,<span style='color:green'>Lift,<span style='color:red'>Fail","<span style='color:red'>Fail,<span style='color:green'>Lift,<span style='color:green'>Lift,<span style='color:red'>Fail,<span style='color:green'>Lift,<span style='color:green'>Lift","0,0,1,1,0,0,0,0,1,0,1,0","0,0,1,1,1,1,0,1,1,1,1,0","0,1,1,0,1,1",10,20,20,"","","","","{""box1"":""95""}","",NA,6,"round3_ready",4,6,3,NA,NA,NA,NA,NA,NA,NA,NA,NA,NA,NA,NA,NA,NA,95,95,NA,NA,NA,NA,NA,NA,NA,NA,NA,95,95,NA,NA,NA,NA,NA,NA,NA,NA,NA,"",NA,NA,NA,NA,NA,NA,NA,NA,2025-11-18 02:20:56
"15247.09999999404","https://psyc-201.github.io/xiang2023/exp/index1.html?PROLIFIC_PID=REDACTED&STUDY_ID=69168b21477cff9ada6cb980&SESSION_ID=691bd3a2cfac43e7aebac1ec","survey-html-form",46,1013601,"0.0-357.0-0.0","Z4cBGxLmWFUpYAGMyvMU6anEwIw7Gsys6d2QUGTJYrtS1mXGJqxPxFEJlRqbQX9M4qYkM5Qo4MK8sP7MCs6uVBf+9A3zJFze4Xw8XxlqXGAdSKhDw1cOb48tvBYhHRD6uhNhRguYlQ73ni2YvzYStHHRoMR4EuTzjFpA4eeTFBdPie1Ibmqef1hivNl3eqGkkbTJk9O34PY3CcmxHYZ72C/f06X6TVB8+ZUzRVrg8iQkO7XyBHXp+d4SXNb3younzY991T1TnC1NGh6UmeRhifdFSXyrBBvBtJZ3mahRa21rDmThr71V5dm6ChAHmtvya6c3zMM7kQ7CL26+a6GplQ==","69168b21477cff9ada6cb980","691bd3a2cfac43e7aebac1ec","index1","<span style='color:red'>Fail,<span style='color:red'>Fail,<span style='color:green'>Lift,<span style='color:green'>Lift,<span style='color:red'>Fail,<span style='color:red'>Fail,<span style='color:red'>Fail,<span style='color:red'>Fail,<span style='color:green'>Lift,<span style='color:red'>Fail,<span style='color:green'>Lift,<span style='color:red'>Fail","<span style='color:red'>Fail,<span style='color:red'>Fail,<span style='color:green'>Lift,<span style='color:green'>Lift,<span style='color:green'>Lift,<span style='color:green'>Lift,<span style='color:red'>Fail,<span style='color:green'>Lift,<span style='color:green'>Lift,<span style='color:green'>Lift,<span style='color:green'>Lift,<span style='color:red'>Fail","<span style='color:red'>Fail,<span style='color:green'>Lift,<span style='color:green'>Lift,<span style='color:red'>Fail,<span style='color:green'>Lift,<span style='color:green'>Lift","0,0,1,1,0,0,0,0,1,0,1,0","0,0,1,1,1,1,0,1,1,1,1,0","0,1,1,0,1,1",10,20,20,"","","","","{""box1"":""5"",""box2"":""5"",""box3"":""90"",""box4"":""90""}","",NA,6,"round3_lift",5,6,3,5,5,90,90,1,1,20,NA,NA,NA,NA,NA,NA,NA,NA,NA,NA,NA,NA,NA,NA,NA,NA,NA,NA,NA,NA,5,5,90,90,1,1,20,NA,NA,"",NA,NA,NA,NA,NA,NA,NA,NA,2025-11-18 02:20:56
"66293.5","https://psyc-201.github.io/xiang2023/exp/index1.html?PROLIFIC_PID=REDACTED&STUDY_ID=69168b21477cff9ada6cb980&SESSION_ID=691bd3a2cfac43e7aebac1ec","survey-text",47,1079896,"0.0-361.0","Z4cBGxLmWFUpYAGMyvMU6anEwIw7Gsys6d2QUGTJYrtS1mXGJqxPxFEJlRqbQX9M4qYkM5Qo4MK8sP7MCs6uVBf+9A3zJFze4Xw8XxlqXGAdSKhDw1cOb48tvBYhHRD6uhNhRguYlQ73ni2YvzYStHHRoMR4EuTzjFpA4eeTFBdPie1Ibmqef1hivNl3eqGkkbTJk9O34PY3CcmxHYZ72C/f06X6TVB8+ZUzRVrg8iQkO7XyBHXp+d4SXNb3younzY991T1TnC1NGh6UmeRhifdFSXyrBBvBtJZ3mahRa21rDmThr71V5dm6ChAHmtvya6c3zMM7kQ7CL26+a6GplQ==","69168b21477cff9ada6cb980","691bd3a2cfac43e7aebac1ec","index1","<span style='color:red'>Fail,<span style='color:red'>Fail,<span style='color:green'>Lift,<span style='color:green'>Lift,<span style='color:red'>Fail,<span style='color:red'>Fail,<span style='color:red'>Fail,<span style='color:red'>Fail,<span style='color:green'>Lift,<span style='color:red'>Fail,<span style='color:green'>Lift,<span style='color:red'>Fail","<span style='color:red'>Fail,<span style='color:red'>Fail,<span style='color:green'>Lift,<span style='color:green'>Lift,<span style='color:green'>Lift,<span style='color:green'>Lift,<span style='color:red'>Fail,<span style='color:green'>Lift,<span style='color:green'>Lift,<span style='color:green'>Lift,<span style='color:green'>Lift,<span style='color:red'>Fail","<span style='color:red'>Fail,<span style='color:green'>Lift,<span style='color:green'>Lift,<span style='color:red'>Fail,<span style='color:green'>Lift,<span style='color:green'>Lift","0,0,1,1,0,0,0,0,1,0,1,0","0,0,1,1,1,1,0,1,1,1,1,0","0,1,1,0,1,1",10,20,20,"","","","","{""Q0"":""It was a game show called lift the box. I had to make an estimate of the percentage that the box would be lifted and how much effort each contestant used during the attempt.""}","",NA,NA,"",NA,NA,NA,NA,NA,NA,NA,NA,NA,NA,NA,NA,NA,NA,NA,NA,NA,NA,NA,NA,NA,NA,NA,NA,NA,NA,NA,NA,NA,NA,NA,NA,NA,NA,NA,NA,NA,NA,NA,"",NA,NA,NA,NA,NA,NA,NA,NA,2025-11-18 02:20:56
"15762.5","https://psyc-201.github.io/xiang2023/exp/index1.html?PROLIFIC_PID=REDACTED&STUDY_ID=69168b21477cff9ada6cb980&SESSION_ID=691bd3a2cfac43e7aebac1ec","survey-text",48,1095660,"0.0-362.0","Z4cBGxLmWFUpYAGMyvMU6anEwIw7Gsys6d2QUGTJYrtS1mXGJqxPxFEJlRqbQX9M4qYkM5Qo4MK8sP7MCs6uVBf+9A3zJFze4Xw8XxlqXGAdSKhDw1cOb48tvBYhHRD6uhNhRguYlQ73ni2YvzYStHHRoMR4EuTzjFpA4eeTFBdPie1Ibmqef1hivNl3eqGkkbTJk9O34PY3CcmxHYZ72C/f06X6TVB8+ZUzRVrg8iQkO7XyBHXp+d4SXNb3younzY991T1TnC1NGh6UmeRhifdFSXyrBBvBtJZ3mahRa21rDmThr71V5dm6ChAHmtvya6c3zMM7kQ7CL26+a6GplQ==","69168b21477cff9ada6cb980","691bd3a2cfac43e7aebac1ec","index1","<span style='color:red'>Fail,<span style='color:red'>Fail,<span style='color:green'>Lift,<span style='color:green'>Lift,<span style='color:red'>Fail,<span style='color:red'>Fail,<span style='color:red'>Fail,<span style='color:red'>Fail,<span style='color:green'>Lift,<span style='color:red'>Fail,<span style='color:green'>Lift,<span style='color:red'>Fail","<span style='color:red'>Fail,<span style='color:red'>Fail,<span style='color:green'>Lift,<span style='color:green'>Lift,<span style='color:green'>Lift,<span style='color:green'>Lift,<span style='color:red'>Fail,<span style='color:green'>Lift,<span style='color:green'>Lift,<span style='color:green'>Lift,<span style='color:green'>Lift,<span style='color:red'>Fail","<span style='color:red'>Fail,<span style='color:green'>Lift,<span style='color:green'>Lift,<span style='color:red'>Fail,<span style='color:green'>Lift,<span style='color:green'>Lift","0,0,1,1,0,0,0,0,1,0,1,0","0,0,1,1,1,1,0,1,1,1,1,0","0,1,1,0,1,1",10,20,20,"","","","","{""Q0"":""Everything worked great. Thank you!""}","",NA,NA,"",NA,NA,NA,NA,NA,NA,NA,NA,NA,NA,NA,NA,NA,NA,NA,NA,NA,NA,NA,NA,NA,NA,NA,NA,NA,NA,NA,NA,NA,NA,NA,NA,NA,NA,NA,NA,NA,NA,NA,"[{""event"":""fullscreenenter"",""trial"":1,""time"":8055}]",4,2,1,95,1,0.95,NA,NA,2025-11-18 02:20:56
"11863.79999999702","https://psyc-201.github.io/xiang2023/exp/index1.html?PROLIFIC_PID=REDACTED&STUDY_ID=69168b21477cff9ada6cb980&SESSION_ID=691bd3a2cfac43e7aebac1ec","html-button-response",49,1107525,"0.0-363.0","Z4cBGxLmWFUpYAGMyvMU6anEwIw7Gsys6d2QUGTJYrtS1mXGJqxPxFEJlRqbQX9M4qYkM5Qo4MK8sP7MCs6uVBf+9A3zJFze4Xw8XxlqXGAdSKhDw1cOb48tvBYhHRD6uhNhRguYlQ73ni2YvzYStHHRoMR4EuTzjFpA4eeTFBdPie1Ibmqef1hivNl3eqGkkbTJk9O34PY3CcmxHYZ72C/f06X6TVB8+ZUzRVrg8iQkO7XyBHXp+d4SXNb3younzY991T1TnC1NGh6UmeRhifdFSXyrBBvBtJZ3mahRa21rDmThr71V5dm6ChAHmtvya6c3zMM7kQ7CL26+a6GplQ==","69168b21477cff9ada6cb980","691bd3a2cfac43e7aebac1ec","index1","<span style='color:red'>Fail,<span style='color:red'>Fail,<span style='color:green'>Lift,<span style='color:green'>Lift,<span style='color:red'>Fail,<span style='color:red'>Fail,<span style='color:red'>Fail,<span style='color:red'>Fail,<span style='color:green'>Lift,<span style='color:red'>Fail,<span style='color:green'>Lift,<span style='color:red'>Fail","<span style='color:red'>Fail,<span style='color:red'>Fail,<span style='color:green'>Lift,<span style='color:green'>Lift,<span style='color:green'>Lift,<span style='color:green'>Lift,<span style='color:red'>Fail,<span style='color:green'>Lift,<span style='color:green'>Lift,<span style='color:green'>Lift,<span style='color:green'>Lift,<span style='color:red'>Fail","<span style='color:red'>Fail,<span style='color:green'>Lift,<span style='color:green'>Lift,<span style='color:red'>Fail,<span style='color:green'>Lift,<span style='color:green'>Lift","0,0,1,1,0,0,0,0,1,0,1,0","0,0,1,1,1,1,0,1,1,1,1,0","0,1,1,0,1,1",10,20,20,"","","<p> We randomly picked <b>Contest 4, Round 2</b> to calculate your bonus. </p><p> The outcome of Contestant H on that round is <span style='color:green'>Lift</span>. </p><p> The probability you entered was 95. </p><p><b> You won a bonus of $0.95!</b></p><p> IMPORTANT: Please click 'Next' to complete the game.</p>","","","",0,NA,"",NA,NA,NA,NA,NA,NA,NA,NA,NA,NA,NA,NA,NA,NA,NA,NA,NA,NA,NA,NA,NA,NA,NA,NA,NA,NA,NA,NA,NA,NA,NA,NA,NA,NA,NA,NA,NA,NA,NA,"",NA,NA,NA,NA,NA,NA,2,1,2025-11-18 02:20:56
