"rt","url","trial_type","trial_index","time_elapsed","internal_node_id","encryptedProlificId","studyId","sessionId","expIndex","round1_outcomes","round2_outcomes","round3_outcomes","round1_o","round2_o","round3_o","round1_reward","round2_reward","round3_reward","success","view_history","stimulus","key_press","responses","question_order","j","Stage","stage","contest","round","strength_a","strength_b","effort_a","effort_b","outcome_a","outcome_b","reward","r1_strength_a","r1_strength_b","r1_effort_a","r1_effort_b","r1_outcome_a","r1_outcome_b","r1_reward","probability_a","probability_b","r2_prob_a","r2_prob_b","r2_strength_a","r2_strength_b","r2_effort_a","r2_effort_b","r2_outcome_a","r2_outcome_b","r2_reward","r3_prob_a","r3_prob_b","r3_strength_a","r3_strength_b","r3_effort_a","r3_effort_b","r3_outcome_a","r3_outcome_b","r3_reward","attention_check","count","screen","pick_contest","pick_round","pick_side","trial_probability","trial_outcome","bonus","button_pressed","attention_sum","attention","datapipe_meta.attributes.date_modified"
"7822.400000002235","https://psyc-201.github.io/xiang2023/exp/index1.html?PROLIFIC_PID=REDACTED&STUDY_ID=691f8ca61c6b4dcbb0aeb5f4&SESSION_ID=691fc6cb0571382533ad0c9b","external-html",0,7826,"0.0-0.0","tAvYTw2t/r8Z2kckOjU/vEOOpp3Jpq0pqeH0iByNI0Y1V/z3qp3uFV5YoKEZLgTSRDDfYgc6i0d0fXC15KVHQ9ilW/OS95tp/7TwGEhE6oC37zSCra93t38w/ld2NAQ6OwBcLHeyb8BgcbwXpjeLm2i+fmj3PzHG1yzh1FmfZUdd3v48rU1DR0FR9gnRCbnuYRs+8IflWy/hMSt3wbwJv8kp0L4q9OQ+PEkhVNyH8LSWsD9hV4gmne+5zwoPKKPRy03YOaKVd9DDaZRocxKgThAyPLhi9o9OVQhGIRGxozfG8bZEoWviRFvLrqTGPb6hSYM8mqJIbQG5FWdvC5Bb/A==","691f8ca61c6b4dcbb0aeb5f4","691fc6cb0571382533ad0c9b","index1","<span style='color:red'>Fail,<span style='color:red'>Fail,<span style='color:green'>Lift,<span style='color:green'>Lift,<span style='color:red'>Fail,<span style='color:red'>Fail,<span style='color:red'>Fail,<span style='color:red'>Fail,<span style='color:red'>Fail,<span style='color:green'>Lift,<span style='color:green'>Lift,<span style='color:red'>Fail","<span style='color:red'>Fail,<span style='color:red'>Fail,<span style='color:green'>Lift,<span style='color:green'>Lift,<span style='color:green'>Lift,<span style='color:green'>Lift,<span style='color:green'>Lift,<span style='color:red'>Fail,<span style='color:green'>Lift,<span style='color:green'>Lift,<span style='color:green'>Lift,<span style='color:red'>Fail","<span style='color:red'>Fail,<span style='color:green'>Lift,<span style='color:green'>Lift,<span style='color:red'>Fail,<span style='color:green'>Lift,<span style='color:green'>Lift","0,0,1,1,0,0,0,0,0,1,1,0","0,0,1,1,1,1,1,0,1,1,1,0","0,1,1,0,1,1",10,20,20,"","","","","","",NA,"",NA,NA,NA,NA,NA,NA,NA,NA,NA,NA,NA,NA,NA,NA,NA,NA,NA,NA,NA,NA,NA,NA,NA,NA,NA,NA,NA,NA,NA,NA,NA,NA,NA,NA,NA,NA,NA,NA,NA,"",NA,NA,NA,NA,NA,NA,NA,NA,NA,2025-11-21 02:24:38
"","https://psyc-201.github.io/xiang2023/exp/index1.html?PROLIFIC_PID=REDACTED&STUDY_ID=691f8ca61c6b4dcbb0aeb5f4&SESSION_ID=691fc6cb0571382533ad0c9b","fullscreen",1,10741,"0.0-1.0","tAvYTw2t/r8Z2kckOjU/vEOOpp3Jpq0pqeH0iByNI0Y1V/z3qp3uFV5YoKEZLgTSRDDfYgc6i0d0fXC15KVHQ9ilW/OS95tp/7TwGEhE6oC37zSCra93t38w/ld2NAQ6OwBcLHeyb8BgcbwXpjeLm2i+fmj3PzHG1yzh1FmfZUdd3v48rU1DR0FR9gnRCbnuYRs+8IflWy/hMSt3wbwJv8kp0L4q9OQ+PEkhVNyH8LSWsD9hV4gmne+5zwoPKKPRy03YOaKVd9DDaZRocxKgThAyPLhi9o9OVQhGIRGxozfG8bZEoWviRFvLrqTGPb6hSYM8mqJIbQG5FWdvC5Bb/A==","691f8ca61c6b4dcbb0aeb5f4","691fc6cb0571382533ad0c9b","index1","<span style='color:red'>Fail,<span style='color:red'>Fail,<span style='color:green'>Lift,<span style='color:green'>Lift,<span style='color:red'>Fail,<span style='color:red'>Fail,<span style='color:red'>Fail,<span style='color:red'>Fail,<span style='color:red'>Fail,<span style='color:green'>Lift,<span style='color:green'>Lift,<span style='color:red'>Fail","<span style='color:red'>Fail,<span style='color:red'>Fail,<span style='color:green'>Lift,<span style='color:green'>Lift,<span style='color:green'>Lift,<span style='color:green'>Lift,<span style='color:green'>Lift,<span style='color:red'>Fail,<span style='color:green'>Lift,<span style='color:green'>Lift,<span style='color:green'>Lift,<span style='color:red'>Fail","<span style='color:red'>Fail,<span style='color:green'>Lift,<span style='color:green'>Lift,<span style='color:red'>Fail,<span style='color:green'>Lift,<span style='color:green'>Lift","0,0,1,1,0,0,0,0,0,1,1,0","0,0,1,1,1,1,1,0,1,1,1,0","0,1,1,0,1,1",10,20,20,"true","","","","","",NA,"",NA,NA,NA,NA,NA,NA,NA,NA,NA,NA,NA,NA,NA,NA,NA,NA,NA,NA,NA,NA,NA,NA,NA,NA,NA,NA,NA,NA,NA,NA,NA,NA,NA,NA,NA,NA,NA,NA,NA,"",NA,NA,NA,NA,NA,NA,NA,NA,NA,2025-11-21 02:24:38
"81250.10000000149","https://psyc-201.github.io/xiang2023/exp/index1.html?PROLIFIC_PID=REDACTED&STUDY_ID=691f8ca61c6b4dcbb0aeb5f4&SESSION_ID=691fc6cb0571382533ad0c9b","instructions",2,91988,"0.0-2.0","tAvYTw2t/r8Z2kckOjU/vEOOpp3Jpq0pqeH0iByNI0Y1V/z3qp3uFV5YoKEZLgTSRDDfYgc6i0d0fXC15KVHQ9ilW/OS95tp/7TwGEhE6oC37zSCra93t38w/ld2NAQ6OwBcLHeyb8BgcbwXpjeLm2i+fmj3PzHG1yzh1FmfZUdd3v48rU1DR0FR9gnRCbnuYRs+8IflWy/hMSt3wbwJv8kp0L4q9OQ+PEkhVNyH8LSWsD9hV4gmne+5zwoPKKPRy03YOaKVd9DDaZRocxKgThAyPLhi9o9OVQhGIRGxozfG8bZEoWviRFvLrqTGPb6hSYM8mqJIbQG5FWdvC5Bb/A==","691f8ca61c6b4dcbb0aeb5f4","691fc6cb0571382533ad0c9b","index1","<span style='color:red'>Fail,<span style='color:red'>Fail,<span style='color:green'>Lift,<span style='color:green'>Lift,<span style='color:red'>Fail,<span style='color:red'>Fail,<span style='color:red'>Fail,<span style='color:red'>Fail,<span style='color:red'>Fail,<span style='color:green'>Lift,<span style='color:green'>Lift,<span style='color:red'>Fail","<span style='color:red'>Fail,<span style='color:red'>Fail,<span style='color:green'>Lift,<span style='color:green'>Lift,<span style='color:green'>Lift,<span style='color:green'>Lift,<span style='color:green'>Lift,<span style='color:red'>Fail,<span style='color:green'>Lift,<span style='color:green'>Lift,<span style='color:green'>Lift,<span style='color:red'>Fail","<span style='color:red'>Fail,<span style='color:green'>Lift,<span style='color:green'>Lift,<span style='color:red'>Fail,<span style='color:green'>Lift,<span style='color:green'>Lift","0,0,1,1,0,0,0,0,0,1,1,0","0,0,1,1,1,1,1,0,1,1,1,0","0,1,1,0,1,1",10,20,20,"","[{""page_index"":0,""viewing_time"":24643.300000000745},{""page_index"":1,""viewing_time"":7088.5},{""page_index"":2,""viewing_time"":12853.400000002235},{""page_index"":3,""viewing_time"":11313.5},{""page_index"":4,""viewing_time"":3321},{""page_index"":5,""viewing_time"":10848.39999999851},{""page_index"":6,""viewing_time"":11181.39999999851}]","","","","",NA,"",NA,NA,NA,NA,NA,NA,NA,NA,NA,NA,NA,NA,NA,NA,NA,NA,NA,NA,NA,NA,NA,NA,NA,NA,NA,NA,NA,NA,NA,NA,NA,NA,NA,NA,NA,NA,NA,NA,NA,"",NA,NA,NA,NA,NA,NA,NA,NA,NA,2025-11-21 02:24:38
"null","https://psyc-201.github.io/xiang2023/exp/index1.html?PROLIFIC_PID=REDACTED&STUDY_ID=691f8ca61c6b4dcbb0aeb5f4&SESSION_ID=691fc6cb0571382533ad0c9b","html-keyboard-response",3,92991,"0.0-3.0","tAvYTw2t/r8Z2kckOjU/vEOOpp3Jpq0pqeH0iByNI0Y1V/z3qp3uFV5YoKEZLgTSRDDfYgc6i0d0fXC15KVHQ9ilW/OS95tp/7TwGEhE6oC37zSCra93t38w/ld2NAQ6OwBcLHeyb8BgcbwXpjeLm2i+fmj3PzHG1yzh1FmfZUdd3v48rU1DR0FR9gnRCbnuYRs+8IflWy/hMSt3wbwJv8kp0L4q9OQ+PEkhVNyH8LSWsD9hV4gmne+5zwoPKKPRy03YOaKVd9DDaZRocxKgThAyPLhi9o9OVQhGIRGxozfG8bZEoWviRFvLrqTGPb6hSYM8mqJIbQG5FWdvC5Bb/A==","691f8ca61c6b4dcbb0aeb5f4","691fc6cb0571382533ad0c9b","index1","<span style='color:red'>Fail,<span style='color:red'>Fail,<span style='color:green'>Lift,<span style='color:green'>Lift,<span style='color:red'>Fail,<span style='color:red'>Fail,<span style='color:red'>Fail,<span style='color:red'>Fail,<span style='color:red'>Fail,<span style='color:green'>Lift,<span style='color:green'>Lift,<span style='color:red'>Fail","<span style='color:red'>Fail,<span style='color:red'>Fail,<span style='color:green'>Lift,<span style='color:green'>Lift,<span style='color:green'>Lift,<span style='color:green'>Lift,<span style='color:green'>Lift,<span style='color:red'>Fail,<span style='color:green'>Lift,<span style='color:green'>Lift,<span style='color:green'>Lift,<span style='color:red'>Fail","<span style='color:red'>Fail,<span style='color:green'>Lift,<span style='color:green'>Lift,<span style='color:red'>Fail,<span style='color:green'>Lift,<span style='color:green'>Lift","0,0,1,1,0,0,0,0,0,1,1,0","0,0,1,1,1,1,1,0,1,1,1,0","0,1,1,0,1,1",10,20,20,"",""," ","null","","",NA,"",NA,NA,NA,NA,NA,NA,NA,NA,NA,NA,NA,NA,NA,NA,NA,NA,NA,NA,NA,NA,NA,NA,NA,NA,NA,NA,NA,NA,NA,NA,NA,NA,NA,NA,NA,NA,NA,NA,NA,"",NA,NA,NA,NA,NA,NA,NA,NA,NA,2025-11-21 02:24:38
"32620.29999999702","https://psyc-201.github.io/xiang2023/exp/index1.html?PROLIFIC_PID=REDACTED&STUDY_ID=691f8ca61c6b4dcbb0aeb5f4&SESSION_ID=691fc6cb0571382533ad0c9b","survey-multi-choice",4,125616,"0.0-4.0","tAvYTw2t/r8Z2kckOjU/vEOOpp3Jpq0pqeH0iByNI0Y1V/z3qp3uFV5YoKEZLgTSRDDfYgc6i0d0fXC15KVHQ9ilW/OS95tp/7TwGEhE6oC37zSCra93t38w/ld2NAQ6OwBcLHeyb8BgcbwXpjeLm2i+fmj3PzHG1yzh1FmfZUdd3v48rU1DR0FR9gnRCbnuYRs+8IflWy/hMSt3wbwJv8kp0L4q9OQ+PEkhVNyH8LSWsD9hV4gmne+5zwoPKKPRy03YOaKVd9DDaZRocxKgThAyPLhi9o9OVQhGIRGxozfG8bZEoWviRFvLrqTGPb6hSYM8mqJIbQG5FWdvC5Bb/A==","691f8ca61c6b4dcbb0aeb5f4","691fc6cb0571382533ad0c9b","index1","<span style='color:red'>Fail,<span style='color:red'>Fail,<span style='color:green'>Lift,<span style='color:green'>Lift,<span style='color:red'>Fail,<span style='color:red'>Fail,<span style='color:red'>Fail,<span style='color:red'>Fail,<span style='color:red'>Fail,<span style='color:green'>Lift,<span style='color:green'>Lift,<span style='color:red'>Fail","<span style='color:red'>Fail,<span style='color:red'>Fail,<span style='color:green'>Lift,<span style='color:green'>Lift,<span style='color:green'>Lift,<span style='color:green'>Lift,<span style='color:green'>Lift,<span style='color:red'>Fail,<span style='color:green'>Lift,<span style='color:green'>Lift,<span style='color:green'>Lift,<span style='color:red'>Fail","<span style='color:red'>Fail,<span style='color:green'>Lift,<span style='color:green'>Lift,<span style='color:red'>Fail,<span style='color:green'>Lift,<span style='color:green'>Lift","0,0,1,1,0,0,0,0,0,1,1,0","0,0,1,1,1,1,1,0,1,1,1,0","0,1,1,0,1,1",10,20,20,"","","","","{""Q0"":""It consists of multiple contests, each contest with three rounds."",""Q1"":""When a new contest begins."",""Q2"":""The box weight always stays the same (equivalent to strength of 5)."",""Q3"":""Each will get $20."",""Q4"":""How close my guesses are to the actual outcome.""}","[0,1,2,3,4]",NA,"",NA,NA,NA,NA,NA,NA,NA,NA,NA,NA,NA,NA,NA,NA,NA,NA,NA,NA,NA,NA,NA,NA,NA,NA,NA,NA,NA,NA,NA,NA,NA,NA,NA,NA,NA,NA,NA,NA,NA,"",NA,NA,NA,NA,NA,NA,NA,NA,NA,2025-11-21 02:24:38
"18283.300000000745","https://psyc-201.github.io/xiang2023/exp/index1.html?PROLIFIC_PID=REDACTED&STUDY_ID=691f8ca61c6b4dcbb0aeb5f4&SESSION_ID=691fc6cb0571382533ad0c9b","instructions",5,143905,"0.0-305.0","tAvYTw2t/r8Z2kckOjU/vEOOpp3Jpq0pqeH0iByNI0Y1V/z3qp3uFV5YoKEZLgTSRDDfYgc6i0d0fXC15KVHQ9ilW/OS95tp/7TwGEhE6oC37zSCra93t38w/ld2NAQ6OwBcLHeyb8BgcbwXpjeLm2i+fmj3PzHG1yzh1FmfZUdd3v48rU1DR0FR9gnRCbnuYRs+8IflWy/hMSt3wbwJv8kp0L4q9OQ+PEkhVNyH8LSWsD9hV4gmne+5zwoPKKPRy03YOaKVd9DDaZRocxKgThAyPLhi9o9OVQhGIRGxozfG8bZEoWviRFvLrqTGPb6hSYM8mqJIbQG5FWdvC5Bb/A==","691f8ca61c6b4dcbb0aeb5f4","691fc6cb0571382533ad0c9b","index1","<span style='color:red'>Fail,<span style='color:red'>Fail,<span style='color:green'>Lift,<span style='color:green'>Lift,<span style='color:red'>Fail,<span style='color:red'>Fail,<span style='color:red'>Fail,<span style='color:red'>Fail,<span style='color:red'>Fail,<span style='color:green'>Lift,<span style='color:green'>Lift,<span style='color:red'>Fail","<span style='color:red'>Fail,<span style='color:red'>Fail,<span style='color:green'>Lift,<span style='color:green'>Lift,<span style='color:green'>Lift,<span style='color:green'>Lift,<span style='color:green'>Lift,<span style='color:red'>Fail,<span style='color:green'>Lift,<span style='color:green'>Lift,<span style='color:green'>Lift,<span style='color:red'>Fail","<span style='color:red'>Fail,<span style='color:green'>Lift,<span style='color:green'>Lift,<span style='color:red'>Fail,<span style='color:green'>Lift,<span style='color:green'>Lift","0,0,1,1,0,0,0,0,0,1,1,0","0,0,1,1,1,1,1,0,1,1,1,0","0,1,1,0,1,1",10,20,20,"","[{""page_index"":0,""viewing_time"":8287.199999999255},{""page_index"":1,""viewing_time"":9995.60000000149}]","","","","",NA,"",NA,NA,NA,NA,NA,NA,NA,NA,NA,NA,NA,NA,NA,NA,NA,NA,NA,NA,NA,NA,NA,NA,NA,NA,NA,NA,NA,NA,NA,NA,NA,NA,NA,NA,NA,NA,NA,NA,NA,"",NA,NA,NA,NA,NA,NA,NA,NA,NA,2025-11-21 02:24:38
"null","https://psyc-201.github.io/xiang2023/exp/index1.html?PROLIFIC_PID=REDACTED&STUDY_ID=691f8ca61c6b4dcbb0aeb5f4&SESSION_ID=691fc6cb0571382533ad0c9b","html-keyboard-response",6,144907,"0.0-306.0","tAvYTw2t/r8Z2kckOjU/vEOOpp3Jpq0pqeH0iByNI0Y1V/z3qp3uFV5YoKEZLgTSRDDfYgc6i0d0fXC15KVHQ9ilW/OS95tp/7TwGEhE6oC37zSCra93t38w/ld2NAQ6OwBcLHeyb8BgcbwXpjeLm2i+fmj3PzHG1yzh1FmfZUdd3v48rU1DR0FR9gnRCbnuYRs+8IflWy/hMSt3wbwJv8kp0L4q9OQ+PEkhVNyH8LSWsD9hV4gmne+5zwoPKKPRy03YOaKVd9DDaZRocxKgThAyPLhi9o9OVQhGIRGxozfG8bZEoWviRFvLrqTGPb6hSYM8mqJIbQG5FWdvC5Bb/A==","691f8ca61c6b4dcbb0aeb5f4","691fc6cb0571382533ad0c9b","index1","<span style='color:red'>Fail,<span style='color:red'>Fail,<span style='color:green'>Lift,<span style='color:green'>Lift,<span style='color:red'>Fail,<span style='color:red'>Fail,<span style='color:red'>Fail,<span style='color:red'>Fail,<span style='color:red'>Fail,<span style='color:green'>Lift,<span style='color:green'>Lift,<span style='color:red'>Fail","<span style='color:red'>Fail,<span style='color:red'>Fail,<span style='color:green'>Lift,<span style='color:green'>Lift,<span style='color:green'>Lift,<span style='color:green'>Lift,<span style='color:green'>Lift,<span style='color:red'>Fail,<span style='color:green'>Lift,<span style='color:green'>Lift,<span style='color:green'>Lift,<span style='color:red'>Fail","<span style='color:red'>Fail,<span style='color:green'>Lift,<span style='color:green'>Lift,<span style='color:red'>Fail,<span style='color:green'>Lift,<span style='color:green'>Lift","0,0,1,1,0,0,0,0,0,1,1,0","0,0,1,1,1,1,1,0,1,1,1,0","0,1,1,0,1,1",10,20,20,"",""," ","null","","",1,"",NA,NA,NA,NA,NA,NA,NA,NA,NA,NA,NA,NA,NA,NA,NA,NA,NA,NA,NA,NA,NA,NA,NA,NA,NA,NA,NA,NA,NA,NA,NA,NA,NA,NA,NA,NA,NA,NA,NA,"",NA,NA,NA,NA,NA,NA,NA,NA,NA,2025-11-21 02:24:38
"null","https://psyc-201.github.io/xiang2023/exp/index1.html?PROLIFIC_PID=REDACTED&STUDY_ID=691f8ca61c6b4dcbb0aeb5f4&SESSION_ID=691fc6cb0571382533ad0c9b","html-keyboard-response",7,147911,"0.0-307.0","tAvYTw2t/r8Z2kckOjU/vEOOpp3Jpq0pqeH0iByNI0Y1V/z3qp3uFV5YoKEZLgTSRDDfYgc6i0d0fXC15KVHQ9ilW/OS95tp/7TwGEhE6oC37zSCra93t38w/ld2NAQ6OwBcLHeyb8BgcbwXpjeLm2i+fmj3PzHG1yzh1FmfZUdd3v48rU1DR0FR9gnRCbnuYRs+8IflWy/hMSt3wbwJv8kp0L4q9OQ+PEkhVNyH8LSWsD9hV4gmne+5zwoPKKPRy03YOaKVd9DDaZRocxKgThAyPLhi9o9OVQhGIRGxozfG8bZEoWviRFvLrqTGPb6hSYM8mqJIbQG5FWdvC5Bb/A==","691f8ca61c6b4dcbb0aeb5f4","691fc6cb0571382533ad0c9b","index1","<span style='color:red'>Fail,<span style='color:red'>Fail,<span style='color:green'>Lift,<span style='color:green'>Lift,<span style='color:red'>Fail,<span style='color:red'>Fail,<span style='color:red'>Fail,<span style='color:red'>Fail,<span style='color:red'>Fail,<span style='color:green'>Lift,<span style='color:green'>Lift,<span style='color:red'>Fail","<span style='color:red'>Fail,<span style='color:red'>Fail,<span style='color:green'>Lift,<span style='color:green'>Lift,<span style='color:green'>Lift,<span style='color:green'>Lift,<span style='color:green'>Lift,<span style='color:red'>Fail,<span style='color:green'>Lift,<span style='color:green'>Lift,<span style='color:green'>Lift,<span style='color:red'>Fail","<span style='color:red'>Fail,<span style='color:green'>Lift,<span style='color:green'>Lift,<span style='color:red'>Fail,<span style='color:green'>Lift,<span style='color:green'>Lift","0,0,1,1,0,0,0,0,0,1,1,0","0,0,1,1,1,1,1,0,1,1,1,0","0,1,1,0,1,1",10,20,20,"","","<p style='font-size:30px'><b> New Contest! </b></p>","null","","",1,"",NA,NA,NA,NA,NA,NA,NA,NA,NA,NA,NA,NA,NA,NA,NA,NA,NA,NA,NA,NA,NA,NA,NA,NA,NA,NA,NA,NA,NA,NA,NA,NA,NA,NA,NA,NA,NA,NA,NA,"",NA,NA,NA,NA,NA,NA,NA,NA,NA,2025-11-21 02:24:38
"82427.39999999851","https://psyc-201.github.io/xiang2023/exp/index1.html?PROLIFIC_PID=REDACTED&STUDY_ID=691f8ca61c6b4dcbb0aeb5f4&SESSION_ID=691fc6cb0571382533ad0c9b","survey-html-form",8,230340,"0.0-308.0","tAvYTw2t/r8Z2kckOjU/vEOOpp3Jpq0pqeH0iByNI0Y1V/z3qp3uFV5YoKEZLgTSRDDfYgc6i0d0fXC15KVHQ9ilW/OS95tp/7TwGEhE6oC37zSCra93t38w/ld2NAQ6OwBcLHeyb8BgcbwXpjeLm2i+fmj3PzHG1yzh1FmfZUdd3v48rU1DR0FR9gnRCbnuYRs+8IflWy/hMSt3wbwJv8kp0L4q9OQ+PEkhVNyH8LSWsD9hV4gmne+5zwoPKKPRy03YOaKVd9DDaZRocxKgThAyPLhi9o9OVQhGIRGxozfG8bZEoWviRFvLrqTGPb6hSYM8mqJIbQG5FWdvC5Bb/A==","691f8ca61c6b4dcbb0aeb5f4","691fc6cb0571382533ad0c9b","index1","<span style='color:red'>Fail,<span style='color:red'>Fail,<span style='color:green'>Lift,<span style='color:green'>Lift,<span style='color:red'>Fail,<span style='color:red'>Fail,<span style='color:red'>Fail,<span style='color:red'>Fail,<span style='color:red'>Fail,<span style='color:green'>Lift,<span style='color:green'>Lift,<span style='color:red'>Fail","<span style='color:red'>Fail,<span style='color:red'>Fail,<span style='color:green'>Lift,<span style='color:green'>Lift,<span style='color:green'>Lift,<span style='color:green'>Lift,<span style='color:green'>Lift,<span style='color:red'>Fail,<span style='color:green'>Lift,<span style='color:green'>Lift,<span style='color:green'>Lift,<span style='color:red'>Fail","<span style='color:red'>Fail,<span style='color:green'>Lift,<span style='color:green'>Lift,<span style='color:red'>Fail,<span style='color:green'>Lift,<span style='color:green'>Lift","0,0,1,1,0,0,0,0,0,1,1,0","0,0,1,1,1,1,1,0,1,1,1,0","0,1,1,0,1,1",10,20,20,"","","","","{""box1"":""3"",""box2"":""7"",""box4"":""80""}","",1,"round1_outcome",1,1,1,3,7,NA,80,0,1,10,3,7,NA,80,0,1,10,NA,NA,NA,NA,NA,NA,NA,NA,NA,NA,NA,NA,NA,NA,NA,NA,NA,NA,NA,NA,NA,NA,"",NA,NA,NA,NA,NA,NA,NA,NA,NA,2025-11-21 02:24:38
"28301","https://psyc-201.github.io/xiang2023/exp/index1.html?PROLIFIC_PID=REDACTED&STUDY_ID=691f8ca61c6b4dcbb0aeb5f4&SESSION_ID=691fc6cb0571382533ad0c9b","survey-html-form",9,258646,"0.0-309.0","tAvYTw2t/r8Z2kckOjU/vEOOpp3Jpq0pqeH0iByNI0Y1V/z3qp3uFV5YoKEZLgTSRDDfYgc6i0d0fXC15KVHQ9ilW/OS95tp/7TwGEhE6oC37zSCra93t38w/ld2NAQ6OwBcLHeyb8BgcbwXpjeLm2i+fmj3PzHG1yzh1FmfZUdd3v48rU1DR0FR9gnRCbnuYRs+8IflWy/hMSt3wbwJv8kp0L4q9OQ+PEkhVNyH8LSWsD9hV4gmne+5zwoPKKPRy03YOaKVd9DDaZRocxKgThAyPLhi9o9OVQhGIRGxozfG8bZEoWviRFvLrqTGPb6hSYM8mqJIbQG5FWdvC5Bb/A==","691f8ca61c6b4dcbb0aeb5f4","691fc6cb0571382533ad0c9b","index1","<span style='color:red'>Fail,<span style='color:red'>Fail,<span style='color:green'>Lift,<span style='color:green'>Lift,<span style='color:red'>Fail,<span style='color:red'>Fail,<span style='color:red'>Fail,<span style='color:red'>Fail,<span style='color:red'>Fail,<span style='color:green'>Lift,<span style='color:green'>Lift,<span style='color:red'>Fail","<span style='color:red'>Fail,<span style='color:red'>Fail,<span style='color:green'>Lift,<span style='color:green'>Lift,<span style='color:green'>Lift,<span style='color:green'>Lift,<span style='color:green'>Lift,<span style='color:red'>Fail,<span style='color:green'>Lift,<span style='color:green'>Lift,<span style='color:green'>Lift,<span style='color:red'>Fail","<span style='color:red'>Fail,<span style='color:green'>Lift,<span style='color:green'>Lift,<span style='color:red'>Fail,<span style='color:green'>Lift,<span style='color:green'>Lift","0,0,1,1,0,0,0,0,0,1,1,0","0,0,1,1,1,1,1,0,1,1,1,0","0,1,1,0,1,1",10,20,20,"","","","","{""box1"":""20"",""box2"":""90""}","",1,"round2_ready",2,1,2,NA,NA,NA,NA,NA,NA,NA,NA,NA,NA,NA,NA,NA,NA,20,90,20,90,NA,NA,NA,NA,NA,NA,NA,NA,NA,NA,NA,NA,NA,NA,NA,NA,NA,NA,"",NA,NA,NA,NA,NA,NA,NA,NA,NA,2025-11-21 02:24:38
"27857.900000002235","https://psyc-201.github.io/xiang2023/exp/index1.html?PROLIFIC_PID=REDACTED&STUDY_ID=691f8ca61c6b4dcbb0aeb5f4&SESSION_ID=691fc6cb0571382533ad0c9b","survey-html-form",10,286506,"0.0-310.0","tAvYTw2t/r8Z2kckOjU/vEOOpp3Jpq0pqeH0iByNI0Y1V/z3qp3uFV5YoKEZLgTSRDDfYgc6i0d0fXC15KVHQ9ilW/OS95tp/7TwGEhE6oC37zSCra93t38w/ld2NAQ6OwBcLHeyb8BgcbwXpjeLm2i+fmj3PzHG1yzh1FmfZUdd3v48rU1DR0FR9gnRCbnuYRs+8IflWy/hMSt3wbwJv8kp0L4q9OQ+PEkhVNyH8LSWsD9hV4gmne+5zwoPKKPRy03YOaKVd9DDaZRocxKgThAyPLhi9o9OVQhGIRGxozfG8bZEoWviRFvLrqTGPb6hSYM8mqJIbQG5FWdvC5Bb/A==","691f8ca61c6b4dcbb0aeb5f4","691fc6cb0571382533ad0c9b","index1","<span style='color:red'>Fail,<span style='color:red'>Fail,<span style='color:green'>Lift,<span style='color:green'>Lift,<span style='color:red'>Fail,<span style='color:red'>Fail,<span style='color:red'>Fail,<span style='color:red'>Fail,<span style='color:red'>Fail,<span style='color:green'>Lift,<span style='color:green'>Lift,<span style='color:red'>Fail","<span style='color:red'>Fail,<span style='color:red'>Fail,<span style='color:green'>Lift,<span style='color:green'>Lift,<span style='color:green'>Lift,<span style='color:green'>Lift,<span style='color:green'>Lift,<span style='color:red'>Fail,<span style='color:green'>Lift,<span style='color:green'>Lift,<span style='color:green'>Lift,<span style='color:red'>Fail","<span style='color:red'>Fail,<span style='color:green'>Lift,<span style='color:green'>Lift,<span style='color:red'>Fail,<span style='color:green'>Lift,<span style='color:green'>Lift","0,0,1,1,0,0,0,0,0,1,1,0","0,0,1,1,1,1,1,0,1,1,1,0","0,1,1,0,1,1",10,20,20,"","","","","{""box1"":""6"",""box2"":""7"",""box3"":""100"",""box4"":""100""}","",1,"round2_outcome",3,1,2,6,7,100,100,1,1,20,NA,NA,NA,NA,NA,NA,NA,NA,NA,NA,NA,6,7,100,100,1,1,20,NA,NA,NA,NA,NA,NA,NA,NA,NA,NA,NA,"",NA,NA,NA,NA,NA,NA,NA,NA,NA,2025-11-21 02:24:38
"76735.70000000298","https://psyc-201.github.io/xiang2023/exp/index1.html?PROLIFIC_PID=REDACTED&STUDY_ID=691f8ca61c6b4dcbb0aeb5f4&SESSION_ID=691fc6cb0571382533ad0c9b","survey-html-form",11,363242,"0.0-311.0","tAvYTw2t/r8Z2kckOjU/vEOOpp3Jpq0pqeH0iByNI0Y1V/z3qp3uFV5YoKEZLgTSRDDfYgc6i0d0fXC15KVHQ9ilW/OS95tp/7TwGEhE6oC37zSCra93t38w/ld2NAQ6OwBcLHeyb8BgcbwXpjeLm2i+fmj3PzHG1yzh1FmfZUdd3v48rU1DR0FR9gnRCbnuYRs+8IflWy/hMSt3wbwJv8kp0L4q9OQ+PEkhVNyH8LSWsD9hV4gmne+5zwoPKKPRy03YOaKVd9DDaZRocxKgThAyPLhi9o9OVQhGIRGxozfG8bZEoWviRFvLrqTGPb6hSYM8mqJIbQG5FWdvC5Bb/A==","691f8ca61c6b4dcbb0aeb5f4","691fc6cb0571382533ad0c9b","index1","<span style='color:red'>Fail,<span style='color:red'>Fail,<span style='color:green'>Lift,<span style='color:green'>Lift,<span style='color:red'>Fail,<span style='color:red'>Fail,<span style='color:red'>Fail,<span style='color:red'>Fail,<span style='color:red'>Fail,<span style='color:green'>Lift,<span style='color:green'>Lift,<span style='color:red'>Fail","<span style='color:red'>Fail,<span style='color:red'>Fail,<span style='color:green'>Lift,<span style='color:green'>Lift,<span style='color:green'>Lift,<span style='color:green'>Lift,<span style='color:green'>Lift,<span style='color:red'>Fail,<span style='color:green'>Lift,<span style='color:green'>Lift,<span style='color:green'>Lift,<span style='color:red'>Fail","<span style='color:red'>Fail,<span style='color:green'>Lift,<span style='color:green'>Lift,<span style='color:red'>Fail,<span style='color:green'>Lift,<span style='color:green'>Lift","0,0,1,1,0,0,0,0,0,1,1,0","0,0,1,1,1,1,1,0,1,1,1,0","0,1,1,0,1,1",10,20,20,"","","","","{""box1"":""97""}","",1,"round3_ready",4,1,3,NA,NA,NA,NA,NA,NA,NA,NA,NA,NA,NA,NA,NA,NA,97,97,NA,NA,NA,NA,NA,NA,NA,NA,NA,97,97,NA,NA,NA,NA,NA,NA,NA,NA,NA,"",NA,NA,NA,NA,NA,NA,NA,NA,NA,2025-11-21 02:24:38
"34943.800000000745","https://psyc-201.github.io/xiang2023/exp/index1.html?PROLIFIC_PID=REDACTED&STUDY_ID=691f8ca61c6b4dcbb0aeb5f4&SESSION_ID=691fc6cb0571382533ad0c9b","survey-html-form",12,398197,"0.0-312.0-0.0","tAvYTw2t/r8Z2kckOjU/vEOOpp3Jpq0pqeH0iByNI0Y1V/z3qp3uFV5YoKEZLgTSRDDfYgc6i0d0fXC15KVHQ9ilW/OS95tp/7TwGEhE6oC37zSCra93t38w/ld2NAQ6OwBcLHeyb8BgcbwXpjeLm2i+fmj3PzHG1yzh1FmfZUdd3v48rU1DR0FR9gnRCbnuYRs+8IflWy/hMSt3wbwJv8kp0L4q9OQ+PEkhVNyH8LSWsD9hV4gmne+5zwoPKKPRy03YOaKVd9DDaZRocxKgThAyPLhi9o9OVQhGIRGxozfG8bZEoWviRFvLrqTGPb6hSYM8mqJIbQG5FWdvC5Bb/A==","691f8ca61c6b4dcbb0aeb5f4","691fc6cb0571382533ad0c9b","index1","<span style='color:red'>Fail,<span style='color:red'>Fail,<span style='color:green'>Lift,<span style='color:green'>Lift,<span style='color:red'>Fail,<span style='color:red'>Fail,<span style='color:red'>Fail,<span style='color:red'>Fail,<span style='color:red'>Fail,<span style='color:green'>Lift,<span style='color:green'>Lift,<span style='color:red'>Fail","<span style='color:red'>Fail,<span style='color:red'>Fail,<span style='color:green'>Lift,<span style='color:green'>Lift,<span style='color:green'>Lift,<span style='color:green'>Lift,<span style='color:green'>Lift,<span style='color:red'>Fail,<span style='color:green'>Lift,<span style='color:green'>Lift,<span style='color:green'>Lift,<span style='color:red'>Fail","<span style='color:red'>Fail,<span style='color:green'>Lift,<span style='color:green'>Lift,<span style='color:red'>Fail,<span style='color:green'>Lift,<span style='color:green'>Lift","0,0,1,1,0,0,0,0,0,1,1,0","0,0,1,1,1,1,1,0,1,1,1,0","0,1,1,0,1,1",10,20,20,"","","","","{""box1"":""6"",""box2"":""7"",""box3"":""70"",""box4"":""60""}","",2,"round3_lift",5,1,3,6,7,70,60,1,1,20,NA,NA,NA,NA,NA,NA,NA,NA,NA,NA,NA,NA,NA,NA,NA,NA,NA,NA,NA,NA,6,7,70,60,1,1,20,NA,NA,"",NA,NA,NA,NA,NA,NA,NA,NA,NA,2025-11-21 02:24:38
"null","https://psyc-201.github.io/xiang2023/exp/index1.html?PROLIFIC_PID=REDACTED&STUDY_ID=691f8ca61c6b4dcbb0aeb5f4&SESSION_ID=691fc6cb0571382533ad0c9b","html-keyboard-response",13,401201,"0.0-316.0","tAvYTw2t/r8Z2kckOjU/vEOOpp3Jpq0pqeH0iByNI0Y1V/z3qp3uFV5YoKEZLgTSRDDfYgc6i0d0fXC15KVHQ9ilW/OS95tp/7TwGEhE6oC37zSCra93t38w/ld2NAQ6OwBcLHeyb8BgcbwXpjeLm2i+fmj3PzHG1yzh1FmfZUdd3v48rU1DR0FR9gnRCbnuYRs+8IflWy/hMSt3wbwJv8kp0L4q9OQ+PEkhVNyH8LSWsD9hV4gmne+5zwoPKKPRy03YOaKVd9DDaZRocxKgThAyPLhi9o9OVQhGIRGxozfG8bZEoWviRFvLrqTGPb6hSYM8mqJIbQG5FWdvC5Bb/A==","691f8ca61c6b4dcbb0aeb5f4","691fc6cb0571382533ad0c9b","index1","<span style='color:red'>Fail,<span style='color:red'>Fail,<span style='color:green'>Lift,<span style='color:green'>Lift,<span style='color:red'>Fail,<span style='color:red'>Fail,<span style='color:red'>Fail,<span style='color:red'>Fail,<span style='color:red'>Fail,<span style='color:green'>Lift,<span style='color:green'>Lift,<span style='color:red'>Fail","<span style='color:red'>Fail,<span style='color:red'>Fail,<span style='color:green'>Lift,<span style='color:green'>Lift,<span style='color:green'>Lift,<span style='color:green'>Lift,<span style='color:green'>Lift,<span style='color:red'>Fail,<span style='color:green'>Lift,<span style='color:green'>Lift,<span style='color:green'>Lift,<span style='color:red'>Fail","<span style='color:red'>Fail,<span style='color:green'>Lift,<span style='color:green'>Lift,<span style='color:red'>Fail,<span style='color:green'>Lift,<span style='color:green'>Lift","0,0,1,1,0,0,0,0,0,1,1,0","0,0,1,1,1,1,1,0,1,1,1,0","0,1,1,0,1,1",10,20,20,"","","<p style='font-size:30px'><b> New Contest! </b></p>","null","","",2,"",NA,NA,NA,NA,NA,NA,NA,NA,NA,NA,NA,NA,NA,NA,NA,NA,NA,NA,NA,NA,NA,NA,NA,NA,NA,NA,NA,NA,NA,NA,NA,NA,NA,NA,NA,NA,NA,NA,NA,"",NA,NA,NA,NA,NA,NA,NA,NA,NA,2025-11-21 02:24:38
"25354.699999999255","https://psyc-201.github.io/xiang2023/exp/index1.html?PROLIFIC_PID=REDACTED&STUDY_ID=691f8ca61c6b4dcbb0aeb5f4&SESSION_ID=691fc6cb0571382533ad0c9b","survey-html-form",14,426556,"0.0-317.0","tAvYTw2t/r8Z2kckOjU/vEOOpp3Jpq0pqeH0iByNI0Y1V/z3qp3uFV5YoKEZLgTSRDDfYgc6i0d0fXC15KVHQ9ilW/OS95tp/7TwGEhE6oC37zSCra93t38w/ld2NAQ6OwBcLHeyb8BgcbwXpjeLm2i+fmj3PzHG1yzh1FmfZUdd3v48rU1DR0FR9gnRCbnuYRs+8IflWy/hMSt3wbwJv8kp0L4q9OQ+PEkhVNyH8LSWsD9hV4gmne+5zwoPKKPRy03YOaKVd9DDaZRocxKgThAyPLhi9o9OVQhGIRGxozfG8bZEoWviRFvLrqTGPb6hSYM8mqJIbQG5FWdvC5Bb/A==","691f8ca61c6b4dcbb0aeb5f4","691fc6cb0571382533ad0c9b","index1","<span style='color:red'>Fail,<span style='color:red'>Fail,<span style='color:green'>Lift,<span style='color:green'>Lift,<span style='color:red'>Fail,<span style='color:red'>Fail,<span style='color:red'>Fail,<span style='color:red'>Fail,<span style='color:red'>Fail,<span style='color:green'>Lift,<span style='color:green'>Lift,<span style='color:red'>Fail","<span style='color:red'>Fail,<span style='color:red'>Fail,<span style='color:green'>Lift,<span style='color:green'>Lift,<span style='color:green'>Lift,<span style='color:green'>Lift,<span style='color:green'>Lift,<span style='color:red'>Fail,<span style='color:green'>Lift,<span style='color:green'>Lift,<span style='color:green'>Lift,<span style='color:red'>Fail","<span style='color:red'>Fail,<span style='color:green'>Lift,<span style='color:green'>Lift,<span style='color:red'>Fail,<span style='color:green'>Lift,<span style='color:green'>Lift","0,0,1,1,0,0,0,0,0,1,1,0","0,0,1,1,1,1,1,0,1,1,1,0","0,1,1,0,1,1",10,20,20,"","","","","{""box1"":""3"",""box2"":""3""}","",2,"round1_outcome",1,2,1,3,3,NA,NA,0,0,10,3,3,NA,NA,0,0,10,NA,NA,NA,NA,NA,NA,NA,NA,NA,NA,NA,NA,NA,NA,NA,NA,NA,NA,NA,NA,NA,NA,"",NA,NA,NA,NA,NA,NA,NA,NA,NA,2025-11-21 02:24:38
"410988.6000000015","https://psyc-201.github.io/xiang2023/exp/index1.html?PROLIFIC_PID=REDACTED&STUDY_ID=691f8ca61c6b4dcbb0aeb5f4&SESSION_ID=691fc6cb0571382533ad0c9b","survey-html-form",15,837525,"0.0-318.0","tAvYTw2t/r8Z2kckOjU/vEOOpp3Jpq0pqeH0iByNI0Y1V/z3qp3uFV5YoKEZLgTSRDDfYgc6i0d0fXC15KVHQ9ilW/OS95tp/7TwGEhE6oC37zSCra93t38w/ld2NAQ6OwBcLHeyb8BgcbwXpjeLm2i+fmj3PzHG1yzh1FmfZUdd3v48rU1DR0FR9gnRCbnuYRs+8IflWy/hMSt3wbwJv8kp0L4q9OQ+PEkhVNyH8LSWsD9hV4gmne+5zwoPKKPRy03YOaKVd9DDaZRocxKgThAyPLhi9o9OVQhGIRGxozfG8bZEoWviRFvLrqTGPb6hSYM8mqJIbQG5FWdvC5Bb/A==","691f8ca61c6b4dcbb0aeb5f4","691fc6cb0571382533ad0c9b","index1","<span style='color:red'>Fail,<span style='color:red'>Fail,<span style='color:green'>Lift,<span style='color:green'>Lift,<span style='color:red'>Fail,<span style='color:red'>Fail,<span style='color:red'>Fail,<span style='color:red'>Fail,<span style='color:red'>Fail,<span style='color:green'>Lift,<span style='color:green'>Lift,<span style='color:red'>Fail","<span style='color:red'>Fail,<span style='color:red'>Fail,<span style='color:green'>Lift,<span style='color:green'>Lift,<span style='color:green'>Lift,<span style='color:green'>Lift,<span style='color:green'>Lift,<span style='color:red'>Fail,<span style='color:green'>Lift,<span style='color:green'>Lift,<span style='color:green'>Lift,<span style='color:red'>Fail","<span style='color:red'>Fail,<span style='color:green'>Lift,<span style='color:green'>Lift,<span style='color:red'>Fail,<span style='color:green'>Lift,<span style='color:green'>Lift","0,0,1,1,0,0,0,0,0,1,1,0","0,0,1,1,1,1,1,0,1,1,1,0","0,1,1,0,1,1",10,20,20,"","","","","{""box1"":""40"",""box2"":""40""}","",2,"round2_ready",2,2,2,NA,NA,NA,NA,NA,NA,NA,NA,NA,NA,NA,NA,NA,NA,40,40,40,40,NA,NA,NA,NA,NA,NA,NA,NA,NA,NA,NA,NA,NA,NA,NA,NA,NA,NA,"",NA,NA,NA,NA,NA,NA,NA,NA,NA,2025-11-21 02:24:38
"37188","https://psyc-201.github.io/xiang2023/exp/index1.html?PROLIFIC_PID=REDACTED&STUDY_ID=691f8ca61c6b4dcbb0aeb5f4&SESSION_ID=691fc6cb0571382533ad0c9b","survey-html-form",16,874722,"0.0-319.0","tAvYTw2t/r8Z2kckOjU/vEOOpp3Jpq0pqeH0iByNI0Y1V/z3qp3uFV5YoKEZLgTSRDDfYgc6i0d0fXC15KVHQ9ilW/OS95tp/7TwGEhE6oC37zSCra93t38w/ld2NAQ6OwBcLHeyb8BgcbwXpjeLm2i+fmj3PzHG1yzh1FmfZUdd3v48rU1DR0FR9gnRCbnuYRs+8IflWy/hMSt3wbwJv8kp0L4q9OQ+PEkhVNyH8LSWsD9hV4gmne+5zwoPKKPRy03YOaKVd9DDaZRocxKgThAyPLhi9o9OVQhGIRGxozfG8bZEoWviRFvLrqTGPb6hSYM8mqJIbQG5FWdvC5Bb/A==","691f8ca61c6b4dcbb0aeb5f4","691fc6cb0571382533ad0c9b","index1","<span style='color:red'>Fail,<span style='color:red'>Fail,<span style='color:green'>Lift,<span style='color:green'>Lift,<span style='color:red'>Fail,<span style='color:red'>Fail,<span style='color:red'>Fail,<span style='color:red'>Fail,<span style='color:red'>Fail,<span style='color:green'>Lift,<span style='color:green'>Lift,<span style='color:red'>Fail","<span style='color:red'>Fail,<span style='color:red'>Fail,<span style='color:green'>Lift,<span style='color:green'>Lift,<span style='color:green'>Lift,<span style='color:green'>Lift,<span style='color:green'>Lift,<span style='color:red'>Fail,<span style='color:green'>Lift,<span style='color:green'>Lift,<span style='color:green'>Lift,<span style='color:red'>Fail","<span style='color:red'>Fail,<span style='color:green'>Lift,<span style='color:green'>Lift,<span style='color:red'>Fail,<span style='color:green'>Lift,<span style='color:green'>Lift","0,0,1,1,0,0,0,0,0,1,1,0","0,0,1,1,1,1,1,0,1,1,1,0","0,1,1,0,1,1",10,20,20,"","","","","{""box1"":""5"",""box2"":""5"",""box3"":""90"",""box4"":""90""}","",2,"round2_outcome",3,2,2,5,5,90,90,1,1,20,NA,NA,NA,NA,NA,NA,NA,NA,NA,NA,NA,5,5,90,90,1,1,20,NA,NA,NA,NA,NA,NA,NA,NA,NA,NA,NA,"",NA,NA,NA,NA,NA,NA,NA,NA,NA,2025-11-21 02:24:38
"23062.89999999851","https://psyc-201.github.io/xiang2023/exp/index1.html?PROLIFIC_PID=REDACTED&STUDY_ID=691f8ca61c6b4dcbb0aeb5f4&SESSION_ID=691fc6cb0571382533ad0c9b","survey-html-form",17,897787,"0.0-320.0","tAvYTw2t/r8Z2kckOjU/vEOOpp3Jpq0pqeH0iByNI0Y1V/z3qp3uFV5YoKEZLgTSRDDfYgc6i0d0fXC15KVHQ9ilW/OS95tp/7TwGEhE6oC37zSCra93t38w/ld2NAQ6OwBcLHeyb8BgcbwXpjeLm2i+fmj3PzHG1yzh1FmfZUdd3v48rU1DR0FR9gnRCbnuYRs+8IflWy/hMSt3wbwJv8kp0L4q9OQ+PEkhVNyH8LSWsD9hV4gmne+5zwoPKKPRy03YOaKVd9DDaZRocxKgThAyPLhi9o9OVQhGIRGxozfG8bZEoWviRFvLrqTGPb6hSYM8mqJIbQG5FWdvC5Bb/A==","691f8ca61c6b4dcbb0aeb5f4","691fc6cb0571382533ad0c9b","index1","<span style='color:red'>Fail,<span style='color:red'>Fail,<span style='color:green'>Lift,<span style='color:green'>Lift,<span style='color:red'>Fail,<span style='color:red'>Fail,<span style='color:red'>Fail,<span style='color:red'>Fail,<span style='color:red'>Fail,<span style='color:green'>Lift,<span style='color:green'>Lift,<span style='color:red'>Fail","<span style='color:red'>Fail,<span style='color:red'>Fail,<span style='color:green'>Lift,<span style='color:green'>Lift,<span style='color:green'>Lift,<span style='color:green'>Lift,<span style='color:green'>Lift,<span style='color:red'>Fail,<span style='color:green'>Lift,<span style='color:green'>Lift,<span style='color:green'>Lift,<span style='color:red'>Fail","<span style='color:red'>Fail,<span style='color:green'>Lift,<span style='color:green'>Lift,<span style='color:red'>Fail,<span style='color:green'>Lift,<span style='color:green'>Lift","0,0,1,1,0,0,0,0,0,1,1,0","0,0,1,1,1,1,1,0,1,1,1,0","0,1,1,0,1,1",10,20,20,"","","","","{""box1"":""95""}","",2,"round3_ready",4,2,3,NA,NA,NA,NA,NA,NA,NA,NA,NA,NA,NA,NA,NA,NA,95,95,NA,NA,NA,NA,NA,NA,NA,NA,NA,95,95,NA,NA,NA,NA,NA,NA,NA,NA,NA,"",NA,NA,NA,NA,NA,NA,NA,NA,NA,2025-11-21 02:24:38
"27996.20000000298","https://psyc-201.github.io/xiang2023/exp/index1.html?PROLIFIC_PID=REDACTED&STUDY_ID=691f8ca61c6b4dcbb0aeb5f4&SESSION_ID=691fc6cb0571382533ad0c9b","survey-html-form",18,925785,"0.0-321.0-0.0","tAvYTw2t/r8Z2kckOjU/vEOOpp3Jpq0pqeH0iByNI0Y1V/z3qp3uFV5YoKEZLgTSRDDfYgc6i0d0fXC15KVHQ9ilW/OS95tp/7TwGEhE6oC37zSCra93t38w/ld2NAQ6OwBcLHeyb8BgcbwXpjeLm2i+fmj3PzHG1yzh1FmfZUdd3v48rU1DR0FR9gnRCbnuYRs+8IflWy/hMSt3wbwJv8kp0L4q9OQ+PEkhVNyH8LSWsD9hV4gmne+5zwoPKKPRy03YOaKVd9DDaZRocxKgThAyPLhi9o9OVQhGIRGxozfG8bZEoWviRFvLrqTGPb6hSYM8mqJIbQG5FWdvC5Bb/A==","691f8ca61c6b4dcbb0aeb5f4","691fc6cb0571382533ad0c9b","index1","<span style='color:red'>Fail,<span style='color:red'>Fail,<span style='color:green'>Lift,<span style='color:green'>Lift,<span style='color:red'>Fail,<span style='color:red'>Fail,<span style='color:red'>Fail,<span style='color:red'>Fail,<span style='color:red'>Fail,<span style='color:green'>Lift,<span style='color:green'>Lift,<span style='color:red'>Fail","<span style='color:red'>Fail,<span style='color:red'>Fail,<span style='color:green'>Lift,<span style='color:green'>Lift,<span style='color:green'>Lift,<span style='color:green'>Lift,<span style='color:green'>Lift,<span style='color:red'>Fail,<span style='color:green'>Lift,<span style='color:green'>Lift,<span style='color:green'>Lift,<span style='color:red'>Fail","<span style='color:red'>Fail,<span style='color:green'>Lift,<span style='color:green'>Lift,<span style='color:red'>Fail,<span style='color:green'>Lift,<span style='color:green'>Lift","0,0,1,1,0,0,0,0,0,1,1,0","0,0,1,1,1,1,1,0,1,1,1,0","0,1,1,0,1,1",10,20,20,"","","","","{""box1"":""5"",""box2"":""5"",""box3"":""100"",""box4"":""100""}","",3,"round3_lift",5,2,3,5,5,100,100,1,1,20,NA,NA,NA,NA,NA,NA,NA,NA,NA,NA,NA,NA,NA,NA,NA,NA,NA,NA,NA,NA,5,5,100,100,1,1,20,NA,NA,"",NA,NA,NA,NA,NA,NA,NA,NA,NA,2025-11-21 02:24:38
"null","https://psyc-201.github.io/xiang2023/exp/index1.html?PROLIFIC_PID=REDACTED&STUDY_ID=691f8ca61c6b4dcbb0aeb5f4&SESSION_ID=691fc6cb0571382533ad0c9b","html-keyboard-response",19,928789,"0.0-325.0","tAvYTw2t/r8Z2kckOjU/vEOOpp3Jpq0pqeH0iByNI0Y1V/z3qp3uFV5YoKEZLgTSRDDfYgc6i0d0fXC15KVHQ9ilW/OS95tp/7TwGEhE6oC37zSCra93t38w/ld2NAQ6OwBcLHeyb8BgcbwXpjeLm2i+fmj3PzHG1yzh1FmfZUdd3v48rU1DR0FR9gnRCbnuYRs+8IflWy/hMSt3wbwJv8kp0L4q9OQ+PEkhVNyH8LSWsD9hV4gmne+5zwoPKKPRy03YOaKVd9DDaZRocxKgThAyPLhi9o9OVQhGIRGxozfG8bZEoWviRFvLrqTGPb6hSYM8mqJIbQG5FWdvC5Bb/A==","691f8ca61c6b4dcbb0aeb5f4","691fc6cb0571382533ad0c9b","index1","<span style='color:red'>Fail,<span style='color:red'>Fail,<span style='color:green'>Lift,<span style='color:green'>Lift,<span style='color:red'>Fail,<span style='color:red'>Fail,<span style='color:red'>Fail,<span style='color:red'>Fail,<span style='color:red'>Fail,<span style='color:green'>Lift,<span style='color:green'>Lift,<span style='color:red'>Fail","<span style='color:red'>Fail,<span style='color:red'>Fail,<span style='color:green'>Lift,<span style='color:green'>Lift,<span style='color:green'>Lift,<span style='color:green'>Lift,<span style='color:green'>Lift,<span style='color:red'>Fail,<span style='color:green'>Lift,<span style='color:green'>Lift,<span style='color:green'>Lift,<span style='color:red'>Fail","<span style='color:red'>Fail,<span style='color:green'>Lift,<span style='color:green'>Lift,<span style='color:red'>Fail,<span style='color:green'>Lift,<span style='color:green'>Lift","0,0,1,1,0,0,0,0,0,1,1,0","0,0,1,1,1,1,1,0,1,1,1,0","0,1,1,0,1,1",10,20,20,"","","<p style='font-size:30px'><b> New Contest! </b></p>","null","","",3,"",NA,NA,NA,NA,NA,NA,NA,NA,NA,NA,NA,NA,NA,NA,NA,NA,NA,NA,NA,NA,NA,NA,NA,NA,NA,NA,NA,NA,NA,NA,NA,NA,NA,NA,NA,NA,NA,NA,NA,"",NA,NA,NA,NA,NA,NA,NA,NA,NA,2025-11-21 02:24:38
"23676.39999999851","https://psyc-201.github.io/xiang2023/exp/index1.html?PROLIFIC_PID=REDACTED&STUDY_ID=691f8ca61c6b4dcbb0aeb5f4&SESSION_ID=691fc6cb0571382533ad0c9b","survey-html-form",20,952468,"0.0-326.0","tAvYTw2t/r8Z2kckOjU/vEOOpp3Jpq0pqeH0iByNI0Y1V/z3qp3uFV5YoKEZLgTSRDDfYgc6i0d0fXC15KVHQ9ilW/OS95tp/7TwGEhE6oC37zSCra93t38w/ld2NAQ6OwBcLHeyb8BgcbwXpjeLm2i+fmj3PzHG1yzh1FmfZUdd3v48rU1DR0FR9gnRCbnuYRs+8IflWy/hMSt3wbwJv8kp0L4q9OQ+PEkhVNyH8LSWsD9hV4gmne+5zwoPKKPRy03YOaKVd9DDaZRocxKgThAyPLhi9o9OVQhGIRGxozfG8bZEoWviRFvLrqTGPb6hSYM8mqJIbQG5FWdvC5Bb/A==","691f8ca61c6b4dcbb0aeb5f4","691fc6cb0571382533ad0c9b","index1","<span style='color:red'>Fail,<span style='color:red'>Fail,<span style='color:green'>Lift,<span style='color:green'>Lift,<span style='color:red'>Fail,<span style='color:red'>Fail,<span style='color:red'>Fail,<span style='color:red'>Fail,<span style='color:red'>Fail,<span style='color:green'>Lift,<span style='color:green'>Lift,<span style='color:red'>Fail","<span style='color:red'>Fail,<span style='color:red'>Fail,<span style='color:green'>Lift,<span style='color:green'>Lift,<span style='color:green'>Lift,<span style='color:green'>Lift,<span style='color:green'>Lift,<span style='color:red'>Fail,<span style='color:green'>Lift,<span style='color:green'>Lift,<span style='color:green'>Lift,<span style='color:red'>Fail","<span style='color:red'>Fail,<span style='color:green'>Lift,<span style='color:green'>Lift,<span style='color:red'>Fail,<span style='color:green'>Lift,<span style='color:green'>Lift","0,0,1,1,0,0,0,0,0,1,1,0","0,0,1,1,1,1,1,0,1,1,1,0","0,1,1,0,1,1",10,20,20,"","","","","{""box1"":""3"",""box2"":""3""}","",3,"round1_outcome",1,3,1,3,3,NA,NA,0,0,10,3,3,NA,NA,0,0,10,NA,NA,NA,NA,NA,NA,NA,NA,NA,NA,NA,NA,NA,NA,NA,NA,NA,NA,NA,NA,NA,NA,"",NA,NA,NA,NA,NA,NA,NA,NA,NA,2025-11-21 02:24:38
"23483.300000000745","https://psyc-201.github.io/xiang2023/exp/index1.html?PROLIFIC_PID=REDACTED&STUDY_ID=691f8ca61c6b4dcbb0aeb5f4&SESSION_ID=691fc6cb0571382533ad0c9b","survey-html-form",21,975953,"0.0-327.0","tAvYTw2t/r8Z2kckOjU/vEOOpp3Jpq0pqeH0iByNI0Y1V/z3qp3uFV5YoKEZLgTSRDDfYgc6i0d0fXC15KVHQ9ilW/OS95tp/7TwGEhE6oC37zSCra93t38w/ld2NAQ6OwBcLHeyb8BgcbwXpjeLm2i+fmj3PzHG1yzh1FmfZUdd3v48rU1DR0FR9gnRCbnuYRs+8IflWy/hMSt3wbwJv8kp0L4q9OQ+PEkhVNyH8LSWsD9hV4gmne+5zwoPKKPRy03YOaKVd9DDaZRocxKgThAyPLhi9o9OVQhGIRGxozfG8bZEoWviRFvLrqTGPb6hSYM8mqJIbQG5FWdvC5Bb/A==","691f8ca61c6b4dcbb0aeb5f4","691fc6cb0571382533ad0c9b","index1","<span style='color:red'>Fail,<span style='color:red'>Fail,<span style='color:green'>Lift,<span style='color:green'>Lift,<span style='color:red'>Fail,<span style='color:red'>Fail,<span style='color:red'>Fail,<span style='color:red'>Fail,<span style='color:red'>Fail,<span style='color:green'>Lift,<span style='color:green'>Lift,<span style='color:red'>Fail","<span style='color:red'>Fail,<span style='color:red'>Fail,<span style='color:green'>Lift,<span style='color:green'>Lift,<span style='color:green'>Lift,<span style='color:green'>Lift,<span style='color:green'>Lift,<span style='color:red'>Fail,<span style='color:green'>Lift,<span style='color:green'>Lift,<span style='color:green'>Lift,<span style='color:red'>Fail","<span style='color:red'>Fail,<span style='color:green'>Lift,<span style='color:green'>Lift,<span style='color:red'>Fail,<span style='color:green'>Lift,<span style='color:green'>Lift","0,0,1,1,0,0,0,0,0,1,1,0","0,0,1,1,1,1,1,0,1,1,1,0","0,1,1,0,1,1",10,20,20,"","","","","{""box1"":""30"",""box2"":""30""}","",3,"round2_ready",2,3,2,NA,NA,NA,NA,NA,NA,NA,NA,NA,NA,NA,NA,NA,NA,30,30,30,30,NA,NA,NA,NA,NA,NA,NA,NA,NA,NA,NA,NA,NA,NA,NA,NA,NA,NA,"",NA,NA,NA,NA,NA,NA,NA,NA,NA,2025-11-21 02:24:38
"27914.699999999255","https://psyc-201.github.io/xiang2023/exp/index1.html?PROLIFIC_PID=REDACTED&STUDY_ID=691f8ca61c6b4dcbb0aeb5f4&SESSION_ID=691fc6cb0571382533ad0c9b","survey-html-form",22,1003869,"0.0-328.0","tAvYTw2t/r8Z2kckOjU/vEOOpp3Jpq0pqeH0iByNI0Y1V/z3qp3uFV5YoKEZLgTSRDDfYgc6i0d0fXC15KVHQ9ilW/OS95tp/7TwGEhE6oC37zSCra93t38w/ld2NAQ6OwBcLHeyb8BgcbwXpjeLm2i+fmj3PzHG1yzh1FmfZUdd3v48rU1DR0FR9gnRCbnuYRs+8IflWy/hMSt3wbwJv8kp0L4q9OQ+PEkhVNyH8LSWsD9hV4gmne+5zwoPKKPRy03YOaKVd9DDaZRocxKgThAyPLhi9o9OVQhGIRGxozfG8bZEoWviRFvLrqTGPb6hSYM8mqJIbQG5FWdvC5Bb/A==","691f8ca61c6b4dcbb0aeb5f4","691fc6cb0571382533ad0c9b","index1","<span style='color:red'>Fail,<span style='color:red'>Fail,<span style='color:green'>Lift,<span style='color:green'>Lift,<span style='color:red'>Fail,<span style='color:red'>Fail,<span style='color:red'>Fail,<span style='color:red'>Fail,<span style='color:red'>Fail,<span style='color:green'>Lift,<span style='color:green'>Lift,<span style='color:red'>Fail","<span style='color:red'>Fail,<span style='color:red'>Fail,<span style='color:green'>Lift,<span style='color:green'>Lift,<span style='color:green'>Lift,<span style='color:green'>Lift,<span style='color:green'>Lift,<span style='color:red'>Fail,<span style='color:green'>Lift,<span style='color:green'>Lift,<span style='color:green'>Lift,<span style='color:red'>Fail","<span style='color:red'>Fail,<span style='color:green'>Lift,<span style='color:green'>Lift,<span style='color:red'>Fail,<span style='color:green'>Lift,<span style='color:green'>Lift","0,0,1,1,0,0,0,0,0,1,1,0","0,0,1,1,1,1,1,0,1,1,1,0","0,1,1,0,1,1",10,20,20,"","","","","{""box1"":""7"",""box2"":""3"",""box3"":""100""}","",3,"round2_outcome",3,3,2,7,3,100,NA,1,0,20,NA,NA,NA,NA,NA,NA,NA,NA,NA,NA,NA,7,3,100,NA,1,0,20,NA,NA,NA,NA,NA,NA,NA,NA,NA,NA,NA,"",NA,NA,NA,NA,NA,NA,NA,NA,NA,2025-11-21 02:24:38
"26433.29999999702","https://psyc-201.github.io/xiang2023/exp/index1.html?PROLIFIC_PID=REDACTED&STUDY_ID=691f8ca61c6b4dcbb0aeb5f4&SESSION_ID=691fc6cb0571382533ad0c9b","survey-html-form",23,1030308,"0.0-329.0","tAvYTw2t/r8Z2kckOjU/vEOOpp3Jpq0pqeH0iByNI0Y1V/z3qp3uFV5YoKEZLgTSRDDfYgc6i0d0fXC15KVHQ9ilW/OS95tp/7TwGEhE6oC37zSCra93t38w/ld2NAQ6OwBcLHeyb8BgcbwXpjeLm2i+fmj3PzHG1yzh1FmfZUdd3v48rU1DR0FR9gnRCbnuYRs+8IflWy/hMSt3wbwJv8kp0L4q9OQ+PEkhVNyH8LSWsD9hV4gmne+5zwoPKKPRy03YOaKVd9DDaZRocxKgThAyPLhi9o9OVQhGIRGxozfG8bZEoWviRFvLrqTGPb6hSYM8mqJIbQG5FWdvC5Bb/A==","691f8ca61c6b4dcbb0aeb5f4","691fc6cb0571382533ad0c9b","index1","<span style='color:red'>Fail,<span style='color:red'>Fail,<span style='color:green'>Lift,<span style='color:green'>Lift,<span style='color:red'>Fail,<span style='color:red'>Fail,<span style='color:red'>Fail,<span style='color:red'>Fail,<span style='color:red'>Fail,<span style='color:green'>Lift,<span style='color:green'>Lift,<span style='color:red'>Fail","<span style='color:red'>Fail,<span style='color:red'>Fail,<span style='color:green'>Lift,<span style='color:green'>Lift,<span style='color:green'>Lift,<span style='color:green'>Lift,<span style='color:green'>Lift,<span style='color:red'>Fail,<span style='color:green'>Lift,<span style='color:green'>Lift,<span style='color:green'>Lift,<span style='color:red'>Fail","<span style='color:red'>Fail,<span style='color:green'>Lift,<span style='color:green'>Lift,<span style='color:red'>Fail,<span style='color:green'>Lift,<span style='color:green'>Lift","0,0,1,1,0,0,0,0,0,1,1,0","0,0,1,1,1,1,1,0,1,1,1,0","0,1,1,0,1,1",10,20,20,"","","","","{""box1"":""25""}","",3,"round3_ready",4,3,3,NA,NA,NA,NA,NA,NA,NA,NA,NA,NA,NA,NA,NA,NA,25,25,NA,NA,NA,NA,NA,NA,NA,NA,NA,25,25,NA,NA,NA,NA,NA,NA,NA,NA,NA,"",NA,NA,NA,NA,NA,NA,NA,NA,NA,2025-11-21 02:24:38
"65676.20000000298","https://psyc-201.github.io/xiang2023/exp/index1.html?PROLIFIC_PID=REDACTED&STUDY_ID=691f8ca61c6b4dcbb0aeb5f4&SESSION_ID=691fc6cb0571382533ad0c9b","survey-html-form",24,1095984,"0.0-331.0-0.0","tAvYTw2t/r8Z2kckOjU/vEOOpp3Jpq0pqeH0iByNI0Y1V/z3qp3uFV5YoKEZLgTSRDDfYgc6i0d0fXC15KVHQ9ilW/OS95tp/7TwGEhE6oC37zSCra93t38w/ld2NAQ6OwBcLHeyb8BgcbwXpjeLm2i+fmj3PzHG1yzh1FmfZUdd3v48rU1DR0FR9gnRCbnuYRs+8IflWy/hMSt3wbwJv8kp0L4q9OQ+PEkhVNyH8LSWsD9hV4gmne+5zwoPKKPRy03YOaKVd9DDaZRocxKgThAyPLhi9o9OVQhGIRGxozfG8bZEoWviRFvLrqTGPb6hSYM8mqJIbQG5FWdvC5Bb/A==","691f8ca61c6b4dcbb0aeb5f4","691fc6cb0571382533ad0c9b","index1","<span style='color:red'>Fail,<span style='color:red'>Fail,<span style='color:green'>Lift,<span style='color:green'>Lift,<span style='color:red'>Fail,<span style='color:red'>Fail,<span style='color:red'>Fail,<span style='color:red'>Fail,<span style='color:red'>Fail,<span style='color:green'>Lift,<span style='color:green'>Lift,<span style='color:red'>Fail","<span style='color:red'>Fail,<span style='color:red'>Fail,<span style='color:green'>Lift,<span style='color:green'>Lift,<span style='color:green'>Lift,<span style='color:green'>Lift,<span style='color:green'>Lift,<span style='color:red'>Fail,<span style='color:green'>Lift,<span style='color:green'>Lift,<span style='color:green'>Lift,<span style='color:red'>Fail","<span style='color:red'>Fail,<span style='color:green'>Lift,<span style='color:green'>Lift,<span style='color:red'>Fail,<span style='color:green'>Lift,<span style='color:green'>Lift","0,0,1,1,0,0,0,0,0,1,1,0","0,0,1,1,1,1,1,0,1,1,1,0","0,1,1,0,1,1",10,20,20,"","","","","{""box1"":""6"",""box2"":""3"",""box3"":""999"",""box4"":""999""}","",4,"round3_fail",5,3,3,6,3,NA,NA,0,0,20,NA,NA,NA,NA,NA,NA,NA,NA,NA,NA,NA,NA,NA,NA,NA,NA,NA,NA,NA,NA,6,3,NA,NA,0,0,20,1,1,"",NA,NA,NA,NA,NA,NA,NA,NA,NA,2025-11-21 02:24:38
"null","https://psyc-201.github.io/xiang2023/exp/index1.html?PROLIFIC_PID=REDACTED&STUDY_ID=691f8ca61c6b4dcbb0aeb5f4&SESSION_ID=691fc6cb0571382533ad0c9b","html-keyboard-response",25,1098988,"0.0-334.0","tAvYTw2t/r8Z2kckOjU/vEOOpp3Jpq0pqeH0iByNI0Y1V/z3qp3uFV5YoKEZLgTSRDDfYgc6i0d0fXC15KVHQ9ilW/OS95tp/7TwGEhE6oC37zSCra93t38w/ld2NAQ6OwBcLHeyb8BgcbwXpjeLm2i+fmj3PzHG1yzh1FmfZUdd3v48rU1DR0FR9gnRCbnuYRs+8IflWy/hMSt3wbwJv8kp0L4q9OQ+PEkhVNyH8LSWsD9hV4gmne+5zwoPKKPRy03YOaKVd9DDaZRocxKgThAyPLhi9o9OVQhGIRGxozfG8bZEoWviRFvLrqTGPb6hSYM8mqJIbQG5FWdvC5Bb/A==","691f8ca61c6b4dcbb0aeb5f4","691fc6cb0571382533ad0c9b","index1","<span style='color:red'>Fail,<span style='color:red'>Fail,<span style='color:green'>Lift,<span style='color:green'>Lift,<span style='color:red'>Fail,<span style='color:red'>Fail,<span style='color:red'>Fail,<span style='color:red'>Fail,<span style='color:red'>Fail,<span style='color:green'>Lift,<span style='color:green'>Lift,<span style='color:red'>Fail","<span style='color:red'>Fail,<span style='color:red'>Fail,<span style='color:green'>Lift,<span style='color:green'>Lift,<span style='color:green'>Lift,<span style='color:green'>Lift,<span style='color:green'>Lift,<span style='color:red'>Fail,<span style='color:green'>Lift,<span style='color:green'>Lift,<span style='color:green'>Lift,<span style='color:red'>Fail","<span style='color:red'>Fail,<span style='color:green'>Lift,<span style='color:green'>Lift,<span style='color:red'>Fail,<span style='color:green'>Lift,<span style='color:green'>Lift","0,0,1,1,0,0,0,0,0,1,1,0","0,0,1,1,1,1,1,0,1,1,1,0","0,1,1,0,1,1",10,20,20,"","","<p style='font-size:30px'><b> New Contest! </b></p>","null","","",4,"",NA,NA,NA,NA,NA,NA,NA,NA,NA,NA,NA,NA,NA,NA,NA,NA,NA,NA,NA,NA,NA,NA,NA,NA,NA,NA,NA,NA,NA,NA,NA,NA,NA,NA,NA,NA,NA,NA,NA,"",NA,NA,NA,NA,NA,NA,NA,NA,NA,2025-11-21 02:24:38
"30578.79999999702","https://psyc-201.github.io/xiang2023/exp/index1.html?PROLIFIC_PID=REDACTED&STUDY_ID=691f8ca61c6b4dcbb0aeb5f4&SESSION_ID=691fc6cb0571382533ad0c9b","survey-html-form",26,1129568,"0.0-335.0","tAvYTw2t/r8Z2kckOjU/vEOOpp3Jpq0pqeH0iByNI0Y1V/z3qp3uFV5YoKEZLgTSRDDfYgc6i0d0fXC15KVHQ9ilW/OS95tp/7TwGEhE6oC37zSCra93t38w/ld2NAQ6OwBcLHeyb8BgcbwXpjeLm2i+fmj3PzHG1yzh1FmfZUdd3v48rU1DR0FR9gnRCbnuYRs+8IflWy/hMSt3wbwJv8kp0L4q9OQ+PEkhVNyH8LSWsD9hV4gmne+5zwoPKKPRy03YOaKVd9DDaZRocxKgThAyPLhi9o9OVQhGIRGxozfG8bZEoWviRFvLrqTGPb6hSYM8mqJIbQG5FWdvC5Bb/A==","691f8ca61c6b4dcbb0aeb5f4","691fc6cb0571382533ad0c9b","index1","<span style='color:red'>Fail,<span style='color:red'>Fail,<span style='color:green'>Lift,<span style='color:green'>Lift,<span style='color:red'>Fail,<span style='color:red'>Fail,<span style='color:red'>Fail,<span style='color:red'>Fail,<span style='color:red'>Fail,<span style='color:green'>Lift,<span style='color:green'>Lift,<span style='color:red'>Fail","<span style='color:red'>Fail,<span style='color:red'>Fail,<span style='color:green'>Lift,<span style='color:green'>Lift,<span style='color:green'>Lift,<span style='color:green'>Lift,<span style='color:green'>Lift,<span style='color:red'>Fail,<span style='color:green'>Lift,<span style='color:green'>Lift,<span style='color:green'>Lift,<span style='color:red'>Fail","<span style='color:red'>Fail,<span style='color:green'>Lift,<span style='color:green'>Lift,<span style='color:red'>Fail,<span style='color:green'>Lift,<span style='color:green'>Lift","0,0,1,1,0,0,0,0,0,1,1,0","0,0,1,1,1,1,1,0,1,1,1,0","0,1,1,0,1,1",10,20,20,"","","","","{""box1"":""8"",""box2"":""4"",""box3"":""50""}","",4,"round1_outcome",1,4,1,8,4,50,NA,1,0,10,8,4,50,NA,1,0,10,NA,NA,NA,NA,NA,NA,NA,NA,NA,NA,NA,NA,NA,NA,NA,NA,NA,NA,NA,NA,NA,NA,"",NA,NA,NA,NA,NA,NA,NA,NA,NA,2025-11-21 02:24:38
"30965.89999999851","https://psyc-201.github.io/xiang2023/exp/index1.html?PROLIFIC_PID=REDACTED&STUDY_ID=691f8ca61c6b4dcbb0aeb5f4&SESSION_ID=691fc6cb0571382533ad0c9b","survey-html-form",27,1160536,"0.0-336.0","tAvYTw2t/r8Z2kckOjU/vEOOpp3Jpq0pqeH0iByNI0Y1V/z3qp3uFV5YoKEZLgTSRDDfYgc6i0d0fXC15KVHQ9ilW/OS95tp/7TwGEhE6oC37zSCra93t38w/ld2NAQ6OwBcLHeyb8BgcbwXpjeLm2i+fmj3PzHG1yzh1FmfZUdd3v48rU1DR0FR9gnRCbnuYRs+8IflWy/hMSt3wbwJv8kp0L4q9OQ+PEkhVNyH8LSWsD9hV4gmne+5zwoPKKPRy03YOaKVd9DDaZRocxKgThAyPLhi9o9OVQhGIRGxozfG8bZEoWviRFvLrqTGPb6hSYM8mqJIbQG5FWdvC5Bb/A==","691f8ca61c6b4dcbb0aeb5f4","691fc6cb0571382533ad0c9b","index1","<span style='color:red'>Fail,<span style='color:red'>Fail,<span style='color:green'>Lift,<span style='color:green'>Lift,<span style='color:red'>Fail,<span style='color:red'>Fail,<span style='color:red'>Fail,<span style='color:red'>Fail,<span style='color:red'>Fail,<span style='color:green'>Lift,<span style='color:green'>Lift,<span style='color:red'>Fail","<span style='color:red'>Fail,<span style='color:red'>Fail,<span style='color:green'>Lift,<span style='color:green'>Lift,<span style='color:green'>Lift,<span style='color:green'>Lift,<span style='color:green'>Lift,<span style='color:red'>Fail,<span style='color:green'>Lift,<span style='color:green'>Lift,<span style='color:green'>Lift,<span style='color:red'>Fail","<span style='color:red'>Fail,<span style='color:green'>Lift,<span style='color:green'>Lift,<span style='color:red'>Fail,<span style='color:green'>Lift,<span style='color:green'>Lift","0,0,1,1,0,0,0,0,0,1,1,0","0,0,1,1,1,1,1,0,1,1,1,0","0,1,1,0,1,1",10,20,20,"","","","","{""box1"":""90"",""box2"":""35""}","",4,"round2_ready",2,4,2,NA,NA,NA,NA,NA,NA,NA,NA,NA,NA,NA,NA,NA,NA,90,35,90,35,NA,NA,NA,NA,NA,NA,NA,NA,NA,NA,NA,NA,NA,NA,NA,NA,NA,NA,"",NA,NA,NA,NA,NA,NA,NA,NA,NA,2025-11-21 02:24:38
"25416","https://psyc-201.github.io/xiang2023/exp/index1.html?PROLIFIC_PID=REDACTED&STUDY_ID=691f8ca61c6b4dcbb0aeb5f4&SESSION_ID=691fc6cb0571382533ad0c9b","survey-html-form",28,1185953,"0.0-337.0","tAvYTw2t/r8Z2kckOjU/vEOOpp3Jpq0pqeH0iByNI0Y1V/z3qp3uFV5YoKEZLgTSRDDfYgc6i0d0fXC15KVHQ9ilW/OS95tp/7TwGEhE6oC37zSCra93t38w/ld2NAQ6OwBcLHeyb8BgcbwXpjeLm2i+fmj3PzHG1yzh1FmfZUdd3v48rU1DR0FR9gnRCbnuYRs+8IflWy/hMSt3wbwJv8kp0L4q9OQ+PEkhVNyH8LSWsD9hV4gmne+5zwoPKKPRy03YOaKVd9DDaZRocxKgThAyPLhi9o9OVQhGIRGxozfG8bZEoWviRFvLrqTGPb6hSYM8mqJIbQG5FWdvC5Bb/A==","691f8ca61c6b4dcbb0aeb5f4","691fc6cb0571382533ad0c9b","index1","<span style='color:red'>Fail,<span style='color:red'>Fail,<span style='color:green'>Lift,<span style='color:green'>Lift,<span style='color:red'>Fail,<span style='color:red'>Fail,<span style='color:red'>Fail,<span style='color:red'>Fail,<span style='color:red'>Fail,<span style='color:green'>Lift,<span style='color:green'>Lift,<span style='color:red'>Fail","<span style='color:red'>Fail,<span style='color:red'>Fail,<span style='color:green'>Lift,<span style='color:green'>Lift,<span style='color:green'>Lift,<span style='color:green'>Lift,<span style='color:green'>Lift,<span style='color:red'>Fail,<span style='color:green'>Lift,<span style='color:green'>Lift,<span style='color:green'>Lift,<span style='color:red'>Fail","<span style='color:red'>Fail,<span style='color:green'>Lift,<span style='color:green'>Lift,<span style='color:red'>Fail,<span style='color:green'>Lift,<span style='color:green'>Lift","0,0,1,1,0,0,0,0,0,1,1,0","0,0,1,1,1,1,1,0,1,1,1,0","0,1,1,0,1,1",10,20,20,"","","","","{""box1"":""7"",""box2"":""3"",""box3"":""100""}","",4,"round2_outcome",3,4,2,7,3,100,NA,1,0,20,NA,NA,NA,NA,NA,NA,NA,NA,NA,NA,NA,7,3,100,NA,1,0,20,NA,NA,NA,NA,NA,NA,NA,NA,NA,NA,NA,"",NA,NA,NA,NA,NA,NA,NA,NA,NA,2025-11-21 02:24:38
"21629.5","https://psyc-201.github.io/xiang2023/exp/index1.html?PROLIFIC_PID=REDACTED&STUDY_ID=691f8ca61c6b4dcbb0aeb5f4&SESSION_ID=691fc6cb0571382533ad0c9b","survey-html-form",29,1207584,"0.0-338.0","tAvYTw2t/r8Z2kckOjU/vEOOpp3Jpq0pqeH0iByNI0Y1V/z3qp3uFV5YoKEZLgTSRDDfYgc6i0d0fXC15KVHQ9ilW/OS95tp/7TwGEhE6oC37zSCra93t38w/ld2NAQ6OwBcLHeyb8BgcbwXpjeLm2i+fmj3PzHG1yzh1FmfZUdd3v48rU1DR0FR9gnRCbnuYRs+8IflWy/hMSt3wbwJv8kp0L4q9OQ+PEkhVNyH8LSWsD9hV4gmne+5zwoPKKPRy03YOaKVd9DDaZRocxKgThAyPLhi9o9OVQhGIRGxozfG8bZEoWviRFvLrqTGPb6hSYM8mqJIbQG5FWdvC5Bb/A==","691f8ca61c6b4dcbb0aeb5f4","691fc6cb0571382533ad0c9b","index1","<span style='color:red'>Fail,<span style='color:red'>Fail,<span style='color:green'>Lift,<span style='color:green'>Lift,<span style='color:red'>Fail,<span style='color:red'>Fail,<span style='color:red'>Fail,<span style='color:red'>Fail,<span style='color:red'>Fail,<span style='color:green'>Lift,<span style='color:green'>Lift,<span style='color:red'>Fail","<span style='color:red'>Fail,<span style='color:red'>Fail,<span style='color:green'>Lift,<span style='color:green'>Lift,<span style='color:green'>Lift,<span style='color:green'>Lift,<span style='color:green'>Lift,<span style='color:red'>Fail,<span style='color:green'>Lift,<span style='color:green'>Lift,<span style='color:green'>Lift,<span style='color:red'>Fail","<span style='color:red'>Fail,<span style='color:green'>Lift,<span style='color:green'>Lift,<span style='color:red'>Fail,<span style='color:green'>Lift,<span style='color:green'>Lift","0,0,1,1,0,0,0,0,0,1,1,0","0,0,1,1,1,1,1,0,1,1,1,0","0,1,1,0,1,1",10,20,20,"","","","","{""box1"":""25""}","",4,"round3_ready",4,4,3,NA,NA,NA,NA,NA,NA,NA,NA,NA,NA,NA,NA,NA,NA,25,25,NA,NA,NA,NA,NA,NA,NA,NA,NA,25,25,NA,NA,NA,NA,NA,NA,NA,NA,NA,"",NA,NA,NA,NA,NA,NA,NA,NA,NA,2025-11-21 02:24:38
"29866.900000002235","https://psyc-201.github.io/xiang2023/exp/index1.html?PROLIFIC_PID=REDACTED&STUDY_ID=691f8ca61c6b4dcbb0aeb5f4&SESSION_ID=691fc6cb0571382533ad0c9b","survey-html-form",30,1237452,"0.0-339.0-0.0","tAvYTw2t/r8Z2kckOjU/vEOOpp3Jpq0pqeH0iByNI0Y1V/z3qp3uFV5YoKEZLgTSRDDfYgc6i0d0fXC15KVHQ9ilW/OS95tp/7TwGEhE6oC37zSCra93t38w/ld2NAQ6OwBcLHeyb8BgcbwXpjeLm2i+fmj3PzHG1yzh1FmfZUdd3v48rU1DR0FR9gnRCbnuYRs+8IflWy/hMSt3wbwJv8kp0L4q9OQ+PEkhVNyH8LSWsD9hV4gmne+5zwoPKKPRy03YOaKVd9DDaZRocxKgThAyPLhi9o9OVQhGIRGxozfG8bZEoWviRFvLrqTGPb6hSYM8mqJIbQG5FWdvC5Bb/A==","691f8ca61c6b4dcbb0aeb5f4","691fc6cb0571382533ad0c9b","index1","<span style='color:red'>Fail,<span style='color:red'>Fail,<span style='color:green'>Lift,<span style='color:green'>Lift,<span style='color:red'>Fail,<span style='color:red'>Fail,<span style='color:red'>Fail,<span style='color:red'>Fail,<span style='color:red'>Fail,<span style='color:green'>Lift,<span style='color:green'>Lift,<span style='color:red'>Fail","<span style='color:red'>Fail,<span style='color:red'>Fail,<span style='color:green'>Lift,<span style='color:green'>Lift,<span style='color:green'>Lift,<span style='color:green'>Lift,<span style='color:green'>Lift,<span style='color:red'>Fail,<span style='color:green'>Lift,<span style='color:green'>Lift,<span style='color:green'>Lift,<span style='color:red'>Fail","<span style='color:red'>Fail,<span style='color:green'>Lift,<span style='color:green'>Lift,<span style='color:red'>Fail,<span style='color:green'>Lift,<span style='color:green'>Lift","0,0,1,1,0,0,0,0,0,1,1,0","0,0,1,1,1,1,1,0,1,1,1,0","0,1,1,0,1,1",10,20,20,"","","","","{""box1"":""7"",""box2"":""5"",""box3"":""95"",""box4"":""90""}","",5,"round3_lift",5,4,3,7,5,95,90,1,1,20,NA,NA,NA,NA,NA,NA,NA,NA,NA,NA,NA,NA,NA,NA,NA,NA,NA,NA,NA,NA,7,5,95,90,1,1,20,NA,NA,"",NA,NA,NA,NA,NA,NA,NA,NA,NA,2025-11-21 02:24:38
"null","https://psyc-201.github.io/xiang2023/exp/index1.html?PROLIFIC_PID=REDACTED&STUDY_ID=691f8ca61c6b4dcbb0aeb5f4&SESSION_ID=691fc6cb0571382533ad0c9b","html-keyboard-response",31,1240455,"0.0-343.0","tAvYTw2t/r8Z2kckOjU/vEOOpp3Jpq0pqeH0iByNI0Y1V/z3qp3uFV5YoKEZLgTSRDDfYgc6i0d0fXC15KVHQ9ilW/OS95tp/7TwGEhE6oC37zSCra93t38w/ld2NAQ6OwBcLHeyb8BgcbwXpjeLm2i+fmj3PzHG1yzh1FmfZUdd3v48rU1DR0FR9gnRCbnuYRs+8IflWy/hMSt3wbwJv8kp0L4q9OQ+PEkhVNyH8LSWsD9hV4gmne+5zwoPKKPRy03YOaKVd9DDaZRocxKgThAyPLhi9o9OVQhGIRGxozfG8bZEoWviRFvLrqTGPb6hSYM8mqJIbQG5FWdvC5Bb/A==","691f8ca61c6b4dcbb0aeb5f4","691fc6cb0571382533ad0c9b","index1","<span style='color:red'>Fail,<span style='color:red'>Fail,<span style='color:green'>Lift,<span style='color:green'>Lift,<span style='color:red'>Fail,<span style='color:red'>Fail,<span style='color:red'>Fail,<span style='color:red'>Fail,<span style='color:red'>Fail,<span style='color:green'>Lift,<span style='color:green'>Lift,<span style='color:red'>Fail","<span style='color:red'>Fail,<span style='color:red'>Fail,<span style='color:green'>Lift,<span style='color:green'>Lift,<span style='color:green'>Lift,<span style='color:green'>Lift,<span style='color:green'>Lift,<span style='color:red'>Fail,<span style='color:green'>Lift,<span style='color:green'>Lift,<span style='color:green'>Lift,<span style='color:red'>Fail","<span style='color:red'>Fail,<span style='color:green'>Lift,<span style='color:green'>Lift,<span style='color:red'>Fail,<span style='color:green'>Lift,<span style='color:green'>Lift","0,0,1,1,0,0,0,0,0,1,1,0","0,0,1,1,1,1,1,0,1,1,1,0","0,1,1,0,1,1",10,20,20,"","","<p style='font-size:30px'><b> New Contest! </b></p>","null","","",5,"",NA,NA,NA,NA,NA,NA,NA,NA,NA,NA,NA,NA,NA,NA,NA,NA,NA,NA,NA,NA,NA,NA,NA,NA,NA,NA,NA,NA,NA,NA,NA,NA,NA,NA,NA,NA,NA,NA,NA,"",NA,NA,NA,NA,NA,NA,NA,NA,NA,2025-11-21 02:24:38
"25802","https://psyc-201.github.io/xiang2023/exp/index1.html?PROLIFIC_PID=REDACTED&STUDY_ID=691f8ca61c6b4dcbb0aeb5f4&SESSION_ID=691fc6cb0571382533ad0c9b","survey-html-form",32,1266259,"0.0-344.0","tAvYTw2t/r8Z2kckOjU/vEOOpp3Jpq0pqeH0iByNI0Y1V/z3qp3uFV5YoKEZLgTSRDDfYgc6i0d0fXC15KVHQ9ilW/OS95tp/7TwGEhE6oC37zSCra93t38w/ld2NAQ6OwBcLHeyb8BgcbwXpjeLm2i+fmj3PzHG1yzh1FmfZUdd3v48rU1DR0FR9gnRCbnuYRs+8IflWy/hMSt3wbwJv8kp0L4q9OQ+PEkhVNyH8LSWsD9hV4gmne+5zwoPKKPRy03YOaKVd9DDaZRocxKgThAyPLhi9o9OVQhGIRGxozfG8bZEoWviRFvLrqTGPb6hSYM8mqJIbQG5FWdvC5Bb/A==","691f8ca61c6b4dcbb0aeb5f4","691fc6cb0571382533ad0c9b","index1","<span style='color:red'>Fail,<span style='color:red'>Fail,<span style='color:green'>Lift,<span style='color:green'>Lift,<span style='color:red'>Fail,<span style='color:red'>Fail,<span style='color:red'>Fail,<span style='color:red'>Fail,<span style='color:red'>Fail,<span style='color:green'>Lift,<span style='color:green'>Lift,<span style='color:red'>Fail","<span style='color:red'>Fail,<span style='color:red'>Fail,<span style='color:green'>Lift,<span style='color:green'>Lift,<span style='color:green'>Lift,<span style='color:green'>Lift,<span style='color:green'>Lift,<span style='color:red'>Fail,<span style='color:green'>Lift,<span style='color:green'>Lift,<span style='color:green'>Lift,<span style='color:red'>Fail","<span style='color:red'>Fail,<span style='color:green'>Lift,<span style='color:green'>Lift,<span style='color:red'>Fail,<span style='color:green'>Lift,<span style='color:green'>Lift","0,0,1,1,0,0,0,0,0,1,1,0","0,0,1,1,1,1,1,0,1,1,1,0","0,1,1,0,1,1",10,20,20,"","","","","{""box1"":""7"",""box2"":""7"",""box3"":""100"",""box4"":""100""}","",5,"round1_outcome",1,5,1,7,7,100,100,1,1,10,7,7,100,100,1,1,10,NA,NA,NA,NA,NA,NA,NA,NA,NA,NA,NA,NA,NA,NA,NA,NA,NA,NA,NA,NA,NA,NA,"",NA,NA,NA,NA,NA,NA,NA,NA,NA,2025-11-21 02:24:38
"21958.70000000298","https://psyc-201.github.io/xiang2023/exp/index1.html?PROLIFIC_PID=REDACTED&STUDY_ID=691f8ca61c6b4dcbb0aeb5f4&SESSION_ID=691fc6cb0571382533ad0c9b","survey-html-form",33,1288219,"0.0-345.0","tAvYTw2t/r8Z2kckOjU/vEOOpp3Jpq0pqeH0iByNI0Y1V/z3qp3uFV5YoKEZLgTSRDDfYgc6i0d0fXC15KVHQ9ilW/OS95tp/7TwGEhE6oC37zSCra93t38w/ld2NAQ6OwBcLHeyb8BgcbwXpjeLm2i+fmj3PzHG1yzh1FmfZUdd3v48rU1DR0FR9gnRCbnuYRs+8IflWy/hMSt3wbwJv8kp0L4q9OQ+PEkhVNyH8LSWsD9hV4gmne+5zwoPKKPRy03YOaKVd9DDaZRocxKgThAyPLhi9o9OVQhGIRGxozfG8bZEoWviRFvLrqTGPb6hSYM8mqJIbQG5FWdvC5Bb/A==","691f8ca61c6b4dcbb0aeb5f4","691fc6cb0571382533ad0c9b","index1","<span style='color:red'>Fail,<span style='color:red'>Fail,<span style='color:green'>Lift,<span style='color:green'>Lift,<span style='color:red'>Fail,<span style='color:red'>Fail,<span style='color:red'>Fail,<span style='color:red'>Fail,<span style='color:red'>Fail,<span style='color:green'>Lift,<span style='color:green'>Lift,<span style='color:red'>Fail","<span style='color:red'>Fail,<span style='color:red'>Fail,<span style='color:green'>Lift,<span style='color:green'>Lift,<span style='color:green'>Lift,<span style='color:green'>Lift,<span style='color:green'>Lift,<span style='color:red'>Fail,<span style='color:green'>Lift,<span style='color:green'>Lift,<span style='color:green'>Lift,<span style='color:red'>Fail","<span style='color:red'>Fail,<span style='color:green'>Lift,<span style='color:green'>Lift,<span style='color:red'>Fail,<span style='color:green'>Lift,<span style='color:green'>Lift","0,0,1,1,0,0,0,0,0,1,1,0","0,0,1,1,1,1,1,0,1,1,1,0","0,1,1,0,1,1",10,20,20,"","","","","{""box1"":""65"",""box2"":""65""}","",5,"round2_ready",2,5,2,NA,NA,NA,NA,NA,NA,NA,NA,NA,NA,NA,NA,NA,NA,65,65,65,65,NA,NA,NA,NA,NA,NA,NA,NA,NA,NA,NA,NA,NA,NA,NA,NA,NA,NA,"",NA,NA,NA,NA,NA,NA,NA,NA,NA,2025-11-21 02:24:38
"30695.800000000745","https://psyc-201.github.io/xiang2023/exp/index1.html?PROLIFIC_PID=REDACTED&STUDY_ID=691f8ca61c6b4dcbb0aeb5f4&SESSION_ID=691fc6cb0571382533ad0c9b","survey-html-form",34,1318916,"0.0-346.0","tAvYTw2t/r8Z2kckOjU/vEOOpp3Jpq0pqeH0iByNI0Y1V/z3qp3uFV5YoKEZLgTSRDDfYgc6i0d0fXC15KVHQ9ilW/OS95tp/7TwGEhE6oC37zSCra93t38w/ld2NAQ6OwBcLHeyb8BgcbwXpjeLm2i+fmj3PzHG1yzh1FmfZUdd3v48rU1DR0FR9gnRCbnuYRs+8IflWy/hMSt3wbwJv8kp0L4q9OQ+PEkhVNyH8LSWsD9hV4gmne+5zwoPKKPRy03YOaKVd9DDaZRocxKgThAyPLhi9o9OVQhGIRGxozfG8bZEoWviRFvLrqTGPb6hSYM8mqJIbQG5FWdvC5Bb/A==","691f8ca61c6b4dcbb0aeb5f4","691fc6cb0571382533ad0c9b","index1","<span style='color:red'>Fail,<span style='color:red'>Fail,<span style='color:green'>Lift,<span style='color:green'>Lift,<span style='color:red'>Fail,<span style='color:red'>Fail,<span style='color:red'>Fail,<span style='color:red'>Fail,<span style='color:red'>Fail,<span style='color:green'>Lift,<span style='color:green'>Lift,<span style='color:red'>Fail","<span style='color:red'>Fail,<span style='color:red'>Fail,<span style='color:green'>Lift,<span style='color:green'>Lift,<span style='color:green'>Lift,<span style='color:green'>Lift,<span style='color:green'>Lift,<span style='color:red'>Fail,<span style='color:green'>Lift,<span style='color:green'>Lift,<span style='color:green'>Lift,<span style='color:red'>Fail","<span style='color:red'>Fail,<span style='color:green'>Lift,<span style='color:green'>Lift,<span style='color:red'>Fail,<span style='color:green'>Lift,<span style='color:green'>Lift","0,0,1,1,0,0,0,0,0,1,1,0","0,0,1,1,1,1,1,0,1,1,1,0","0,1,1,0,1,1",10,20,20,"","","","","{""box1"":""8"",""box2"":""8"",""box3"":""95"",""box4"":""95""}","",5,"round2_outcome",3,5,2,8,8,95,95,1,1,20,NA,NA,NA,NA,NA,NA,NA,NA,NA,NA,NA,8,8,95,95,1,1,20,NA,NA,NA,NA,NA,NA,NA,NA,NA,NA,NA,"",NA,NA,NA,NA,NA,NA,NA,NA,NA,2025-11-21 02:24:38
"22931.199999999255","https://psyc-201.github.io/xiang2023/exp/index1.html?PROLIFIC_PID=REDACTED&STUDY_ID=691f8ca61c6b4dcbb0aeb5f4&SESSION_ID=691fc6cb0571382533ad0c9b","survey-html-form",35,1341850,"0.0-347.0","tAvYTw2t/r8Z2kckOjU/vEOOpp3Jpq0pqeH0iByNI0Y1V/z3qp3uFV5YoKEZLgTSRDDfYgc6i0d0fXC15KVHQ9ilW/OS95tp/7TwGEhE6oC37zSCra93t38w/ld2NAQ6OwBcLHeyb8BgcbwXpjeLm2i+fmj3PzHG1yzh1FmfZUdd3v48rU1DR0FR9gnRCbnuYRs+8IflWy/hMSt3wbwJv8kp0L4q9OQ+PEkhVNyH8LSWsD9hV4gmne+5zwoPKKPRy03YOaKVd9DDaZRocxKgThAyPLhi9o9OVQhGIRGxozfG8bZEoWviRFvLrqTGPb6hSYM8mqJIbQG5FWdvC5Bb/A==","691f8ca61c6b4dcbb0aeb5f4","691fc6cb0571382533ad0c9b","index1","<span style='color:red'>Fail,<span style='color:red'>Fail,<span style='color:green'>Lift,<span style='color:green'>Lift,<span style='color:red'>Fail,<span style='color:red'>Fail,<span style='color:red'>Fail,<span style='color:red'>Fail,<span style='color:red'>Fail,<span style='color:green'>Lift,<span style='color:green'>Lift,<span style='color:red'>Fail","<span style='color:red'>Fail,<span style='color:red'>Fail,<span style='color:green'>Lift,<span style='color:green'>Lift,<span style='color:green'>Lift,<span style='color:green'>Lift,<span style='color:green'>Lift,<span style='color:red'>Fail,<span style='color:green'>Lift,<span style='color:green'>Lift,<span style='color:green'>Lift,<span style='color:red'>Fail","<span style='color:red'>Fail,<span style='color:green'>Lift,<span style='color:green'>Lift,<span style='color:red'>Fail,<span style='color:green'>Lift,<span style='color:green'>Lift","0,0,1,1,0,0,0,0,0,1,1,0","0,0,1,1,1,1,1,0,1,1,1,0","0,1,1,0,1,1",10,20,20,"","","","","{""box1"":""100""}","",5,"round3_ready",4,5,3,NA,NA,NA,NA,NA,NA,NA,NA,NA,NA,NA,NA,NA,NA,100,100,NA,NA,NA,NA,NA,NA,NA,NA,NA,100,100,NA,NA,NA,NA,NA,NA,NA,NA,NA,"",NA,NA,NA,NA,NA,NA,NA,NA,NA,2025-11-21 02:24:38
"24930.5","https://psyc-201.github.io/xiang2023/exp/index1.html?PROLIFIC_PID=REDACTED&STUDY_ID=691f8ca61c6b4dcbb0aeb5f4&SESSION_ID=691fc6cb0571382533ad0c9b","survey-html-form",36,1366782,"0.0-348.0-0.0","tAvYTw2t/r8Z2kckOjU/vEOOpp3Jpq0pqeH0iByNI0Y1V/z3qp3uFV5YoKEZLgTSRDDfYgc6i0d0fXC15KVHQ9ilW/OS95tp/7TwGEhE6oC37zSCra93t38w/ld2NAQ6OwBcLHeyb8BgcbwXpjeLm2i+fmj3PzHG1yzh1FmfZUdd3v48rU1DR0FR9gnRCbnuYRs+8IflWy/hMSt3wbwJv8kp0L4q9OQ+PEkhVNyH8LSWsD9hV4gmne+5zwoPKKPRy03YOaKVd9DDaZRocxKgThAyPLhi9o9OVQhGIRGxozfG8bZEoWviRFvLrqTGPb6hSYM8mqJIbQG5FWdvC5Bb/A==","691f8ca61c6b4dcbb0aeb5f4","691fc6cb0571382533ad0c9b","index1","<span style='color:red'>Fail,<span style='color:red'>Fail,<span style='color:green'>Lift,<span style='color:green'>Lift,<span style='color:red'>Fail,<span style='color:red'>Fail,<span style='color:red'>Fail,<span style='color:red'>Fail,<span style='color:red'>Fail,<span style='color:green'>Lift,<span style='color:green'>Lift,<span style='color:red'>Fail","<span style='color:red'>Fail,<span style='color:red'>Fail,<span style='color:green'>Lift,<span style='color:green'>Lift,<span style='color:green'>Lift,<span style='color:green'>Lift,<span style='color:green'>Lift,<span style='color:red'>Fail,<span style='color:green'>Lift,<span style='color:green'>Lift,<span style='color:green'>Lift,<span style='color:red'>Fail","<span style='color:red'>Fail,<span style='color:green'>Lift,<span style='color:green'>Lift,<span style='color:red'>Fail,<span style='color:green'>Lift,<span style='color:green'>Lift","0,0,1,1,0,0,0,0,0,1,1,0","0,0,1,1,1,1,1,0,1,1,1,0","0,1,1,0,1,1",10,20,20,"","","","","{""box1"":""8"",""box2"":""8"",""box3"":""100"",""box4"":""100""}","",6,"round3_lift",5,5,3,8,8,100,100,1,1,20,NA,NA,NA,NA,NA,NA,NA,NA,NA,NA,NA,NA,NA,NA,NA,NA,NA,NA,NA,NA,8,8,100,100,1,1,20,NA,NA,"",NA,NA,NA,NA,NA,NA,NA,NA,NA,2025-11-21 02:24:38
"null","https://psyc-201.github.io/xiang2023/exp/index1.html?PROLIFIC_PID=REDACTED&STUDY_ID=691f8ca61c6b4dcbb0aeb5f4&SESSION_ID=691fc6cb0571382533ad0c9b","html-keyboard-response",37,1369786,"0.0-352.0","tAvYTw2t/r8Z2kckOjU/vEOOpp3Jpq0pqeH0iByNI0Y1V/z3qp3uFV5YoKEZLgTSRDDfYgc6i0d0fXC15KVHQ9ilW/OS95tp/7TwGEhE6oC37zSCra93t38w/ld2NAQ6OwBcLHeyb8BgcbwXpjeLm2i+fmj3PzHG1yzh1FmfZUdd3v48rU1DR0FR9gnRCbnuYRs+8IflWy/hMSt3wbwJv8kp0L4q9OQ+PEkhVNyH8LSWsD9hV4gmne+5zwoPKKPRy03YOaKVd9DDaZRocxKgThAyPLhi9o9OVQhGIRGxozfG8bZEoWviRFvLrqTGPb6hSYM8mqJIbQG5FWdvC5Bb/A==","691f8ca61c6b4dcbb0aeb5f4","691fc6cb0571382533ad0c9b","index1","<span style='color:red'>Fail,<span style='color:red'>Fail,<span style='color:green'>Lift,<span style='color:green'>Lift,<span style='color:red'>Fail,<span style='color:red'>Fail,<span style='color:red'>Fail,<span style='color:red'>Fail,<span style='color:red'>Fail,<span style='color:green'>Lift,<span style='color:green'>Lift,<span style='color:red'>Fail","<span style='color:red'>Fail,<span style='color:red'>Fail,<span style='color:green'>Lift,<span style='color:green'>Lift,<span style='color:green'>Lift,<span style='color:green'>Lift,<span style='color:green'>Lift,<span style='color:red'>Fail,<span style='color:green'>Lift,<span style='color:green'>Lift,<span style='color:green'>Lift,<span style='color:red'>Fail","<span style='color:red'>Fail,<span style='color:green'>Lift,<span style='color:green'>Lift,<span style='color:red'>Fail,<span style='color:green'>Lift,<span style='color:green'>Lift","0,0,1,1,0,0,0,0,0,1,1,0","0,0,1,1,1,1,1,0,1,1,1,0","0,1,1,0,1,1",10,20,20,"","","<p style='font-size:30px'><b> New Contest! </b></p>","null","","",6,"",NA,NA,NA,NA,NA,NA,NA,NA,NA,NA,NA,NA,NA,NA,NA,NA,NA,NA,NA,NA,NA,NA,NA,NA,NA,NA,NA,NA,NA,NA,NA,NA,NA,NA,NA,NA,NA,NA,NA,"",NA,NA,NA,NA,NA,NA,NA,NA,NA,2025-11-21 02:24:38
"21728.199999999255","https://psyc-201.github.io/xiang2023/exp/index1.html?PROLIFIC_PID=REDACTED&STUDY_ID=691f8ca61c6b4dcbb0aeb5f4&SESSION_ID=691fc6cb0571382533ad0c9b","survey-html-form",38,1391516,"0.0-353.0","tAvYTw2t/r8Z2kckOjU/vEOOpp3Jpq0pqeH0iByNI0Y1V/z3qp3uFV5YoKEZLgTSRDDfYgc6i0d0fXC15KVHQ9ilW/OS95tp/7TwGEhE6oC37zSCra93t38w/ld2NAQ6OwBcLHeyb8BgcbwXpjeLm2i+fmj3PzHG1yzh1FmfZUdd3v48rU1DR0FR9gnRCbnuYRs+8IflWy/hMSt3wbwJv8kp0L4q9OQ+PEkhVNyH8LSWsD9hV4gmne+5zwoPKKPRy03YOaKVd9DDaZRocxKgThAyPLhi9o9OVQhGIRGxozfG8bZEoWviRFvLrqTGPb6hSYM8mqJIbQG5FWdvC5Bb/A==","691f8ca61c6b4dcbb0aeb5f4","691fc6cb0571382533ad0c9b","index1","<span style='color:red'>Fail,<span style='color:red'>Fail,<span style='color:green'>Lift,<span style='color:green'>Lift,<span style='color:red'>Fail,<span style='color:red'>Fail,<span style='color:red'>Fail,<span style='color:red'>Fail,<span style='color:red'>Fail,<span style='color:green'>Lift,<span style='color:green'>Lift,<span style='color:red'>Fail","<span style='color:red'>Fail,<span style='color:red'>Fail,<span style='color:green'>Lift,<span style='color:green'>Lift,<span style='color:green'>Lift,<span style='color:green'>Lift,<span style='color:green'>Lift,<span style='color:red'>Fail,<span style='color:green'>Lift,<span style='color:green'>Lift,<span style='color:green'>Lift,<span style='color:red'>Fail","<span style='color:red'>Fail,<span style='color:green'>Lift,<span style='color:green'>Lift,<span style='color:red'>Fail,<span style='color:green'>Lift,<span style='color:green'>Lift","0,0,1,1,0,0,0,0,0,1,1,0","0,0,1,1,1,1,1,0,1,1,1,0","0,1,1,0,1,1",10,20,20,"","","","","{""box1"":""3"",""box2"":""3""}","",6,"round1_outcome",1,6,1,3,3,NA,NA,0,0,10,3,3,NA,NA,0,0,10,NA,NA,NA,NA,NA,NA,NA,NA,NA,NA,NA,NA,NA,NA,NA,NA,NA,NA,NA,NA,NA,NA,"",NA,NA,NA,NA,NA,NA,NA,NA,NA,2025-11-21 02:24:38
"22497.199999999255","https://psyc-201.github.io/xiang2023/exp/index1.html?PROLIFIC_PID=REDACTED&STUDY_ID=691f8ca61c6b4dcbb0aeb5f4&SESSION_ID=691fc6cb0571382533ad0c9b","survey-html-form",39,1414016,"0.0-354.0","tAvYTw2t/r8Z2kckOjU/vEOOpp3Jpq0pqeH0iByNI0Y1V/z3qp3uFV5YoKEZLgTSRDDfYgc6i0d0fXC15KVHQ9ilW/OS95tp/7TwGEhE6oC37zSCra93t38w/ld2NAQ6OwBcLHeyb8BgcbwXpjeLm2i+fmj3PzHG1yzh1FmfZUdd3v48rU1DR0FR9gnRCbnuYRs+8IflWy/hMSt3wbwJv8kp0L4q9OQ+PEkhVNyH8LSWsD9hV4gmne+5zwoPKKPRy03YOaKVd9DDaZRocxKgThAyPLhi9o9OVQhGIRGxozfG8bZEoWviRFvLrqTGPb6hSYM8mqJIbQG5FWdvC5Bb/A==","691f8ca61c6b4dcbb0aeb5f4","691fc6cb0571382533ad0c9b","index1","<span style='color:red'>Fail,<span style='color:red'>Fail,<span style='color:green'>Lift,<span style='color:green'>Lift,<span style='color:red'>Fail,<span style='color:red'>Fail,<span style='color:red'>Fail,<span style='color:red'>Fail,<span style='color:red'>Fail,<span style='color:green'>Lift,<span style='color:green'>Lift,<span style='color:red'>Fail","<span style='color:red'>Fail,<span style='color:red'>Fail,<span style='color:green'>Lift,<span style='color:green'>Lift,<span style='color:green'>Lift,<span style='color:green'>Lift,<span style='color:green'>Lift,<span style='color:red'>Fail,<span style='color:green'>Lift,<span style='color:green'>Lift,<span style='color:green'>Lift,<span style='color:red'>Fail","<span style='color:red'>Fail,<span style='color:green'>Lift,<span style='color:green'>Lift,<span style='color:red'>Fail,<span style='color:green'>Lift,<span style='color:green'>Lift","0,0,1,1,0,0,0,0,0,1,1,0","0,0,1,1,1,1,1,0,1,1,1,0","0,1,1,0,1,1",10,20,20,"","","","","{""box1"":""20"",""box2"":""20""}","",6,"round2_ready",2,6,2,NA,NA,NA,NA,NA,NA,NA,NA,NA,NA,NA,NA,NA,NA,20,20,20,20,NA,NA,NA,NA,NA,NA,NA,NA,NA,NA,NA,NA,NA,NA,NA,NA,NA,NA,"",NA,NA,NA,NA,NA,NA,NA,NA,NA,2025-11-21 02:24:38
"37322.10000000149","https://psyc-201.github.io/xiang2023/exp/index1.html?PROLIFIC_PID=REDACTED&STUDY_ID=691f8ca61c6b4dcbb0aeb5f4&SESSION_ID=691fc6cb0571382533ad0c9b","survey-html-form",40,1451342,"0.0-355.0","tAvYTw2t/r8Z2kckOjU/vEOOpp3Jpq0pqeH0iByNI0Y1V/z3qp3uFV5YoKEZLgTSRDDfYgc6i0d0fXC15KVHQ9ilW/OS95tp/7TwGEhE6oC37zSCra93t38w/ld2NAQ6OwBcLHeyb8BgcbwXpjeLm2i+fmj3PzHG1yzh1FmfZUdd3v48rU1DR0FR9gnRCbnuYRs+8IflWy/hMSt3wbwJv8kp0L4q9OQ+PEkhVNyH8LSWsD9hV4gmne+5zwoPKKPRy03YOaKVd9DDaZRocxKgThAyPLhi9o9OVQhGIRGxozfG8bZEoWviRFvLrqTGPb6hSYM8mqJIbQG5FWdvC5Bb/A==","691f8ca61c6b4dcbb0aeb5f4","691fc6cb0571382533ad0c9b","index1","<span style='color:red'>Fail,<span style='color:red'>Fail,<span style='color:green'>Lift,<span style='color:green'>Lift,<span style='color:red'>Fail,<span style='color:red'>Fail,<span style='color:red'>Fail,<span style='color:red'>Fail,<span style='color:red'>Fail,<span style='color:green'>Lift,<span style='color:green'>Lift,<span style='color:red'>Fail","<span style='color:red'>Fail,<span style='color:red'>Fail,<span style='color:green'>Lift,<span style='color:green'>Lift,<span style='color:green'>Lift,<span style='color:green'>Lift,<span style='color:green'>Lift,<span style='color:red'>Fail,<span style='color:green'>Lift,<span style='color:green'>Lift,<span style='color:green'>Lift,<span style='color:red'>Fail","<span style='color:red'>Fail,<span style='color:green'>Lift,<span style='color:green'>Lift,<span style='color:red'>Fail,<span style='color:green'>Lift,<span style='color:green'>Lift","0,0,1,1,0,0,0,0,0,1,1,0","0,0,1,1,1,1,1,0,1,1,1,0","0,1,1,0,1,1",10,20,20,"","","","","{""box1"":""3"",""box2"":""3""}","",6,"round2_outcome",3,6,2,3,3,NA,NA,0,0,20,NA,NA,NA,NA,NA,NA,NA,NA,NA,NA,NA,3,3,NA,NA,0,0,20,NA,NA,NA,NA,NA,NA,NA,NA,NA,NA,NA,"",NA,NA,NA,NA,NA,NA,NA,NA,NA,2025-11-21 02:24:38
"21620.60000000149","https://psyc-201.github.io/xiang2023/exp/index1.html?PROLIFIC_PID=REDACTED&STUDY_ID=691f8ca61c6b4dcbb0aeb5f4&SESSION_ID=691fc6cb0571382533ad0c9b","survey-html-form",41,1472968,"0.0-356.0","tAvYTw2t/r8Z2kckOjU/vEOOpp3Jpq0pqeH0iByNI0Y1V/z3qp3uFV5YoKEZLgTSRDDfYgc6i0d0fXC15KVHQ9ilW/OS95tp/7TwGEhE6oC37zSCra93t38w/ld2NAQ6OwBcLHeyb8BgcbwXpjeLm2i+fmj3PzHG1yzh1FmfZUdd3v48rU1DR0FR9gnRCbnuYRs+8IflWy/hMSt3wbwJv8kp0L4q9OQ+PEkhVNyH8LSWsD9hV4gmne+5zwoPKKPRy03YOaKVd9DDaZRocxKgThAyPLhi9o9OVQhGIRGxozfG8bZEoWviRFvLrqTGPb6hSYM8mqJIbQG5FWdvC5Bb/A==","691f8ca61c6b4dcbb0aeb5f4","691fc6cb0571382533ad0c9b","index1","<span style='color:red'>Fail,<span style='color:red'>Fail,<span style='color:green'>Lift,<span style='color:green'>Lift,<span style='color:red'>Fail,<span style='color:red'>Fail,<span style='color:red'>Fail,<span style='color:red'>Fail,<span style='color:red'>Fail,<span style='color:green'>Lift,<span style='color:green'>Lift,<span style='color:red'>Fail","<span style='color:red'>Fail,<span style='color:red'>Fail,<span style='color:green'>Lift,<span style='color:green'>Lift,<span style='color:green'>Lift,<span style='color:green'>Lift,<span style='color:green'>Lift,<span style='color:red'>Fail,<span style='color:green'>Lift,<span style='color:green'>Lift,<span style='color:green'>Lift,<span style='color:red'>Fail","<span style='color:red'>Fail,<span style='color:green'>Lift,<span style='color:green'>Lift,<span style='color:red'>Fail,<span style='color:green'>Lift,<span style='color:green'>Lift","0,0,1,1,0,0,0,0,0,1,1,0","0,0,1,1,1,1,1,0,1,1,1,0","0,1,1,0,1,1",10,20,20,"","","","","{""box1"":""5""}","",6,"round3_ready",4,6,3,NA,NA,NA,NA,NA,NA,NA,NA,NA,NA,NA,NA,NA,NA,5,5,NA,NA,NA,NA,NA,NA,NA,NA,NA,5,5,NA,NA,NA,NA,NA,NA,NA,NA,NA,"",NA,NA,NA,NA,NA,NA,NA,NA,NA,2025-11-21 02:24:38
"34177.099999997765","https://psyc-201.github.io/xiang2023/exp/index1.html?PROLIFIC_PID=REDACTED&STUDY_ID=691f8ca61c6b4dcbb0aeb5f4&SESSION_ID=691fc6cb0571382533ad0c9b","survey-html-form",42,1507147,"0.0-358.0-0.0","tAvYTw2t/r8Z2kckOjU/vEOOpp3Jpq0pqeH0iByNI0Y1V/z3qp3uFV5YoKEZLgTSRDDfYgc6i0d0fXC15KVHQ9ilW/OS95tp/7TwGEhE6oC37zSCra93t38w/ld2NAQ6OwBcLHeyb8BgcbwXpjeLm2i+fmj3PzHG1yzh1FmfZUdd3v48rU1DR0FR9gnRCbnuYRs+8IflWy/hMSt3wbwJv8kp0L4q9OQ+PEkhVNyH8LSWsD9hV4gmne+5zwoPKKPRy03YOaKVd9DDaZRocxKgThAyPLhi9o9OVQhGIRGxozfG8bZEoWviRFvLrqTGPb6hSYM8mqJIbQG5FWdvC5Bb/A==","691f8ca61c6b4dcbb0aeb5f4","691fc6cb0571382533ad0c9b","index1","<span style='color:red'>Fail,<span style='color:red'>Fail,<span style='color:green'>Lift,<span style='color:green'>Lift,<span style='color:red'>Fail,<span style='color:red'>Fail,<span style='color:red'>Fail,<span style='color:red'>Fail,<span style='color:red'>Fail,<span style='color:green'>Lift,<span style='color:green'>Lift,<span style='color:red'>Fail","<span style='color:red'>Fail,<span style='color:red'>Fail,<span style='color:green'>Lift,<span style='color:green'>Lift,<span style='color:green'>Lift,<span style='color:green'>Lift,<span style='color:green'>Lift,<span style='color:red'>Fail,<span style='color:green'>Lift,<span style='color:green'>Lift,<span style='color:green'>Lift,<span style='color:red'>Fail","<span style='color:red'>Fail,<span style='color:green'>Lift,<span style='color:green'>Lift,<span style='color:red'>Fail,<span style='color:green'>Lift,<span style='color:green'>Lift","0,0,1,1,0,0,0,0,0,1,1,0","0,0,1,1,1,1,1,0,1,1,1,0","0,1,1,0,1,1",10,20,20,"","","","","{""box1"":""3"",""box2"":""3"",""box3"":""999"",""box4"":""999""}","",6,"round3_fail",5,6,3,3,3,NA,NA,0,0,20,NA,NA,NA,NA,NA,NA,NA,NA,NA,NA,NA,NA,NA,NA,NA,NA,NA,NA,NA,NA,3,3,NA,NA,0,0,20,1,1,"",NA,NA,NA,NA,NA,NA,NA,NA,NA,2025-11-21 02:24:38
"46534.39999999851","https://psyc-201.github.io/xiang2023/exp/index1.html?PROLIFIC_PID=REDACTED&STUDY_ID=691f8ca61c6b4dcbb0aeb5f4&SESSION_ID=691fc6cb0571382533ad0c9b","survey-text",43,1553684,"0.0-361.0","tAvYTw2t/r8Z2kckOjU/vEOOpp3Jpq0pqeH0iByNI0Y1V/z3qp3uFV5YoKEZLgTSRDDfYgc6i0d0fXC15KVHQ9ilW/OS95tp/7TwGEhE6oC37zSCra93t38w/ld2NAQ6OwBcLHeyb8BgcbwXpjeLm2i+fmj3PzHG1yzh1FmfZUdd3v48rU1DR0FR9gnRCbnuYRs+8IflWy/hMSt3wbwJv8kp0L4q9OQ+PEkhVNyH8LSWsD9hV4gmne+5zwoPKKPRy03YOaKVd9DDaZRocxKgThAyPLhi9o9OVQhGIRGxozfG8bZEoWviRFvLrqTGPb6hSYM8mqJIbQG5FWdvC5Bb/A==","691f8ca61c6b4dcbb0aeb5f4","691fc6cb0571382533ad0c9b","index1","<span style='color:red'>Fail,<span style='color:red'>Fail,<span style='color:green'>Lift,<span style='color:green'>Lift,<span style='color:red'>Fail,<span style='color:red'>Fail,<span style='color:red'>Fail,<span style='color:red'>Fail,<span style='color:red'>Fail,<span style='color:green'>Lift,<span style='color:green'>Lift,<span style='color:red'>Fail","<span style='color:red'>Fail,<span style='color:red'>Fail,<span style='color:green'>Lift,<span style='color:green'>Lift,<span style='color:green'>Lift,<span style='color:green'>Lift,<span style='color:green'>Lift,<span style='color:red'>Fail,<span style='color:green'>Lift,<span style='color:green'>Lift,<span style='color:green'>Lift,<span style='color:red'>Fail","<span style='color:red'>Fail,<span style='color:green'>Lift,<span style='color:green'>Lift,<span style='color:red'>Fail,<span style='color:green'>Lift,<span style='color:green'>Lift","0,0,1,1,0,0,0,0,0,1,1,0","0,0,1,1,1,1,1,0,1,1,1,0","0,1,1,0,1,1",10,20,20,"","","","","{""Q0"":""It was a game where I predicted whether contestants would lift a box, judged their strength and effort, and answered a few attention check questions.""}","",NA,"",NA,NA,NA,NA,NA,NA,NA,NA,NA,NA,NA,NA,NA,NA,NA,NA,NA,NA,NA,NA,NA,NA,NA,NA,NA,NA,NA,NA,NA,NA,NA,NA,NA,NA,NA,NA,NA,NA,NA,"",NA,NA,NA,NA,NA,NA,NA,NA,NA,2025-11-21 02:24:38
"8726.199999999255","https://psyc-201.github.io/xiang2023/exp/index1.html?PROLIFIC_PID=REDACTED&STUDY_ID=691f8ca61c6b4dcbb0aeb5f4&SESSION_ID=691fc6cb0571382533ad0c9b","survey-text",44,1562413,"0.0-362.0","tAvYTw2t/r8Z2kckOjU/vEOOpp3Jpq0pqeH0iByNI0Y1V/z3qp3uFV5YoKEZLgTSRDDfYgc6i0d0fXC15KVHQ9ilW/OS95tp/7TwGEhE6oC37zSCra93t38w/ld2NAQ6OwBcLHeyb8BgcbwXpjeLm2i+fmj3PzHG1yzh1FmfZUdd3v48rU1DR0FR9gnRCbnuYRs+8IflWy/hMSt3wbwJv8kp0L4q9OQ+PEkhVNyH8LSWsD9hV4gmne+5zwoPKKPRy03YOaKVd9DDaZRocxKgThAyPLhi9o9OVQhGIRGxozfG8bZEoWviRFvLrqTGPb6hSYM8mqJIbQG5FWdvC5Bb/A==","691f8ca61c6b4dcbb0aeb5f4","691fc6cb0571382533ad0c9b","index1","<span style='color:red'>Fail,<span style='color:red'>Fail,<span style='color:green'>Lift,<span style='color:green'>Lift,<span style='color:red'>Fail,<span style='color:red'>Fail,<span style='color:red'>Fail,<span style='color:red'>Fail,<span style='color:red'>Fail,<span style='color:green'>Lift,<span style='color:green'>Lift,<span style='color:red'>Fail","<span style='color:red'>Fail,<span style='color:red'>Fail,<span style='color:green'>Lift,<span style='color:green'>Lift,<span style='color:green'>Lift,<span style='color:green'>Lift,<span style='color:green'>Lift,<span style='color:red'>Fail,<span style='color:green'>Lift,<span style='color:green'>Lift,<span style='color:green'>Lift,<span style='color:red'>Fail","<span style='color:red'>Fail,<span style='color:green'>Lift,<span style='color:green'>Lift,<span style='color:red'>Fail,<span style='color:green'>Lift,<span style='color:green'>Lift","0,0,1,1,0,0,0,0,0,1,1,0","0,0,1,1,1,1,1,0,1,1,1,0","0,1,1,0,1,1",10,20,20,"","","","","{""Q0"":""It was fun! ! !""}","",NA,"",NA,NA,NA,NA,NA,NA,NA,NA,NA,NA,NA,NA,NA,NA,NA,NA,NA,NA,NA,NA,NA,NA,NA,NA,NA,NA,NA,NA,NA,NA,NA,NA,NA,NA,NA,NA,NA,NA,NA,"[{""event"":""blur"",""trial"":0,""time"":3703},{""event"":""focus"",""trial"":0,""time"":5332},{""event"":""fullscreenenter"",""trial"":1,""time"":9758},{""event"":""fullscreenexit"",""trial"":2,""time"":12728},{""event"":""blur"",""trial"":2,""time"":23850},{""event"":""focus"",""trial"":2,""time"":32743},{""event"":""blur"",""trial"":2,""time"":38268},{""event"":""focus"",""trial"":2,""time"":41379},{""event"":""blur"",""trial"":2,""time"":44962},{""event"":""focus"",""trial"":2,""time"":46232},{""event"":""blur"",""trial"":2,""time"":49895},{""event"":""focus"",""trial"":2,""time"":54655},{""event"":""blur"",""trial"":2,""time"":59548},{""event"":""focus"",""trial"":2,""time"":63452},{""event"":""blur"",""trial"":2,""time"":71105},{""event"":""focus"",""trial"":2,""time"":73572},{""event"":""blur"",""trial"":2,""time"":74965},{""event"":""focus"",""trial"":2,""time"":76117},{""event"":""blur"",""trial"":2,""time"":77804},{""event"":""focus"",""trial"":2,""time"":79791},{""event"":""blur"",""trial"":2,""time"":84391},{""event"":""focus"",""trial"":2,""time"":88681},{""event"":""blur"",""trial"":4,""time"":96986},{""event"":""focus"",""trial"":4,""time"":101985},{""event"":""blur"",""trial"":5,""time"":130217},{""event"":""focus"",""trial"":5,""time"":132903},{""event"":""blur"",""trial"":5,""time"":137535},{""event"":""focus"",""trial"":5,""time"":142472},{""event"":""blur"",""trial"":8,""time"":158729},{""event"":""focus"",""trial"":8,""time"":159359},{""event"":""blur"",""trial"":8,""time"":159360},{""event"":""focus"",""trial"":8,""time"":221311},{""event"":""blur"",""trial"":9,""time"":232850},{""event"":""focus"",""trial"":9,""time"":233393},{""event"":""blur"",""trial"":9,""time"":233393},{""event"":""focus"",""trial"":9,""time"":239690},{""event"":""blur"",""trial"":10,""time"":260472},{""event"":""focus"",""trial"":10,""time"":260963},{""event"":""blur"",""trial"":10,""time"":260963},{""event"":""focus"",""trial"":10,""time"":266898},{""event"":""blur"",""trial"":11,""time"":289965},{""event"":""focus"",""trial"":11,""time"":290442},{""event"":""blur"",""trial"":11,""time"":290443},{""event"":""focus"",""trial"":11,""time"":359713},{""event"":""blur"",""trial"":12,""time"":364978},{""event"":""focus"",""trial"":12,""time"":365510},{""event"":""blur"",""trial"":12,""time"":365511},{""event"":""focus"",""trial"":12,""time"":371133},{""event"":""blur"",""trial"":12,""time"":379416},{""event"":""focus"",""trial"":12,""time"":384409},{""event"":""blur"",""trial"":14,""time"":403239},{""event"":""focus"",""trial"":14,""time"":404001},{""event"":""blur"",""trial"":14,""time"":404001},{""event"":""focus"",""trial"":14,""time"":413457},{""event"":""blur"",""trial"":15,""time"":429537},{""event"":""focus"",""trial"":15,""time"":430274},{""event"":""blur"",""trial"":15,""time"":430274},{""event"":""focus"",""trial"":15,""time"":436562},{""event"":""blur"",""trial"":15,""time"":441383},{""event"":""focus"",""trial"":15,""time"":773155},{""event"":""blur"",""trial"":15,""time"":777291},{""event"":""focus"",""trial"":15,""time"":783000},{""event"":""blur"",""trial"":15,""time"":784443},{""event"":""focus"",""trial"":15,""time"":785260},{""event"":""blur"",""trial"":15,""time"":785265},{""event"":""focus"",""trial"":15,""time"":796622},{""event"":""blur"",""trial"":15,""time"":799524},{""event"":""focus"",""trial"":15,""time"":828596},{""event"":""blur"",""trial"":16,""time"":839935},{""event"":""focus"",""trial"":16,""time"":840719},{""event"":""blur"",""trial"":16,""time"":840719},{""event"":""focus"",""trial"":16,""time"":846545},{""event"":""blur"",""trial"":17,""time"":877008},{""event"":""focus"",""trial"":17,""time"":877473},{""event"":""blur"",""trial"":17,""time"":877473},{""event"":""focus"",""trial"":17,""time"":888859},{""event"":""blur"",""trial"":18,""time"":899658},{""event"":""focus"",""trial"":18,""time"":900135},{""event"":""blur"",""trial"":18,""time"":900135},{""event"":""focus"",""trial"":18,""time"":909028},{""event"":""blur"",""trial"":20,""time"":930513},{""event"":""focus"",""trial"":20,""time"":931254},{""event"":""blur"",""trial"":20,""time"":931255},{""event"":""focus"",""trial"":20,""time"":937782},{""event"":""blur"",""trial"":20,""time"":940684},{""event"":""focus"",""trial"":20,""time"":945509},{""event"":""blur"",""trial"":21,""time"":954042},{""event"":""focus"",""trial"":21,""time"":954825},{""event"":""blur"",""trial"":21,""time"":954825},{""event"":""focus"",""trial"":21,""time"":964932},{""event"":""blur"",""trial"":22,""time"":978923},{""event"":""focus"",""trial"":22,""time"":979649},{""event"":""blur"",""trial"":22,""time"":979649},{""event"":""focus"",""trial"":22,""time"":985708},{""event"":""blur"",""trial"":23,""time"":1005784},{""event"":""focus"",""trial"":23,""time"":1006245},{""event"":""blur"",""trial"":23,""time"":1006246},{""event"":""focus"",""trial"":23,""time"":1011527},{""event"":""blur"",""trial"":24,""time"":1036502},{""event"":""focus"",""trial"":24,""time"":1036978},{""event"":""blur"",""trial"":24,""time"":1036980},{""event"":""focus"",""trial"":24,""time"":1048746},{""event"":""blur"",""trial"":24,""time"":1050083},{""event"":""focus"",""trial"":24,""time"":1052366},{""event"":""blur"",""trial"":24,""time"":1053420},{""event"":""focus"",""trial"":24,""time"":1062619},{""event"":""blur"",""trial"":26,""time"":1101152},{""event"":""focus"",""trial"":26,""time"":1101887},{""event"":""blur"",""trial"":26,""time"":1101888},{""event"":""focus"",""trial"":26,""time"":1108111},{""event"":""blur"",""trial"":27,""time"":1131302},{""event"":""focus"",""trial"":27,""time"":1132048},{""event"":""blur"",""trial"":27,""time"":1132050},{""event"":""focus"",""trial"":27,""time"":1138241},{""event"":""blur"",""trial"":28,""time"":1163881},{""event"":""focus"",""trial"":28,""time"":1164623},{""event"":""blur"",""trial"":28,""time"":1164623},{""event"":""focus"",""trial"":28,""time"":1171197},{""event"":""blur"",""trial"":29,""time"":1187615},{""event"":""focus"",""trial"":29,""time"":1188080},{""event"":""blur"",""trial"":29,""time"":1188081},{""event"":""focus"",""trial"":29,""time"":1195700},{""event"":""blur"",""trial"":30,""time"":1209821},{""event"":""focus"",""trial"":30,""time"":1210297},{""event"":""blur"",""trial"":30,""time"":1210299},{""event"":""focus"",""trial"":30,""time"":1215809},{""event"":""blur"",""trial"":30,""time"":1223203},{""event"":""focus"",""trial"":30,""time"":1224522},{""event"":""blur"",""trial"":32,""time"":1241813},{""event"":""focus"",""trial"":32,""time"":1242574},{""event"":""blur"",""trial"":32,""time"":1242575},{""event"":""focus"",""trial"":32,""time"":1248519},{""event"":""blur"",""trial"":33,""time"":1268075},{""event"":""focus"",""trial"":33,""time"":1268802},{""event"":""blur"",""trial"":33,""time"":1268802},{""event"":""focus"",""trial"":33,""time"":1276639},{""event"":""blur"",""trial"":34,""time"":1290352},{""event"":""focus"",""trial"":34,""time"":1291102},{""event"":""blur"",""trial"":34,""time"":1291103},{""event"":""focus"",""trial"":34,""time"":1308328},{""event"":""blur"",""trial"":35,""time"":1320407},{""event"":""focus"",""trial"":35,""time"":1320882},{""event"":""blur"",""trial"":35,""time"":1320883},{""event"":""focus"",""trial"":35,""time"":1327090},{""event"":""blur"",""trial"":36,""time"":1343567},{""event"":""focus"",""trial"":36,""time"":1344023},{""event"":""blur"",""trial"":36,""time"":1344023},{""event"":""focus"",""trial"":36,""time"":1350033},{""event"":""blur"",""trial"":36,""time"":1351981},{""event"":""focus"",""trial"":36,""time"":1353218},{""event"":""blur"",""trial"":38,""time"":1370835},{""event"":""focus"",""trial"":38,""time"":1371557},{""event"":""blur"",""trial"":38,""time"":1371560},{""event"":""focus"",""trial"":38,""time"":1387145},{""event"":""blur"",""trial"":39,""time"":1393025},{""event"":""focus"",""trial"":39,""time"":1393764},{""event"":""blur"",""trial"":39,""time"":1393765},{""event"":""focus"",""trial"":39,""time"":1408919},{""event"":""blur"",""trial"":40,""time"":1415779},{""event"":""focus"",""trial"":40,""time"":1416510},{""event"":""blur"",""trial"":40,""time"":1416510},{""event"":""focus"",""trial"":40,""time"":1421977},{""event"":""blur"",""trial"":41,""time"":1454604},{""event"":""focus"",""trial"":41,""time"":1455058},{""event"":""blur"",""trial"":41,""time"":1455059},{""event"":""focus"",""trial"":41,""time"":1463724},{""event"":""blur"",""trial"":42,""time"":1474565},{""event"":""focus"",""trial"":42,""time"":1475035},{""event"":""blur"",""trial"":42,""time"":1475036},{""event"":""focus"",""trial"":42,""time"":1498350},{""event"":""blur"",""trial"":43,""time"":1517876},{""event"":""focus"",""trial"":43,""time"":1541807},{""event"":""blur"",""trial"":43,""time"":1546560},{""event"":""focus"",""trial"":43,""time"":1549511}]",3,2,0,30,1,0.3,NA,NA,NA,2025-11-21 02:24:38
"3212.5","https://psyc-201.github.io/xiang2023/exp/index1.html?PROLIFIC_PID=REDACTED&STUDY_ID=691f8ca61c6b4dcbb0aeb5f4&SESSION_ID=691fc6cb0571382533ad0c9b","html-button-response",45,1565633,"0.0-363.0","tAvYTw2t/r8Z2kckOjU/vEOOpp3Jpq0pqeH0iByNI0Y1V/z3qp3uFV5YoKEZLgTSRDDfYgc6i0d0fXC15KVHQ9ilW/OS95tp/7TwGEhE6oC37zSCra93t38w/ld2NAQ6OwBcLHeyb8BgcbwXpjeLm2i+fmj3PzHG1yzh1FmfZUdd3v48rU1DR0FR9gnRCbnuYRs+8IflWy/hMSt3wbwJv8kp0L4q9OQ+PEkhVNyH8LSWsD9hV4gmne+5zwoPKKPRy03YOaKVd9DDaZRocxKgThAyPLhi9o9OVQhGIRGxozfG8bZEoWviRFvLrqTGPb6hSYM8mqJIbQG5FWdvC5Bb/A==","691f8ca61c6b4dcbb0aeb5f4","691fc6cb0571382533ad0c9b","index1","<span style='color:red'>Fail,<span style='color:red'>Fail,<span style='color:green'>Lift,<span style='color:green'>Lift,<span style='color:red'>Fail,<span style='color:red'>Fail,<span style='color:red'>Fail,<span style='color:red'>Fail,<span style='color:red'>Fail,<span style='color:green'>Lift,<span style='color:green'>Lift,<span style='color:red'>Fail","<span style='color:red'>Fail,<span style='color:red'>Fail,<span style='color:green'>Lift,<span style='color:green'>Lift,<span style='color:green'>Lift,<span style='color:green'>Lift,<span style='color:green'>Lift,<span style='color:red'>Fail,<span style='color:green'>Lift,<span style='color:green'>Lift,<span style='color:green'>Lift,<span style='color:red'>Fail","<span style='color:red'>Fail,<span style='color:green'>Lift,<span style='color:green'>Lift,<span style='color:red'>Fail,<span style='color:green'>Lift,<span style='color:green'>Lift","0,0,1,1,0,0,0,0,0,1,1,0","0,0,1,1,1,1,1,0,1,1,1,0","0,1,1,0,1,1",10,20,20,"","","<p> We randomly picked <b>Contest 3, Round 2</b> to calculate your bonus. </p><p> The outcome of Contestant E on that round is <span style='color:green'>Lift</span>. </p><p> The probability you entered was 30. </p><p><b> You won a bonus of $0.30!</b></p><p> IMPORTANT: Please click 'Next' to complete the game.</p>","","","",NA,"",NA,NA,NA,NA,NA,NA,NA,NA,NA,NA,NA,NA,NA,NA,NA,NA,NA,NA,NA,NA,NA,NA,NA,NA,NA,NA,NA,NA,NA,NA,NA,NA,NA,NA,NA,NA,NA,NA,NA,"",NA,NA,NA,NA,NA,NA,0,2,1,2025-11-21 02:24:38
