"rt","url","trial_type","trial_index","time_elapsed","internal_node_id","encryptedProlificId","studyId","sessionId","expIndex","round1_outcomes","round2_outcomes","round3_outcomes","round1_o","round2_o","round3_o","round1_reward","round2_reward","round3_reward","success","view_history","stimulus","key_press","responses","question_order","j","Stage","stage","contest","round","strength_a","strength_b","effort_a","effort_b","outcome_a","outcome_b","reward","r1_strength_a","r1_strength_b","r1_effort_a","r1_effort_b","r1_outcome_a","r1_outcome_b","r1_reward","probability_a","probability_b","r2_prob_a","r2_prob_b","r2_strength_a","r2_strength_b","r2_effort_a","r2_effort_b","r2_outcome_a","r2_outcome_b","r2_reward","r3_prob_a","r3_prob_b","attention_check","count","r3_strength_a","r3_strength_b","r3_outcome_a","r3_outcome_b","r3_reward","r3_effort_a","r3_effort_b","screen","pick_contest","pick_round","pick_side","trial_probability","trial_outcome","bonus","button_pressed","attention_sum","attention","datapipe_meta.attributes.date_modified"
"16101.399999976158","https://psyc-201.github.io/xiang2023/exp/index1.html?PROLIFIC_PID=REDACTED&STUDY_ID=69168b21477cff9ada6cb980&SESSION_ID=691bd37daff303c8f38c45fe","external-html",0,16199,"0.0-0.0","TcKSGcD5csyANglOWe4KcJwCyG/wLAW2HeOdiDwbYX0Xs41T3K6hG0oW/ovqUGwbfxnkcmv1eQZyol/sBbmYq15wQlYsbq/dvC6oxoj/sPOaFLhVGeouXL/PXez93wbteu04p3DuOlQiFwxdH7y453LxwFhFLCNMHSTG2Cu/Pp3XbyBQ9XlEdqr5A95w/w0N74DrMbu4YR9OzCSMbZWQczBMkaZufbOj/76YVw5ZSzqfy3X7O0eF59ttUB94YgZn5syJ2/bNX3vPn69ce+QEzAqpQhZYWDqp5AO76UXJO3H5hJWhnnnjSuGtphUQ/ylReCkN9hm6MGIctg02twAtJQ==","69168b21477cff9ada6cb980","691bd37daff303c8f38c45fe","index1","<span style='color:red'>Fail,<span style='color:red'>Fail,<span style='color:green'>Lift,<span style='color:green'>Lift,<span style='color:red'>Fail,<span style='color:red'>Fail,<span style='color:red'>Fail,<span style='color:red'>Fail,<span style='color:green'>Lift,<span style='color:red'>Fail,<span style='color:green'>Lift,<span style='color:red'>Fail","<span style='color:red'>Fail,<span style='color:red'>Fail,<span style='color:green'>Lift,<span style='color:green'>Lift,<span style='color:green'>Lift,<span style='color:green'>Lift,<span style='color:red'>Fail,<span style='color:green'>Lift,<span style='color:green'>Lift,<span style='color:green'>Lift,<span style='color:green'>Lift,<span style='color:red'>Fail","<span style='color:red'>Fail,<span style='color:green'>Lift,<span style='color:green'>Lift,<span style='color:red'>Fail,<span style='color:green'>Lift,<span style='color:green'>Lift","0,0,1,1,0,0,0,0,1,0,1,0","0,0,1,1,1,1,0,1,1,1,1,0","0,1,1,0,1,1",10,20,20,"","","","","","",NA,"",NA,NA,NA,NA,NA,NA,NA,NA,NA,NA,NA,NA,NA,NA,NA,NA,NA,NA,NA,NA,NA,NA,NA,NA,NA,NA,NA,NA,NA,NA,NA,NA,NA,NA,NA,NA,NA,NA,NA,"",NA,NA,NA,NA,NA,NA,NA,NA,NA,2025-11-18 02:26:15
"","https://psyc-201.github.io/xiang2023/exp/index1.html?PROLIFIC_PID=REDACTED&STUDY_ID=69168b21477cff9ada6cb980&SESSION_ID=691bd37daff303c8f38c45fe","fullscreen",1,24499,"0.0-1.0","TcKSGcD5csyANglOWe4KcJwCyG/wLAW2HeOdiDwbYX0Xs41T3K6hG0oW/ovqUGwbfxnkcmv1eQZyol/sBbmYq15wQlYsbq/dvC6oxoj/sPOaFLhVGeouXL/PXez93wbteu04p3DuOlQiFwxdH7y453LxwFhFLCNMHSTG2Cu/Pp3XbyBQ9XlEdqr5A95w/w0N74DrMbu4YR9OzCSMbZWQczBMkaZufbOj/76YVw5ZSzqfy3X7O0eF59ttUB94YgZn5syJ2/bNX3vPn69ce+QEzAqpQhZYWDqp5AO76UXJO3H5hJWhnnnjSuGtphUQ/ylReCkN9hm6MGIctg02twAtJQ==","69168b21477cff9ada6cb980","691bd37daff303c8f38c45fe","index1","<span style='color:red'>Fail,<span style='color:red'>Fail,<span style='color:green'>Lift,<span style='color:green'>Lift,<span style='color:red'>Fail,<span style='color:red'>Fail,<span style='color:red'>Fail,<span style='color:red'>Fail,<span style='color:green'>Lift,<span style='color:red'>Fail,<span style='color:green'>Lift,<span style='color:red'>Fail","<span style='color:red'>Fail,<span style='color:red'>Fail,<span style='color:green'>Lift,<span style='color:green'>Lift,<span style='color:green'>Lift,<span style='color:green'>Lift,<span style='color:red'>Fail,<span style='color:green'>Lift,<span style='color:green'>Lift,<span style='color:green'>Lift,<span style='color:green'>Lift,<span style='color:red'>Fail","<span style='color:red'>Fail,<span style='color:green'>Lift,<span style='color:green'>Lift,<span style='color:red'>Fail,<span style='color:green'>Lift,<span style='color:green'>Lift","0,0,1,1,0,0,0,0,1,0,1,0","0,0,1,1,1,1,0,1,1,1,1,0","0,1,1,0,1,1",10,20,20,"true","","","","","",NA,"",NA,NA,NA,NA,NA,NA,NA,NA,NA,NA,NA,NA,NA,NA,NA,NA,NA,NA,NA,NA,NA,NA,NA,NA,NA,NA,NA,NA,NA,NA,NA,NA,NA,NA,NA,NA,NA,NA,NA,"",NA,NA,NA,NA,NA,NA,NA,NA,NA,2025-11-18 02:26:15
"232663.29999995232","https://psyc-201.github.io/xiang2023/exp/index1.html?PROLIFIC_PID=REDACTED&STUDY_ID=69168b21477cff9ada6cb980&SESSION_ID=691bd37daff303c8f38c45fe","instructions",2,257157,"0.0-2.0","TcKSGcD5csyANglOWe4KcJwCyG/wLAW2HeOdiDwbYX0Xs41T3K6hG0oW/ovqUGwbfxnkcmv1eQZyol/sBbmYq15wQlYsbq/dvC6oxoj/sPOaFLhVGeouXL/PXez93wbteu04p3DuOlQiFwxdH7y453LxwFhFLCNMHSTG2Cu/Pp3XbyBQ9XlEdqr5A95w/w0N74DrMbu4YR9OzCSMbZWQczBMkaZufbOj/76YVw5ZSzqfy3X7O0eF59ttUB94YgZn5syJ2/bNX3vPn69ce+QEzAqpQhZYWDqp5AO76UXJO3H5hJWhnnnjSuGtphUQ/ylReCkN9hm6MGIctg02twAtJQ==","69168b21477cff9ada6cb980","691bd37daff303c8f38c45fe","index1","<span style='color:red'>Fail,<span style='color:red'>Fail,<span style='color:green'>Lift,<span style='color:green'>Lift,<span style='color:red'>Fail,<span style='color:red'>Fail,<span style='color:red'>Fail,<span style='color:red'>Fail,<span style='color:green'>Lift,<span style='color:red'>Fail,<span style='color:green'>Lift,<span style='color:red'>Fail","<span style='color:red'>Fail,<span style='color:red'>Fail,<span style='color:green'>Lift,<span style='color:green'>Lift,<span style='color:green'>Lift,<span style='color:green'>Lift,<span style='color:red'>Fail,<span style='color:green'>Lift,<span style='color:green'>Lift,<span style='color:green'>Lift,<span style='color:green'>Lift,<span style='color:red'>Fail","<span style='color:red'>Fail,<span style='color:green'>Lift,<span style='color:green'>Lift,<span style='color:red'>Fail,<span style='color:green'>Lift,<span style='color:green'>Lift","0,0,1,1,0,0,0,0,1,0,1,0","0,0,1,1,1,1,0,1,1,1,1,0","0,1,1,0,1,1",10,20,20,"","[{""page_index"":0,""viewing_time"":47746.60000002384},{""page_index"":1,""viewing_time"":35349.60000002384},{""page_index"":2,""viewing_time"":31149.899999976158},{""page_index"":3,""viewing_time"":66666.69999992847},{""page_index"":4,""viewing_time"":15699.800000071526},{""page_index"":5,""viewing_time"":27550},{""page_index"":6,""viewing_time"":8500.100000023842}]","","","","",NA,"",NA,NA,NA,NA,NA,NA,NA,NA,NA,NA,NA,NA,NA,NA,NA,NA,NA,NA,NA,NA,NA,NA,NA,NA,NA,NA,NA,NA,NA,NA,NA,NA,NA,NA,NA,NA,NA,NA,NA,"",NA,NA,NA,NA,NA,NA,NA,NA,NA,2025-11-18 02:26:15
"null","https://psyc-201.github.io/xiang2023/exp/index1.html?PROLIFIC_PID=REDACTED&STUDY_ID=69168b21477cff9ada6cb980&SESSION_ID=691bd37daff303c8f38c45fe","html-keyboard-response",3,258159,"0.0-3.0","TcKSGcD5csyANglOWe4KcJwCyG/wLAW2HeOdiDwbYX0Xs41T3K6hG0oW/ovqUGwbfxnkcmv1eQZyol/sBbmYq15wQlYsbq/dvC6oxoj/sPOaFLhVGeouXL/PXez93wbteu04p3DuOlQiFwxdH7y453LxwFhFLCNMHSTG2Cu/Pp3XbyBQ9XlEdqr5A95w/w0N74DrMbu4YR9OzCSMbZWQczBMkaZufbOj/76YVw5ZSzqfy3X7O0eF59ttUB94YgZn5syJ2/bNX3vPn69ce+QEzAqpQhZYWDqp5AO76UXJO3H5hJWhnnnjSuGtphUQ/ylReCkN9hm6MGIctg02twAtJQ==","69168b21477cff9ada6cb980","691bd37daff303c8f38c45fe","index1","<span style='color:red'>Fail,<span style='color:red'>Fail,<span style='color:green'>Lift,<span style='color:green'>Lift,<span style='color:red'>Fail,<span style='color:red'>Fail,<span style='color:red'>Fail,<span style='color:red'>Fail,<span style='color:green'>Lift,<span style='color:red'>Fail,<span style='color:green'>Lift,<span style='color:red'>Fail","<span style='color:red'>Fail,<span style='color:red'>Fail,<span style='color:green'>Lift,<span style='color:green'>Lift,<span style='color:green'>Lift,<span style='color:green'>Lift,<span style='color:red'>Fail,<span style='color:green'>Lift,<span style='color:green'>Lift,<span style='color:green'>Lift,<span style='color:green'>Lift,<span style='color:red'>Fail","<span style='color:red'>Fail,<span style='color:green'>Lift,<span style='color:green'>Lift,<span style='color:red'>Fail,<span style='color:green'>Lift,<span style='color:green'>Lift","0,0,1,1,0,0,0,0,1,0,1,0","0,0,1,1,1,1,0,1,1,1,1,0","0,1,1,0,1,1",10,20,20,"",""," ","null","","",NA,"",NA,NA,NA,NA,NA,NA,NA,NA,NA,NA,NA,NA,NA,NA,NA,NA,NA,NA,NA,NA,NA,NA,NA,NA,NA,NA,NA,NA,NA,NA,NA,NA,NA,NA,NA,NA,NA,NA,NA,"",NA,NA,NA,NA,NA,NA,NA,NA,NA,2025-11-18 02:26:15
"101214","https://psyc-201.github.io/xiang2023/exp/index1.html?PROLIFIC_PID=REDACTED&STUDY_ID=69168b21477cff9ada6cb980&SESSION_ID=691bd37daff303c8f38c45fe","survey-multi-choice",4,359372,"0.0-4.0","TcKSGcD5csyANglOWe4KcJwCyG/wLAW2HeOdiDwbYX0Xs41T3K6hG0oW/ovqUGwbfxnkcmv1eQZyol/sBbmYq15wQlYsbq/dvC6oxoj/sPOaFLhVGeouXL/PXez93wbteu04p3DuOlQiFwxdH7y453LxwFhFLCNMHSTG2Cu/Pp3XbyBQ9XlEdqr5A95w/w0N74DrMbu4YR9OzCSMbZWQczBMkaZufbOj/76YVw5ZSzqfy3X7O0eF59ttUB94YgZn5syJ2/bNX3vPn69ce+QEzAqpQhZYWDqp5AO76UXJO3H5hJWhnnnjSuGtphUQ/ylReCkN9hm6MGIctg02twAtJQ==","69168b21477cff9ada6cb980","691bd37daff303c8f38c45fe","index1","<span style='color:red'>Fail,<span style='color:red'>Fail,<span style='color:green'>Lift,<span style='color:green'>Lift,<span style='color:red'>Fail,<span style='color:red'>Fail,<span style='color:red'>Fail,<span style='color:red'>Fail,<span style='color:green'>Lift,<span style='color:red'>Fail,<span style='color:green'>Lift,<span style='color:red'>Fail","<span style='color:red'>Fail,<span style='color:red'>Fail,<span style='color:green'>Lift,<span style='color:green'>Lift,<span style='color:green'>Lift,<span style='color:green'>Lift,<span style='color:red'>Fail,<span style='color:green'>Lift,<span style='color:green'>Lift,<span style='color:green'>Lift,<span style='color:green'>Lift,<span style='color:red'>Fail","<span style='color:red'>Fail,<span style='color:green'>Lift,<span style='color:green'>Lift,<span style='color:red'>Fail,<span style='color:green'>Lift,<span style='color:green'>Lift","0,0,1,1,0,0,0,0,1,0,1,0","0,0,1,1,1,1,0,1,1,1,1,0","0,1,1,0,1,1",10,20,20,"","","","","{""Q0"":""It consists of multiple contests, each contest with three rounds."",""Q1"":""When a new contest begins."",""Q2"":""The box weight always stays the same (equivalent to strength of 5)."",""Q3"":""Each will get $20."",""Q4"":""How close my guesses are to the actual outcome.""}","[0,1,2,3,4]",NA,"",NA,NA,NA,NA,NA,NA,NA,NA,NA,NA,NA,NA,NA,NA,NA,NA,NA,NA,NA,NA,NA,NA,NA,NA,NA,NA,NA,NA,NA,NA,NA,NA,NA,NA,NA,NA,NA,NA,NA,"",NA,NA,NA,NA,NA,NA,NA,NA,NA,2025-11-18 02:26:15
"25858.299999952316","https://psyc-201.github.io/xiang2023/exp/index1.html?PROLIFIC_PID=REDACTED&STUDY_ID=69168b21477cff9ada6cb980&SESSION_ID=691bd37daff303c8f38c45fe","instructions",5,385236,"0.0-305.0","TcKSGcD5csyANglOWe4KcJwCyG/wLAW2HeOdiDwbYX0Xs41T3K6hG0oW/ovqUGwbfxnkcmv1eQZyol/sBbmYq15wQlYsbq/dvC6oxoj/sPOaFLhVGeouXL/PXez93wbteu04p3DuOlQiFwxdH7y453LxwFhFLCNMHSTG2Cu/Pp3XbyBQ9XlEdqr5A95w/w0N74DrMbu4YR9OzCSMbZWQczBMkaZufbOj/76YVw5ZSzqfy3X7O0eF59ttUB94YgZn5syJ2/bNX3vPn69ce+QEzAqpQhZYWDqp5AO76UXJO3H5hJWhnnnjSuGtphUQ/ylReCkN9hm6MGIctg02twAtJQ==","69168b21477cff9ada6cb980","691bd37daff303c8f38c45fe","index1","<span style='color:red'>Fail,<span style='color:red'>Fail,<span style='color:green'>Lift,<span style='color:green'>Lift,<span style='color:red'>Fail,<span style='color:red'>Fail,<span style='color:red'>Fail,<span style='color:red'>Fail,<span style='color:green'>Lift,<span style='color:red'>Fail,<span style='color:green'>Lift,<span style='color:red'>Fail","<span style='color:red'>Fail,<span style='color:red'>Fail,<span style='color:green'>Lift,<span style='color:green'>Lift,<span style='color:green'>Lift,<span style='color:green'>Lift,<span style='color:red'>Fail,<span style='color:green'>Lift,<span style='color:green'>Lift,<span style='color:green'>Lift,<span style='color:green'>Lift,<span style='color:red'>Fail","<span style='color:red'>Fail,<span style='color:green'>Lift,<span style='color:green'>Lift,<span style='color:red'>Fail,<span style='color:green'>Lift,<span style='color:green'>Lift","0,0,1,1,0,0,0,0,1,0,1,0","0,0,1,1,1,1,0,1,1,1,1,0","0,1,1,0,1,1",10,20,20,"","[{""page_index"":0,""viewing_time"":17207.600000023842},{""page_index"":1,""viewing_time"":8650.399999976158}]","","","","",NA,"",NA,NA,NA,NA,NA,NA,NA,NA,NA,NA,NA,NA,NA,NA,NA,NA,NA,NA,NA,NA,NA,NA,NA,NA,NA,NA,NA,NA,NA,NA,NA,NA,NA,NA,NA,NA,NA,NA,NA,"",NA,NA,NA,NA,NA,NA,NA,NA,NA,2025-11-18 02:26:15
"null","https://psyc-201.github.io/xiang2023/exp/index1.html?PROLIFIC_PID=REDACTED&STUDY_ID=69168b21477cff9ada6cb980&SESSION_ID=691bd37daff303c8f38c45fe","html-keyboard-response",6,386238,"0.0-306.0","TcKSGcD5csyANglOWe4KcJwCyG/wLAW2HeOdiDwbYX0Xs41T3K6hG0oW/ovqUGwbfxnkcmv1eQZyol/sBbmYq15wQlYsbq/dvC6oxoj/sPOaFLhVGeouXL/PXez93wbteu04p3DuOlQiFwxdH7y453LxwFhFLCNMHSTG2Cu/Pp3XbyBQ9XlEdqr5A95w/w0N74DrMbu4YR9OzCSMbZWQczBMkaZufbOj/76YVw5ZSzqfy3X7O0eF59ttUB94YgZn5syJ2/bNX3vPn69ce+QEzAqpQhZYWDqp5AO76UXJO3H5hJWhnnnjSuGtphUQ/ylReCkN9hm6MGIctg02twAtJQ==","69168b21477cff9ada6cb980","691bd37daff303c8f38c45fe","index1","<span style='color:red'>Fail,<span style='color:red'>Fail,<span style='color:green'>Lift,<span style='color:green'>Lift,<span style='color:red'>Fail,<span style='color:red'>Fail,<span style='color:red'>Fail,<span style='color:red'>Fail,<span style='color:green'>Lift,<span style='color:red'>Fail,<span style='color:green'>Lift,<span style='color:red'>Fail","<span style='color:red'>Fail,<span style='color:red'>Fail,<span style='color:green'>Lift,<span style='color:green'>Lift,<span style='color:green'>Lift,<span style='color:green'>Lift,<span style='color:red'>Fail,<span style='color:green'>Lift,<span style='color:green'>Lift,<span style='color:green'>Lift,<span style='color:green'>Lift,<span style='color:red'>Fail","<span style='color:red'>Fail,<span style='color:green'>Lift,<span style='color:green'>Lift,<span style='color:red'>Fail,<span style='color:green'>Lift,<span style='color:green'>Lift","0,0,1,1,0,0,0,0,1,0,1,0","0,0,1,1,1,1,0,1,1,1,1,0","0,1,1,0,1,1",10,20,20,"",""," ","null","","",1,"",NA,NA,NA,NA,NA,NA,NA,NA,NA,NA,NA,NA,NA,NA,NA,NA,NA,NA,NA,NA,NA,NA,NA,NA,NA,NA,NA,NA,NA,NA,NA,NA,NA,NA,NA,NA,NA,NA,NA,"",NA,NA,NA,NA,NA,NA,NA,NA,NA,2025-11-18 02:26:15
"null","https://psyc-201.github.io/xiang2023/exp/index1.html?PROLIFIC_PID=REDACTED&STUDY_ID=69168b21477cff9ada6cb980&SESSION_ID=691bd37daff303c8f38c45fe","html-keyboard-response",7,389241,"0.0-307.0","TcKSGcD5csyANglOWe4KcJwCyG/wLAW2HeOdiDwbYX0Xs41T3K6hG0oW/ovqUGwbfxnkcmv1eQZyol/sBbmYq15wQlYsbq/dvC6oxoj/sPOaFLhVGeouXL/PXez93wbteu04p3DuOlQiFwxdH7y453LxwFhFLCNMHSTG2Cu/Pp3XbyBQ9XlEdqr5A95w/w0N74DrMbu4YR9OzCSMbZWQczBMkaZufbOj/76YVw5ZSzqfy3X7O0eF59ttUB94YgZn5syJ2/bNX3vPn69ce+QEzAqpQhZYWDqp5AO76UXJO3H5hJWhnnnjSuGtphUQ/ylReCkN9hm6MGIctg02twAtJQ==","69168b21477cff9ada6cb980","691bd37daff303c8f38c45fe","index1","<span style='color:red'>Fail,<span style='color:red'>Fail,<span style='color:green'>Lift,<span style='color:green'>Lift,<span style='color:red'>Fail,<span style='color:red'>Fail,<span style='color:red'>Fail,<span style='color:red'>Fail,<span style='color:green'>Lift,<span style='color:red'>Fail,<span style='color:green'>Lift,<span style='color:red'>Fail","<span style='color:red'>Fail,<span style='color:red'>Fail,<span style='color:green'>Lift,<span style='color:green'>Lift,<span style='color:green'>Lift,<span style='color:green'>Lift,<span style='color:red'>Fail,<span style='color:green'>Lift,<span style='color:green'>Lift,<span style='color:green'>Lift,<span style='color:green'>Lift,<span style='color:red'>Fail","<span style='color:red'>Fail,<span style='color:green'>Lift,<span style='color:green'>Lift,<span style='color:red'>Fail,<span style='color:green'>Lift,<span style='color:green'>Lift","0,0,1,1,0,0,0,0,1,0,1,0","0,0,1,1,1,1,0,1,1,1,1,0","0,1,1,0,1,1",10,20,20,"","","<p style='font-size:30px'><b> New Contest! </b></p>","null","","",1,"",NA,NA,NA,NA,NA,NA,NA,NA,NA,NA,NA,NA,NA,NA,NA,NA,NA,NA,NA,NA,NA,NA,NA,NA,NA,NA,NA,NA,NA,NA,NA,NA,NA,NA,NA,NA,NA,NA,NA,"",NA,NA,NA,NA,NA,NA,NA,NA,NA,2025-11-18 02:26:15
"42941.59999990463","https://psyc-201.github.io/xiang2023/exp/index1.html?PROLIFIC_PID=REDACTED&STUDY_ID=69168b21477cff9ada6cb980&SESSION_ID=691bd37daff303c8f38c45fe","survey-html-form",8,432185,"0.0-308.0","TcKSGcD5csyANglOWe4KcJwCyG/wLAW2HeOdiDwbYX0Xs41T3K6hG0oW/ovqUGwbfxnkcmv1eQZyol/sBbmYq15wQlYsbq/dvC6oxoj/sPOaFLhVGeouXL/PXez93wbteu04p3DuOlQiFwxdH7y453LxwFhFLCNMHSTG2Cu/Pp3XbyBQ9XlEdqr5A95w/w0N74DrMbu4YR9OzCSMbZWQczBMkaZufbOj/76YVw5ZSzqfy3X7O0eF59ttUB94YgZn5syJ2/bNX3vPn69ce+QEzAqpQhZYWDqp5AO76UXJO3H5hJWhnnnjSuGtphUQ/ylReCkN9hm6MGIctg02twAtJQ==","69168b21477cff9ada6cb980","691bd37daff303c8f38c45fe","index1","<span style='color:red'>Fail,<span style='color:red'>Fail,<span style='color:green'>Lift,<span style='color:green'>Lift,<span style='color:red'>Fail,<span style='color:red'>Fail,<span style='color:red'>Fail,<span style='color:red'>Fail,<span style='color:green'>Lift,<span style='color:red'>Fail,<span style='color:green'>Lift,<span style='color:red'>Fail","<span style='color:red'>Fail,<span style='color:red'>Fail,<span style='color:green'>Lift,<span style='color:green'>Lift,<span style='color:green'>Lift,<span style='color:green'>Lift,<span style='color:red'>Fail,<span style='color:green'>Lift,<span style='color:green'>Lift,<span style='color:green'>Lift,<span style='color:green'>Lift,<span style='color:red'>Fail","<span style='color:red'>Fail,<span style='color:green'>Lift,<span style='color:green'>Lift,<span style='color:red'>Fail,<span style='color:green'>Lift,<span style='color:green'>Lift","0,0,1,1,0,0,0,0,1,0,1,0","0,0,1,1,1,1,0,1,1,1,1,0","0,1,1,0,1,1",10,20,20,"","","","","{""box1"":""5"",""box2"":""5""}","",1,"round1_outcome",1,1,1,5,5,NA,NA,0,0,10,5,5,NA,NA,0,0,10,NA,NA,NA,NA,NA,NA,NA,NA,NA,NA,NA,NA,NA,NA,NA,NA,NA,NA,NA,NA,NA,NA,"",NA,NA,NA,NA,NA,NA,NA,NA,NA,2025-11-18 02:26:15
"24630.299999952316","https://psyc-201.github.io/xiang2023/exp/index1.html?PROLIFIC_PID=REDACTED&STUDY_ID=69168b21477cff9ada6cb980&SESSION_ID=691bd37daff303c8f38c45fe","survey-html-form",9,456817,"0.0-309.0","TcKSGcD5csyANglOWe4KcJwCyG/wLAW2HeOdiDwbYX0Xs41T3K6hG0oW/ovqUGwbfxnkcmv1eQZyol/sBbmYq15wQlYsbq/dvC6oxoj/sPOaFLhVGeouXL/PXez93wbteu04p3DuOlQiFwxdH7y453LxwFhFLCNMHSTG2Cu/Pp3XbyBQ9XlEdqr5A95w/w0N74DrMbu4YR9OzCSMbZWQczBMkaZufbOj/76YVw5ZSzqfy3X7O0eF59ttUB94YgZn5syJ2/bNX3vPn69ce+QEzAqpQhZYWDqp5AO76UXJO3H5hJWhnnnjSuGtphUQ/ylReCkN9hm6MGIctg02twAtJQ==","69168b21477cff9ada6cb980","691bd37daff303c8f38c45fe","index1","<span style='color:red'>Fail,<span style='color:red'>Fail,<span style='color:green'>Lift,<span style='color:green'>Lift,<span style='color:red'>Fail,<span style='color:red'>Fail,<span style='color:red'>Fail,<span style='color:red'>Fail,<span style='color:green'>Lift,<span style='color:red'>Fail,<span style='color:green'>Lift,<span style='color:red'>Fail","<span style='color:red'>Fail,<span style='color:red'>Fail,<span style='color:green'>Lift,<span style='color:green'>Lift,<span style='color:green'>Lift,<span style='color:green'>Lift,<span style='color:red'>Fail,<span style='color:green'>Lift,<span style='color:green'>Lift,<span style='color:green'>Lift,<span style='color:green'>Lift,<span style='color:red'>Fail","<span style='color:red'>Fail,<span style='color:green'>Lift,<span style='color:green'>Lift,<span style='color:red'>Fail,<span style='color:green'>Lift,<span style='color:green'>Lift","0,0,1,1,0,0,0,0,1,0,1,0","0,0,1,1,1,1,0,1,1,1,1,0","0,1,1,0,1,1",10,20,20,"","","","","{""box1"":""8"",""box2"":""8""}","",1,"round2_ready",2,1,2,NA,NA,NA,NA,NA,NA,NA,NA,NA,NA,NA,NA,NA,NA,8,8,8,8,NA,NA,NA,NA,NA,NA,NA,NA,NA,NA,NA,NA,NA,NA,NA,NA,NA,NA,"",NA,NA,NA,NA,NA,NA,NA,NA,NA,2025-11-18 02:26:15
"44664","https://psyc-201.github.io/xiang2023/exp/index1.html?PROLIFIC_PID=REDACTED&STUDY_ID=69168b21477cff9ada6cb980&SESSION_ID=691bd37daff303c8f38c45fe","survey-html-form",10,501483,"0.0-310.0","TcKSGcD5csyANglOWe4KcJwCyG/wLAW2HeOdiDwbYX0Xs41T3K6hG0oW/ovqUGwbfxnkcmv1eQZyol/sBbmYq15wQlYsbq/dvC6oxoj/sPOaFLhVGeouXL/PXez93wbteu04p3DuOlQiFwxdH7y453LxwFhFLCNMHSTG2Cu/Pp3XbyBQ9XlEdqr5A95w/w0N74DrMbu4YR9OzCSMbZWQczBMkaZufbOj/76YVw5ZSzqfy3X7O0eF59ttUB94YgZn5syJ2/bNX3vPn69ce+QEzAqpQhZYWDqp5AO76UXJO3H5hJWhnnnjSuGtphUQ/ylReCkN9hm6MGIctg02twAtJQ==","69168b21477cff9ada6cb980","691bd37daff303c8f38c45fe","index1","<span style='color:red'>Fail,<span style='color:red'>Fail,<span style='color:green'>Lift,<span style='color:green'>Lift,<span style='color:red'>Fail,<span style='color:red'>Fail,<span style='color:red'>Fail,<span style='color:red'>Fail,<span style='color:green'>Lift,<span style='color:red'>Fail,<span style='color:green'>Lift,<span style='color:red'>Fail","<span style='color:red'>Fail,<span style='color:red'>Fail,<span style='color:green'>Lift,<span style='color:green'>Lift,<span style='color:green'>Lift,<span style='color:green'>Lift,<span style='color:red'>Fail,<span style='color:green'>Lift,<span style='color:green'>Lift,<span style='color:green'>Lift,<span style='color:green'>Lift,<span style='color:red'>Fail","<span style='color:red'>Fail,<span style='color:green'>Lift,<span style='color:green'>Lift,<span style='color:red'>Fail,<span style='color:green'>Lift,<span style='color:green'>Lift","0,0,1,1,0,0,0,0,1,0,1,0","0,0,1,1,1,1,0,1,1,1,1,0","0,1,1,0,1,1",10,20,20,"","","","","{""box1"":""3"",""box2"":""5"",""box4"":""80""}","",1,"round2_outcome",3,1,2,3,5,NA,80,0,1,20,NA,NA,NA,NA,NA,NA,NA,NA,NA,NA,NA,3,5,NA,80,0,1,20,NA,NA,NA,NA,NA,NA,NA,NA,NA,NA,NA,"",NA,NA,NA,NA,NA,NA,NA,NA,NA,2025-11-18 02:26:15
"28713.600000023842","https://psyc-201.github.io/xiang2023/exp/index1.html?PROLIFIC_PID=REDACTED&STUDY_ID=69168b21477cff9ada6cb980&SESSION_ID=691bd37daff303c8f38c45fe","survey-html-form",11,530198,"0.0-311.0","TcKSGcD5csyANglOWe4KcJwCyG/wLAW2HeOdiDwbYX0Xs41T3K6hG0oW/ovqUGwbfxnkcmv1eQZyol/sBbmYq15wQlYsbq/dvC6oxoj/sPOaFLhVGeouXL/PXez93wbteu04p3DuOlQiFwxdH7y453LxwFhFLCNMHSTG2Cu/Pp3XbyBQ9XlEdqr5A95w/w0N74DrMbu4YR9OzCSMbZWQczBMkaZufbOj/76YVw5ZSzqfy3X7O0eF59ttUB94YgZn5syJ2/bNX3vPn69ce+QEzAqpQhZYWDqp5AO76UXJO3H5hJWhnnnjSuGtphUQ/ylReCkN9hm6MGIctg02twAtJQ==","69168b21477cff9ada6cb980","691bd37daff303c8f38c45fe","index1","<span style='color:red'>Fail,<span style='color:red'>Fail,<span style='color:green'>Lift,<span style='color:green'>Lift,<span style='color:red'>Fail,<span style='color:red'>Fail,<span style='color:red'>Fail,<span style='color:red'>Fail,<span style='color:green'>Lift,<span style='color:red'>Fail,<span style='color:green'>Lift,<span style='color:red'>Fail","<span style='color:red'>Fail,<span style='color:red'>Fail,<span style='color:green'>Lift,<span style='color:green'>Lift,<span style='color:green'>Lift,<span style='color:green'>Lift,<span style='color:red'>Fail,<span style='color:green'>Lift,<span style='color:green'>Lift,<span style='color:green'>Lift,<span style='color:green'>Lift,<span style='color:red'>Fail","<span style='color:red'>Fail,<span style='color:green'>Lift,<span style='color:green'>Lift,<span style='color:red'>Fail,<span style='color:green'>Lift,<span style='color:green'>Lift","0,0,1,1,0,0,0,0,1,0,1,0","0,0,1,1,1,1,0,1,1,1,1,0","0,1,1,0,1,1",10,20,20,"","","","","{""box1"":""77""}","",1,"round3_ready",4,1,3,NA,NA,NA,NA,NA,NA,NA,NA,NA,NA,NA,NA,NA,NA,77,77,NA,NA,NA,NA,NA,NA,NA,NA,NA,77,77,NA,NA,NA,NA,NA,NA,NA,NA,NA,"",NA,NA,NA,NA,NA,NA,NA,NA,NA,2025-11-18 02:26:15
"34330.59999990463","https://psyc-201.github.io/xiang2023/exp/index1.html?PROLIFIC_PID=REDACTED&STUDY_ID=69168b21477cff9ada6cb980&SESSION_ID=691bd37daff303c8f38c45fe","survey-html-form",12,564530,"0.0-313.0-0.0","TcKSGcD5csyANglOWe4KcJwCyG/wLAW2HeOdiDwbYX0Xs41T3K6hG0oW/ovqUGwbfxnkcmv1eQZyol/sBbmYq15wQlYsbq/dvC6oxoj/sPOaFLhVGeouXL/PXez93wbteu04p3DuOlQiFwxdH7y453LxwFhFLCNMHSTG2Cu/Pp3XbyBQ9XlEdqr5A95w/w0N74DrMbu4YR9OzCSMbZWQczBMkaZufbOj/76YVw5ZSzqfy3X7O0eF59ttUB94YgZn5syJ2/bNX3vPn69ce+QEzAqpQhZYWDqp5AO76UXJO3H5hJWhnnnjSuGtphUQ/ylReCkN9hm6MGIctg02twAtJQ==","69168b21477cff9ada6cb980","691bd37daff303c8f38c45fe","index1","<span style='color:red'>Fail,<span style='color:red'>Fail,<span style='color:green'>Lift,<span style='color:green'>Lift,<span style='color:red'>Fail,<span style='color:red'>Fail,<span style='color:red'>Fail,<span style='color:red'>Fail,<span style='color:green'>Lift,<span style='color:red'>Fail,<span style='color:green'>Lift,<span style='color:red'>Fail","<span style='color:red'>Fail,<span style='color:red'>Fail,<span style='color:green'>Lift,<span style='color:green'>Lift,<span style='color:green'>Lift,<span style='color:green'>Lift,<span style='color:red'>Fail,<span style='color:green'>Lift,<span style='color:green'>Lift,<span style='color:green'>Lift,<span style='color:green'>Lift,<span style='color:red'>Fail","<span style='color:red'>Fail,<span style='color:green'>Lift,<span style='color:green'>Lift,<span style='color:red'>Fail,<span style='color:green'>Lift,<span style='color:green'>Lift","0,0,1,1,0,0,0,0,1,0,1,0","0,0,1,1,1,1,0,1,1,1,1,0","0,1,1,0,1,1",10,20,20,"","","","","{""box1"":""2"",""box2"":""4"",""box3"":""999"",""box4"":""999""}","",2,"round3_fail",5,1,3,2,4,NA,NA,0,0,20,NA,NA,NA,NA,NA,NA,NA,NA,NA,NA,NA,NA,NA,NA,NA,NA,NA,NA,NA,NA,1,1,2,4,0,0,20,NA,NA,"",NA,NA,NA,NA,NA,NA,NA,NA,NA,2025-11-18 02:26:15
"null","https://psyc-201.github.io/xiang2023/exp/index1.html?PROLIFIC_PID=REDACTED&STUDY_ID=69168b21477cff9ada6cb980&SESSION_ID=691bd37daff303c8f38c45fe","html-keyboard-response",13,567534,"0.0-316.0","TcKSGcD5csyANglOWe4KcJwCyG/wLAW2HeOdiDwbYX0Xs41T3K6hG0oW/ovqUGwbfxnkcmv1eQZyol/sBbmYq15wQlYsbq/dvC6oxoj/sPOaFLhVGeouXL/PXez93wbteu04p3DuOlQiFwxdH7y453LxwFhFLCNMHSTG2Cu/Pp3XbyBQ9XlEdqr5A95w/w0N74DrMbu4YR9OzCSMbZWQczBMkaZufbOj/76YVw5ZSzqfy3X7O0eF59ttUB94YgZn5syJ2/bNX3vPn69ce+QEzAqpQhZYWDqp5AO76UXJO3H5hJWhnnnjSuGtphUQ/ylReCkN9hm6MGIctg02twAtJQ==","69168b21477cff9ada6cb980","691bd37daff303c8f38c45fe","index1","<span style='color:red'>Fail,<span style='color:red'>Fail,<span style='color:green'>Lift,<span style='color:green'>Lift,<span style='color:red'>Fail,<span style='color:red'>Fail,<span style='color:red'>Fail,<span style='color:red'>Fail,<span style='color:green'>Lift,<span style='color:red'>Fail,<span style='color:green'>Lift,<span style='color:red'>Fail","<span style='color:red'>Fail,<span style='color:red'>Fail,<span style='color:green'>Lift,<span style='color:green'>Lift,<span style='color:green'>Lift,<span style='color:green'>Lift,<span style='color:red'>Fail,<span style='color:green'>Lift,<span style='color:green'>Lift,<span style='color:green'>Lift,<span style='color:green'>Lift,<span style='color:red'>Fail","<span style='color:red'>Fail,<span style='color:green'>Lift,<span style='color:green'>Lift,<span style='color:red'>Fail,<span style='color:green'>Lift,<span style='color:green'>Lift","0,0,1,1,0,0,0,0,1,0,1,0","0,0,1,1,1,1,0,1,1,1,1,0","0,1,1,0,1,1",10,20,20,"","","<p style='font-size:30px'><b> New Contest! </b></p>","null","","",2,"",NA,NA,NA,NA,NA,NA,NA,NA,NA,NA,NA,NA,NA,NA,NA,NA,NA,NA,NA,NA,NA,NA,NA,NA,NA,NA,NA,NA,NA,NA,NA,NA,NA,NA,NA,NA,NA,NA,NA,"",NA,NA,NA,NA,NA,NA,NA,NA,NA,2025-11-18 02:26:15
"62627.200000047684","https://psyc-201.github.io/xiang2023/exp/index1.html?PROLIFIC_PID=REDACTED&STUDY_ID=69168b21477cff9ada6cb980&SESSION_ID=691bd37daff303c8f38c45fe","survey-html-form",14,630162,"0.0-317.0","TcKSGcD5csyANglOWe4KcJwCyG/wLAW2HeOdiDwbYX0Xs41T3K6hG0oW/ovqUGwbfxnkcmv1eQZyol/sBbmYq15wQlYsbq/dvC6oxoj/sPOaFLhVGeouXL/PXez93wbteu04p3DuOlQiFwxdH7y453LxwFhFLCNMHSTG2Cu/Pp3XbyBQ9XlEdqr5A95w/w0N74DrMbu4YR9OzCSMbZWQczBMkaZufbOj/76YVw5ZSzqfy3X7O0eF59ttUB94YgZn5syJ2/bNX3vPn69ce+QEzAqpQhZYWDqp5AO76UXJO3H5hJWhnnnjSuGtphUQ/ylReCkN9hm6MGIctg02twAtJQ==","69168b21477cff9ada6cb980","691bd37daff303c8f38c45fe","index1","<span style='color:red'>Fail,<span style='color:red'>Fail,<span style='color:green'>Lift,<span style='color:green'>Lift,<span style='color:red'>Fail,<span style='color:red'>Fail,<span style='color:red'>Fail,<span style='color:red'>Fail,<span style='color:green'>Lift,<span style='color:red'>Fail,<span style='color:green'>Lift,<span style='color:red'>Fail","<span style='color:red'>Fail,<span style='color:red'>Fail,<span style='color:green'>Lift,<span style='color:green'>Lift,<span style='color:green'>Lift,<span style='color:green'>Lift,<span style='color:red'>Fail,<span style='color:green'>Lift,<span style='color:green'>Lift,<span style='color:green'>Lift,<span style='color:green'>Lift,<span style='color:red'>Fail","<span style='color:red'>Fail,<span style='color:green'>Lift,<span style='color:green'>Lift,<span style='color:red'>Fail,<span style='color:green'>Lift,<span style='color:green'>Lift","0,0,1,1,0,0,0,0,1,0,1,0","0,0,1,1,1,1,0,1,1,1,1,0","0,1,1,0,1,1",10,20,20,"","","","","{""box1"":""7"",""box2"":""5"",""box3"":""58""}","",2,"round1_outcome",1,2,1,7,5,58,NA,1,0,10,7,5,58,NA,1,0,10,NA,NA,NA,NA,NA,NA,NA,NA,NA,NA,NA,NA,NA,NA,NA,NA,NA,NA,NA,NA,NA,NA,"",NA,NA,NA,NA,NA,NA,NA,NA,NA,2025-11-18 02:26:15
"37097.800000071526","https://psyc-201.github.io/xiang2023/exp/index1.html?PROLIFIC_PID=REDACTED&STUDY_ID=69168b21477cff9ada6cb980&SESSION_ID=691bd37daff303c8f38c45fe","survey-html-form",15,667261,"0.0-318.0","TcKSGcD5csyANglOWe4KcJwCyG/wLAW2HeOdiDwbYX0Xs41T3K6hG0oW/ovqUGwbfxnkcmv1eQZyol/sBbmYq15wQlYsbq/dvC6oxoj/sPOaFLhVGeouXL/PXez93wbteu04p3DuOlQiFwxdH7y453LxwFhFLCNMHSTG2Cu/Pp3XbyBQ9XlEdqr5A95w/w0N74DrMbu4YR9OzCSMbZWQczBMkaZufbOj/76YVw5ZSzqfy3X7O0eF59ttUB94YgZn5syJ2/bNX3vPn69ce+QEzAqpQhZYWDqp5AO76UXJO3H5hJWhnnnjSuGtphUQ/ylReCkN9hm6MGIctg02twAtJQ==","69168b21477cff9ada6cb980","691bd37daff303c8f38c45fe","index1","<span style='color:red'>Fail,<span style='color:red'>Fail,<span style='color:green'>Lift,<span style='color:green'>Lift,<span style='color:red'>Fail,<span style='color:red'>Fail,<span style='color:red'>Fail,<span style='color:red'>Fail,<span style='color:green'>Lift,<span style='color:red'>Fail,<span style='color:green'>Lift,<span style='color:red'>Fail","<span style='color:red'>Fail,<span style='color:red'>Fail,<span style='color:green'>Lift,<span style='color:green'>Lift,<span style='color:green'>Lift,<span style='color:green'>Lift,<span style='color:red'>Fail,<span style='color:green'>Lift,<span style='color:green'>Lift,<span style='color:green'>Lift,<span style='color:green'>Lift,<span style='color:red'>Fail","<span style='color:red'>Fail,<span style='color:green'>Lift,<span style='color:green'>Lift,<span style='color:red'>Fail,<span style='color:green'>Lift,<span style='color:green'>Lift","0,0,1,1,0,0,0,0,1,0,1,0","0,0,1,1,1,1,0,1,1,1,1,0","0,1,1,0,1,1",10,20,20,"","","","","{""box1"":""100"",""box2"":""70""}","",2,"round2_ready",2,2,2,NA,NA,NA,NA,NA,NA,NA,NA,NA,NA,NA,NA,NA,NA,100,70,100,70,NA,NA,NA,NA,NA,NA,NA,NA,NA,NA,NA,NA,NA,NA,NA,NA,NA,NA,"",NA,NA,NA,NA,NA,NA,NA,NA,NA,2025-11-18 02:26:15
"37931.10000002384","https://psyc-201.github.io/xiang2023/exp/index1.html?PROLIFIC_PID=REDACTED&STUDY_ID=69168b21477cff9ada6cb980&SESSION_ID=691bd37daff303c8f38c45fe","survey-html-form",16,705193,"0.0-319.0","TcKSGcD5csyANglOWe4KcJwCyG/wLAW2HeOdiDwbYX0Xs41T3K6hG0oW/ovqUGwbfxnkcmv1eQZyol/sBbmYq15wQlYsbq/dvC6oxoj/sPOaFLhVGeouXL/PXez93wbteu04p3DuOlQiFwxdH7y453LxwFhFLCNMHSTG2Cu/Pp3XbyBQ9XlEdqr5A95w/w0N74DrMbu4YR9OzCSMbZWQczBMkaZufbOj/76YVw5ZSzqfy3X7O0eF59ttUB94YgZn5syJ2/bNX3vPn69ce+QEzAqpQhZYWDqp5AO76UXJO3H5hJWhnnnjSuGtphUQ/ylReCkN9hm6MGIctg02twAtJQ==","69168b21477cff9ada6cb980","691bd37daff303c8f38c45fe","index1","<span style='color:red'>Fail,<span style='color:red'>Fail,<span style='color:green'>Lift,<span style='color:green'>Lift,<span style='color:red'>Fail,<span style='color:red'>Fail,<span style='color:red'>Fail,<span style='color:red'>Fail,<span style='color:green'>Lift,<span style='color:red'>Fail,<span style='color:green'>Lift,<span style='color:red'>Fail","<span style='color:red'>Fail,<span style='color:red'>Fail,<span style='color:green'>Lift,<span style='color:green'>Lift,<span style='color:green'>Lift,<span style='color:green'>Lift,<span style='color:red'>Fail,<span style='color:green'>Lift,<span style='color:green'>Lift,<span style='color:green'>Lift,<span style='color:green'>Lift,<span style='color:red'>Fail","<span style='color:red'>Fail,<span style='color:green'>Lift,<span style='color:green'>Lift,<span style='color:red'>Fail,<span style='color:green'>Lift,<span style='color:green'>Lift","0,0,1,1,0,0,0,0,1,0,1,0","0,0,1,1,1,1,0,1,1,1,1,0","0,1,1,0,1,1",10,20,20,"","","","","{""box1"":""8"",""box2"":""2"",""box3"":""98""}","",2,"round2_outcome",3,2,2,8,2,98,NA,1,0,20,NA,NA,NA,NA,NA,NA,NA,NA,NA,NA,NA,8,2,98,NA,1,0,20,NA,NA,NA,NA,NA,NA,NA,NA,NA,NA,NA,"",NA,NA,NA,NA,NA,NA,NA,NA,NA,2025-11-18 02:26:15
"26115.100000023842","https://psyc-201.github.io/xiang2023/exp/index1.html?PROLIFIC_PID=REDACTED&STUDY_ID=69168b21477cff9ada6cb980&SESSION_ID=691bd37daff303c8f38c45fe","survey-html-form",17,731310,"0.0-320.0","TcKSGcD5csyANglOWe4KcJwCyG/wLAW2HeOdiDwbYX0Xs41T3K6hG0oW/ovqUGwbfxnkcmv1eQZyol/sBbmYq15wQlYsbq/dvC6oxoj/sPOaFLhVGeouXL/PXez93wbteu04p3DuOlQiFwxdH7y453LxwFhFLCNMHSTG2Cu/Pp3XbyBQ9XlEdqr5A95w/w0N74DrMbu4YR9OzCSMbZWQczBMkaZufbOj/76YVw5ZSzqfy3X7O0eF59ttUB94YgZn5syJ2/bNX3vPn69ce+QEzAqpQhZYWDqp5AO76UXJO3H5hJWhnnnjSuGtphUQ/ylReCkN9hm6MGIctg02twAtJQ==","69168b21477cff9ada6cb980","691bd37daff303c8f38c45fe","index1","<span style='color:red'>Fail,<span style='color:red'>Fail,<span style='color:green'>Lift,<span style='color:green'>Lift,<span style='color:red'>Fail,<span style='color:red'>Fail,<span style='color:red'>Fail,<span style='color:red'>Fail,<span style='color:green'>Lift,<span style='color:red'>Fail,<span style='color:green'>Lift,<span style='color:red'>Fail","<span style='color:red'>Fail,<span style='color:red'>Fail,<span style='color:green'>Lift,<span style='color:green'>Lift,<span style='color:green'>Lift,<span style='color:green'>Lift,<span style='color:red'>Fail,<span style='color:green'>Lift,<span style='color:green'>Lift,<span style='color:green'>Lift,<span style='color:green'>Lift,<span style='color:red'>Fail","<span style='color:red'>Fail,<span style='color:green'>Lift,<span style='color:green'>Lift,<span style='color:red'>Fail,<span style='color:green'>Lift,<span style='color:green'>Lift","0,0,1,1,0,0,0,0,1,0,1,0","0,0,1,1,1,1,0,1,1,1,1,0","0,1,1,0,1,1",10,20,20,"","","","","{""box1"":""68""}","",2,"round3_ready",4,2,3,NA,NA,NA,NA,NA,NA,NA,NA,NA,NA,NA,NA,NA,NA,68,68,NA,NA,NA,NA,NA,NA,NA,NA,NA,68,68,NA,NA,NA,NA,NA,NA,NA,NA,NA,"",NA,NA,NA,NA,NA,NA,NA,NA,NA,2025-11-18 02:26:15
"51113.39999997616","https://psyc-201.github.io/xiang2023/exp/index1.html?PROLIFIC_PID=REDACTED&STUDY_ID=69168b21477cff9ada6cb980&SESSION_ID=691bd37daff303c8f38c45fe","survey-html-form",18,782424,"0.0-321.0-0.0","TcKSGcD5csyANglOWe4KcJwCyG/wLAW2HeOdiDwbYX0Xs41T3K6hG0oW/ovqUGwbfxnkcmv1eQZyol/sBbmYq15wQlYsbq/dvC6oxoj/sPOaFLhVGeouXL/PXez93wbteu04p3DuOlQiFwxdH7y453LxwFhFLCNMHSTG2Cu/Pp3XbyBQ9XlEdqr5A95w/w0N74DrMbu4YR9OzCSMbZWQczBMkaZufbOj/76YVw5ZSzqfy3X7O0eF59ttUB94YgZn5syJ2/bNX3vPn69ce+QEzAqpQhZYWDqp5AO76UXJO3H5hJWhnnnjSuGtphUQ/ylReCkN9hm6MGIctg02twAtJQ==","69168b21477cff9ada6cb980","691bd37daff303c8f38c45fe","index1","<span style='color:red'>Fail,<span style='color:red'>Fail,<span style='color:green'>Lift,<span style='color:green'>Lift,<span style='color:red'>Fail,<span style='color:red'>Fail,<span style='color:red'>Fail,<span style='color:red'>Fail,<span style='color:green'>Lift,<span style='color:red'>Fail,<span style='color:green'>Lift,<span style='color:red'>Fail","<span style='color:red'>Fail,<span style='color:red'>Fail,<span style='color:green'>Lift,<span style='color:green'>Lift,<span style='color:green'>Lift,<span style='color:green'>Lift,<span style='color:red'>Fail,<span style='color:green'>Lift,<span style='color:green'>Lift,<span style='color:green'>Lift,<span style='color:green'>Lift,<span style='color:red'>Fail","<span style='color:red'>Fail,<span style='color:green'>Lift,<span style='color:green'>Lift,<span style='color:red'>Fail,<span style='color:green'>Lift,<span style='color:green'>Lift","0,0,1,1,0,0,0,0,1,0,1,0","0,0,1,1,1,1,0,1,1,1,1,0","0,1,1,0,1,1",10,20,20,"","","","","{""box1"":""10"",""box2"":""3"",""box3"":""70"",""box4"":""100""}","",3,"round3_lift",5,2,3,10,3,70,100,1,1,20,NA,NA,NA,NA,NA,NA,NA,NA,NA,NA,NA,NA,NA,NA,NA,NA,NA,NA,NA,NA,NA,NA,10,3,1,1,20,70,100,"",NA,NA,NA,NA,NA,NA,NA,NA,NA,2025-11-18 02:26:15
"null","https://psyc-201.github.io/xiang2023/exp/index1.html?PROLIFIC_PID=REDACTED&STUDY_ID=69168b21477cff9ada6cb980&SESSION_ID=691bd37daff303c8f38c45fe","html-keyboard-response",19,785427,"0.0-325.0","TcKSGcD5csyANglOWe4KcJwCyG/wLAW2HeOdiDwbYX0Xs41T3K6hG0oW/ovqUGwbfxnkcmv1eQZyol/sBbmYq15wQlYsbq/dvC6oxoj/sPOaFLhVGeouXL/PXez93wbteu04p3DuOlQiFwxdH7y453LxwFhFLCNMHSTG2Cu/Pp3XbyBQ9XlEdqr5A95w/w0N74DrMbu4YR9OzCSMbZWQczBMkaZufbOj/76YVw5ZSzqfy3X7O0eF59ttUB94YgZn5syJ2/bNX3vPn69ce+QEzAqpQhZYWDqp5AO76UXJO3H5hJWhnnnjSuGtphUQ/ylReCkN9hm6MGIctg02twAtJQ==","69168b21477cff9ada6cb980","691bd37daff303c8f38c45fe","index1","<span style='color:red'>Fail,<span style='color:red'>Fail,<span style='color:green'>Lift,<span style='color:green'>Lift,<span style='color:red'>Fail,<span style='color:red'>Fail,<span style='color:red'>Fail,<span style='color:red'>Fail,<span style='color:green'>Lift,<span style='color:red'>Fail,<span style='color:green'>Lift,<span style='color:red'>Fail","<span style='color:red'>Fail,<span style='color:red'>Fail,<span style='color:green'>Lift,<span style='color:green'>Lift,<span style='color:green'>Lift,<span style='color:green'>Lift,<span style='color:red'>Fail,<span style='color:green'>Lift,<span style='color:green'>Lift,<span style='color:green'>Lift,<span style='color:green'>Lift,<span style='color:red'>Fail","<span style='color:red'>Fail,<span style='color:green'>Lift,<span style='color:green'>Lift,<span style='color:red'>Fail,<span style='color:green'>Lift,<span style='color:green'>Lift","0,0,1,1,0,0,0,0,1,0,1,0","0,0,1,1,1,1,0,1,1,1,1,0","0,1,1,0,1,1",10,20,20,"","","<p style='font-size:30px'><b> New Contest! </b></p>","null","","",3,"",NA,NA,NA,NA,NA,NA,NA,NA,NA,NA,NA,NA,NA,NA,NA,NA,NA,NA,NA,NA,NA,NA,NA,NA,NA,NA,NA,NA,NA,NA,NA,NA,NA,NA,NA,NA,NA,NA,NA,"",NA,NA,NA,NA,NA,NA,NA,NA,NA,2025-11-18 02:26:15
"25295.100000023842","https://psyc-201.github.io/xiang2023/exp/index1.html?PROLIFIC_PID=REDACTED&STUDY_ID=69168b21477cff9ada6cb980&SESSION_ID=691bd37daff303c8f38c45fe","survey-html-form",20,810724,"0.0-326.0","TcKSGcD5csyANglOWe4KcJwCyG/wLAW2HeOdiDwbYX0Xs41T3K6hG0oW/ovqUGwbfxnkcmv1eQZyol/sBbmYq15wQlYsbq/dvC6oxoj/sPOaFLhVGeouXL/PXez93wbteu04p3DuOlQiFwxdH7y453LxwFhFLCNMHSTG2Cu/Pp3XbyBQ9XlEdqr5A95w/w0N74DrMbu4YR9OzCSMbZWQczBMkaZufbOj/76YVw5ZSzqfy3X7O0eF59ttUB94YgZn5syJ2/bNX3vPn69ce+QEzAqpQhZYWDqp5AO76UXJO3H5hJWhnnnjSuGtphUQ/ylReCkN9hm6MGIctg02twAtJQ==","69168b21477cff9ada6cb980","691bd37daff303c8f38c45fe","index1","<span style='color:red'>Fail,<span style='color:red'>Fail,<span style='color:green'>Lift,<span style='color:green'>Lift,<span style='color:red'>Fail,<span style='color:red'>Fail,<span style='color:red'>Fail,<span style='color:red'>Fail,<span style='color:green'>Lift,<span style='color:red'>Fail,<span style='color:green'>Lift,<span style='color:red'>Fail","<span style='color:red'>Fail,<span style='color:red'>Fail,<span style='color:green'>Lift,<span style='color:green'>Lift,<span style='color:green'>Lift,<span style='color:green'>Lift,<span style='color:red'>Fail,<span style='color:green'>Lift,<span style='color:green'>Lift,<span style='color:green'>Lift,<span style='color:green'>Lift,<span style='color:red'>Fail","<span style='color:red'>Fail,<span style='color:green'>Lift,<span style='color:green'>Lift,<span style='color:red'>Fail,<span style='color:green'>Lift,<span style='color:green'>Lift","0,0,1,1,0,0,0,0,1,0,1,0","0,0,1,1,1,1,0,1,1,1,1,0","0,1,1,0,1,1",10,20,20,"","","","","{""box1"":""3"",""box2"":""5""}","",3,"round1_outcome",1,3,1,3,5,NA,NA,0,0,10,3,5,NA,NA,0,0,10,NA,NA,NA,NA,NA,NA,NA,NA,NA,NA,NA,NA,NA,NA,NA,NA,NA,NA,NA,NA,NA,NA,"",NA,NA,NA,NA,NA,NA,NA,NA,NA,2025-11-18 02:26:15
"24031.099999904633","https://psyc-201.github.io/xiang2023/exp/index1.html?PROLIFIC_PID=REDACTED&STUDY_ID=69168b21477cff9ada6cb980&SESSION_ID=691bd37daff303c8f38c45fe","survey-html-form",21,834756,"0.0-327.0","TcKSGcD5csyANglOWe4KcJwCyG/wLAW2HeOdiDwbYX0Xs41T3K6hG0oW/ovqUGwbfxnkcmv1eQZyol/sBbmYq15wQlYsbq/dvC6oxoj/sPOaFLhVGeouXL/PXez93wbteu04p3DuOlQiFwxdH7y453LxwFhFLCNMHSTG2Cu/Pp3XbyBQ9XlEdqr5A95w/w0N74DrMbu4YR9OzCSMbZWQczBMkaZufbOj/76YVw5ZSzqfy3X7O0eF59ttUB94YgZn5syJ2/bNX3vPn69ce+QEzAqpQhZYWDqp5AO76UXJO3H5hJWhnnnjSuGtphUQ/ylReCkN9hm6MGIctg02twAtJQ==","69168b21477cff9ada6cb980","691bd37daff303c8f38c45fe","index1","<span style='color:red'>Fail,<span style='color:red'>Fail,<span style='color:green'>Lift,<span style='color:green'>Lift,<span style='color:red'>Fail,<span style='color:red'>Fail,<span style='color:red'>Fail,<span style='color:red'>Fail,<span style='color:green'>Lift,<span style='color:red'>Fail,<span style='color:green'>Lift,<span style='color:red'>Fail","<span style='color:red'>Fail,<span style='color:red'>Fail,<span style='color:green'>Lift,<span style='color:green'>Lift,<span style='color:green'>Lift,<span style='color:green'>Lift,<span style='color:red'>Fail,<span style='color:green'>Lift,<span style='color:green'>Lift,<span style='color:green'>Lift,<span style='color:green'>Lift,<span style='color:red'>Fail","<span style='color:red'>Fail,<span style='color:green'>Lift,<span style='color:green'>Lift,<span style='color:red'>Fail,<span style='color:green'>Lift,<span style='color:green'>Lift","0,0,1,1,0,0,0,0,1,0,1,0","0,0,1,1,1,1,0,1,1,1,1,0","0,1,1,0,1,1",10,20,20,"","","","","{""box1"":""40"",""box2"":""84""}","",3,"round2_ready",2,3,2,NA,NA,NA,NA,NA,NA,NA,NA,NA,NA,NA,NA,NA,NA,40,84,40,84,NA,NA,NA,NA,NA,NA,NA,NA,NA,NA,NA,NA,NA,NA,NA,NA,NA,NA,"",NA,NA,NA,NA,NA,NA,NA,NA,NA,2025-11-18 02:26:15
"28880.100000023842","https://psyc-201.github.io/xiang2023/exp/index1.html?PROLIFIC_PID=REDACTED&STUDY_ID=69168b21477cff9ada6cb980&SESSION_ID=691bd37daff303c8f38c45fe","survey-html-form",22,863638,"0.0-328.0","TcKSGcD5csyANglOWe4KcJwCyG/wLAW2HeOdiDwbYX0Xs41T3K6hG0oW/ovqUGwbfxnkcmv1eQZyol/sBbmYq15wQlYsbq/dvC6oxoj/sPOaFLhVGeouXL/PXez93wbteu04p3DuOlQiFwxdH7y453LxwFhFLCNMHSTG2Cu/Pp3XbyBQ9XlEdqr5A95w/w0N74DrMbu4YR9OzCSMbZWQczBMkaZufbOj/76YVw5ZSzqfy3X7O0eF59ttUB94YgZn5syJ2/bNX3vPn69ce+QEzAqpQhZYWDqp5AO76UXJO3H5hJWhnnnjSuGtphUQ/ylReCkN9hm6MGIctg02twAtJQ==","69168b21477cff9ada6cb980","691bd37daff303c8f38c45fe","index1","<span style='color:red'>Fail,<span style='color:red'>Fail,<span style='color:green'>Lift,<span style='color:green'>Lift,<span style='color:red'>Fail,<span style='color:red'>Fail,<span style='color:red'>Fail,<span style='color:red'>Fail,<span style='color:green'>Lift,<span style='color:red'>Fail,<span style='color:green'>Lift,<span style='color:red'>Fail","<span style='color:red'>Fail,<span style='color:red'>Fail,<span style='color:green'>Lift,<span style='color:green'>Lift,<span style='color:green'>Lift,<span style='color:green'>Lift,<span style='color:red'>Fail,<span style='color:green'>Lift,<span style='color:green'>Lift,<span style='color:green'>Lift,<span style='color:green'>Lift,<span style='color:red'>Fail","<span style='color:red'>Fail,<span style='color:green'>Lift,<span style='color:green'>Lift,<span style='color:red'>Fail,<span style='color:green'>Lift,<span style='color:green'>Lift","0,0,1,1,0,0,0,0,1,0,1,0","0,0,1,1,1,1,0,1,1,1,1,0","0,1,1,0,1,1",10,20,20,"","","","","{""box1"":""3"",""box2"":""4""}","",3,"round2_outcome",3,3,2,3,4,NA,NA,0,0,20,NA,NA,NA,NA,NA,NA,NA,NA,NA,NA,NA,3,4,NA,NA,0,0,20,NA,NA,NA,NA,NA,NA,NA,NA,NA,NA,NA,"",NA,NA,NA,NA,NA,NA,NA,NA,NA,2025-11-18 02:26:15
"16731.5","https://psyc-201.github.io/xiang2023/exp/index1.html?PROLIFIC_PID=REDACTED&STUDY_ID=69168b21477cff9ada6cb980&SESSION_ID=691bd37daff303c8f38c45fe","survey-html-form",23,880372,"0.0-329.0","TcKSGcD5csyANglOWe4KcJwCyG/wLAW2HeOdiDwbYX0Xs41T3K6hG0oW/ovqUGwbfxnkcmv1eQZyol/sBbmYq15wQlYsbq/dvC6oxoj/sPOaFLhVGeouXL/PXez93wbteu04p3DuOlQiFwxdH7y453LxwFhFLCNMHSTG2Cu/Pp3XbyBQ9XlEdqr5A95w/w0N74DrMbu4YR9OzCSMbZWQczBMkaZufbOj/76YVw5ZSzqfy3X7O0eF59ttUB94YgZn5syJ2/bNX3vPn69ce+QEzAqpQhZYWDqp5AO76UXJO3H5hJWhnnnjSuGtphUQ/ylReCkN9hm6MGIctg02twAtJQ==","69168b21477cff9ada6cb980","691bd37daff303c8f38c45fe","index1","<span style='color:red'>Fail,<span style='color:red'>Fail,<span style='color:green'>Lift,<span style='color:green'>Lift,<span style='color:red'>Fail,<span style='color:red'>Fail,<span style='color:red'>Fail,<span style='color:red'>Fail,<span style='color:green'>Lift,<span style='color:red'>Fail,<span style='color:green'>Lift,<span style='color:red'>Fail","<span style='color:red'>Fail,<span style='color:red'>Fail,<span style='color:green'>Lift,<span style='color:green'>Lift,<span style='color:green'>Lift,<span style='color:green'>Lift,<span style='color:red'>Fail,<span style='color:green'>Lift,<span style='color:green'>Lift,<span style='color:green'>Lift,<span style='color:green'>Lift,<span style='color:red'>Fail","<span style='color:red'>Fail,<span style='color:green'>Lift,<span style='color:green'>Lift,<span style='color:red'>Fail,<span style='color:green'>Lift,<span style='color:green'>Lift","0,0,1,1,0,0,0,0,1,0,1,0","0,0,1,1,1,1,0,1,1,1,1,0","0,1,1,0,1,1",10,20,20,"","","","","{""box1"":""25""}","",3,"round3_ready",4,3,3,NA,NA,NA,NA,NA,NA,NA,NA,NA,NA,NA,NA,NA,NA,25,25,NA,NA,NA,NA,NA,NA,NA,NA,NA,25,25,NA,NA,NA,NA,NA,NA,NA,NA,NA,"",NA,NA,NA,NA,NA,NA,NA,NA,NA,2025-11-18 02:26:15
"25313.600000023842","https://psyc-201.github.io/xiang2023/exp/index1.html?PROLIFIC_PID=REDACTED&STUDY_ID=69168b21477cff9ada6cb980&SESSION_ID=691bd37daff303c8f38c45fe","survey-html-form",24,905687,"0.0-331.0-0.0","TcKSGcD5csyANglOWe4KcJwCyG/wLAW2HeOdiDwbYX0Xs41T3K6hG0oW/ovqUGwbfxnkcmv1eQZyol/sBbmYq15wQlYsbq/dvC6oxoj/sPOaFLhVGeouXL/PXez93wbteu04p3DuOlQiFwxdH7y453LxwFhFLCNMHSTG2Cu/Pp3XbyBQ9XlEdqr5A95w/w0N74DrMbu4YR9OzCSMbZWQczBMkaZufbOj/76YVw5ZSzqfy3X7O0eF59ttUB94YgZn5syJ2/bNX3vPn69ce+QEzAqpQhZYWDqp5AO76UXJO3H5hJWhnnnjSuGtphUQ/ylReCkN9hm6MGIctg02twAtJQ==","69168b21477cff9ada6cb980","691bd37daff303c8f38c45fe","index1","<span style='color:red'>Fail,<span style='color:red'>Fail,<span style='color:green'>Lift,<span style='color:green'>Lift,<span style='color:red'>Fail,<span style='color:red'>Fail,<span style='color:red'>Fail,<span style='color:red'>Fail,<span style='color:green'>Lift,<span style='color:red'>Fail,<span style='color:green'>Lift,<span style='color:red'>Fail","<span style='color:red'>Fail,<span style='color:red'>Fail,<span style='color:green'>Lift,<span style='color:green'>Lift,<span style='color:green'>Lift,<span style='color:green'>Lift,<span style='color:red'>Fail,<span style='color:green'>Lift,<span style='color:green'>Lift,<span style='color:green'>Lift,<span style='color:green'>Lift,<span style='color:red'>Fail","<span style='color:red'>Fail,<span style='color:green'>Lift,<span style='color:green'>Lift,<span style='color:red'>Fail,<span style='color:green'>Lift,<span style='color:green'>Lift","0,0,1,1,0,0,0,0,1,0,1,0","0,0,1,1,1,1,0,1,1,1,1,0","0,1,1,0,1,1",10,20,20,"","","","","{""box1"":""2"",""box2"":""1"",""box3"":""999"",""box4"":""999""}","",4,"round3_fail",5,3,3,2,1,NA,NA,0,0,20,NA,NA,NA,NA,NA,NA,NA,NA,NA,NA,NA,NA,NA,NA,NA,NA,NA,NA,NA,NA,1,1,2,1,0,0,20,NA,NA,"",NA,NA,NA,NA,NA,NA,NA,NA,NA,2025-11-18 02:26:15
"null","https://psyc-201.github.io/xiang2023/exp/index1.html?PROLIFIC_PID=REDACTED&STUDY_ID=69168b21477cff9ada6cb980&SESSION_ID=691bd37daff303c8f38c45fe","html-keyboard-response",25,908691,"0.0-334.0","TcKSGcD5csyANglOWe4KcJwCyG/wLAW2HeOdiDwbYX0Xs41T3K6hG0oW/ovqUGwbfxnkcmv1eQZyol/sBbmYq15wQlYsbq/dvC6oxoj/sPOaFLhVGeouXL/PXez93wbteu04p3DuOlQiFwxdH7y453LxwFhFLCNMHSTG2Cu/Pp3XbyBQ9XlEdqr5A95w/w0N74DrMbu4YR9OzCSMbZWQczBMkaZufbOj/76YVw5ZSzqfy3X7O0eF59ttUB94YgZn5syJ2/bNX3vPn69ce+QEzAqpQhZYWDqp5AO76UXJO3H5hJWhnnnjSuGtphUQ/ylReCkN9hm6MGIctg02twAtJQ==","69168b21477cff9ada6cb980","691bd37daff303c8f38c45fe","index1","<span style='color:red'>Fail,<span style='color:red'>Fail,<span style='color:green'>Lift,<span style='color:green'>Lift,<span style='color:red'>Fail,<span style='color:red'>Fail,<span style='color:red'>Fail,<span style='color:red'>Fail,<span style='color:green'>Lift,<span style='color:red'>Fail,<span style='color:green'>Lift,<span style='color:red'>Fail","<span style='color:red'>Fail,<span style='color:red'>Fail,<span style='color:green'>Lift,<span style='color:green'>Lift,<span style='color:green'>Lift,<span style='color:green'>Lift,<span style='color:red'>Fail,<span style='color:green'>Lift,<span style='color:green'>Lift,<span style='color:green'>Lift,<span style='color:green'>Lift,<span style='color:red'>Fail","<span style='color:red'>Fail,<span style='color:green'>Lift,<span style='color:green'>Lift,<span style='color:red'>Fail,<span style='color:green'>Lift,<span style='color:green'>Lift","0,0,1,1,0,0,0,0,1,0,1,0","0,0,1,1,1,1,0,1,1,1,1,0","0,1,1,0,1,1",10,20,20,"","","<p style='font-size:30px'><b> New Contest! </b></p>","null","","",4,"",NA,NA,NA,NA,NA,NA,NA,NA,NA,NA,NA,NA,NA,NA,NA,NA,NA,NA,NA,NA,NA,NA,NA,NA,NA,NA,NA,NA,NA,NA,NA,NA,NA,NA,NA,NA,NA,NA,NA,"",NA,NA,NA,NA,NA,NA,NA,NA,NA,2025-11-18 02:26:15
"29826.100000023842","https://psyc-201.github.io/xiang2023/exp/index1.html?PROLIFIC_PID=REDACTED&STUDY_ID=69168b21477cff9ada6cb980&SESSION_ID=691bd37daff303c8f38c45fe","survey-html-form",26,938519,"0.0-335.0","TcKSGcD5csyANglOWe4KcJwCyG/wLAW2HeOdiDwbYX0Xs41T3K6hG0oW/ovqUGwbfxnkcmv1eQZyol/sBbmYq15wQlYsbq/dvC6oxoj/sPOaFLhVGeouXL/PXez93wbteu04p3DuOlQiFwxdH7y453LxwFhFLCNMHSTG2Cu/Pp3XbyBQ9XlEdqr5A95w/w0N74DrMbu4YR9OzCSMbZWQczBMkaZufbOj/76YVw5ZSzqfy3X7O0eF59ttUB94YgZn5syJ2/bNX3vPn69ce+QEzAqpQhZYWDqp5AO76UXJO3H5hJWhnnnjSuGtphUQ/ylReCkN9hm6MGIctg02twAtJQ==","69168b21477cff9ada6cb980","691bd37daff303c8f38c45fe","index1","<span style='color:red'>Fail,<span style='color:red'>Fail,<span style='color:green'>Lift,<span style='color:green'>Lift,<span style='color:red'>Fail,<span style='color:red'>Fail,<span style='color:red'>Fail,<span style='color:red'>Fail,<span style='color:green'>Lift,<span style='color:red'>Fail,<span style='color:green'>Lift,<span style='color:red'>Fail","<span style='color:red'>Fail,<span style='color:red'>Fail,<span style='color:green'>Lift,<span style='color:green'>Lift,<span style='color:green'>Lift,<span style='color:green'>Lift,<span style='color:red'>Fail,<span style='color:green'>Lift,<span style='color:green'>Lift,<span style='color:green'>Lift,<span style='color:green'>Lift,<span style='color:red'>Fail","<span style='color:red'>Fail,<span style='color:green'>Lift,<span style='color:green'>Lift,<span style='color:red'>Fail,<span style='color:green'>Lift,<span style='color:green'>Lift","0,0,1,1,0,0,0,0,1,0,1,0","0,0,1,1,1,1,0,1,1,1,1,0","0,1,1,0,1,1",10,20,20,"","","","","{""box1"":""7"",""box2"":""5"",""box3"":""40""}","",4,"round1_outcome",1,4,1,7,5,40,NA,1,0,10,7,5,40,NA,1,0,10,NA,NA,NA,NA,NA,NA,NA,NA,NA,NA,NA,NA,NA,NA,NA,NA,NA,NA,NA,NA,NA,NA,"",NA,NA,NA,NA,NA,NA,NA,NA,NA,2025-11-18 02:26:15
"20732.5","https://psyc-201.github.io/xiang2023/exp/index1.html?PROLIFIC_PID=REDACTED&STUDY_ID=69168b21477cff9ada6cb980&SESSION_ID=691bd37daff303c8f38c45fe","survey-html-form",27,959252,"0.0-336.0","TcKSGcD5csyANglOWe4KcJwCyG/wLAW2HeOdiDwbYX0Xs41T3K6hG0oW/ovqUGwbfxnkcmv1eQZyol/sBbmYq15wQlYsbq/dvC6oxoj/sPOaFLhVGeouXL/PXez93wbteu04p3DuOlQiFwxdH7y453LxwFhFLCNMHSTG2Cu/Pp3XbyBQ9XlEdqr5A95w/w0N74DrMbu4YR9OzCSMbZWQczBMkaZufbOj/76YVw5ZSzqfy3X7O0eF59ttUB94YgZn5syJ2/bNX3vPn69ce+QEzAqpQhZYWDqp5AO76UXJO3H5hJWhnnnjSuGtphUQ/ylReCkN9hm6MGIctg02twAtJQ==","69168b21477cff9ada6cb980","691bd37daff303c8f38c45fe","index1","<span style='color:red'>Fail,<span style='color:red'>Fail,<span style='color:green'>Lift,<span style='color:green'>Lift,<span style='color:red'>Fail,<span style='color:red'>Fail,<span style='color:red'>Fail,<span style='color:red'>Fail,<span style='color:green'>Lift,<span style='color:red'>Fail,<span style='color:green'>Lift,<span style='color:red'>Fail","<span style='color:red'>Fail,<span style='color:red'>Fail,<span style='color:green'>Lift,<span style='color:green'>Lift,<span style='color:green'>Lift,<span style='color:green'>Lift,<span style='color:red'>Fail,<span style='color:green'>Lift,<span style='color:green'>Lift,<span style='color:green'>Lift,<span style='color:green'>Lift,<span style='color:red'>Fail","<span style='color:red'>Fail,<span style='color:green'>Lift,<span style='color:green'>Lift,<span style='color:red'>Fail,<span style='color:green'>Lift,<span style='color:green'>Lift","0,0,1,1,0,0,0,0,1,0,1,0","0,0,1,1,1,1,0,1,1,1,1,0","0,1,1,0,1,1",10,20,20,"","","","","{""box1"":""100"",""box2"":""57""}","",4,"round2_ready",2,4,2,NA,NA,NA,NA,NA,NA,NA,NA,NA,NA,NA,NA,NA,NA,100,57,100,57,NA,NA,NA,NA,NA,NA,NA,NA,NA,NA,NA,NA,NA,NA,NA,NA,NA,NA,"",NA,NA,NA,NA,NA,NA,NA,NA,NA,2025-11-18 02:26:15
"36946.59999990463","https://psyc-201.github.io/xiang2023/exp/index1.html?PROLIFIC_PID=REDACTED&STUDY_ID=69168b21477cff9ada6cb980&SESSION_ID=691bd37daff303c8f38c45fe","survey-html-form",28,996200,"0.0-337.0","TcKSGcD5csyANglOWe4KcJwCyG/wLAW2HeOdiDwbYX0Xs41T3K6hG0oW/ovqUGwbfxnkcmv1eQZyol/sBbmYq15wQlYsbq/dvC6oxoj/sPOaFLhVGeouXL/PXez93wbteu04p3DuOlQiFwxdH7y453LxwFhFLCNMHSTG2Cu/Pp3XbyBQ9XlEdqr5A95w/w0N74DrMbu4YR9OzCSMbZWQczBMkaZufbOj/76YVw5ZSzqfy3X7O0eF59ttUB94YgZn5syJ2/bNX3vPn69ce+QEzAqpQhZYWDqp5AO76UXJO3H5hJWhnnnjSuGtphUQ/ylReCkN9hm6MGIctg02twAtJQ==","69168b21477cff9ada6cb980","691bd37daff303c8f38c45fe","index1","<span style='color:red'>Fail,<span style='color:red'>Fail,<span style='color:green'>Lift,<span style='color:green'>Lift,<span style='color:red'>Fail,<span style='color:red'>Fail,<span style='color:red'>Fail,<span style='color:red'>Fail,<span style='color:green'>Lift,<span style='color:red'>Fail,<span style='color:green'>Lift,<span style='color:red'>Fail","<span style='color:red'>Fail,<span style='color:red'>Fail,<span style='color:green'>Lift,<span style='color:green'>Lift,<span style='color:green'>Lift,<span style='color:green'>Lift,<span style='color:red'>Fail,<span style='color:green'>Lift,<span style='color:green'>Lift,<span style='color:green'>Lift,<span style='color:green'>Lift,<span style='color:red'>Fail","<span style='color:red'>Fail,<span style='color:green'>Lift,<span style='color:green'>Lift,<span style='color:red'>Fail,<span style='color:green'>Lift,<span style='color:green'>Lift","0,0,1,1,0,0,0,0,1,0,1,0","0,0,1,1,1,1,0,1,1,1,1,0","0,1,1,0,1,1",10,20,20,"","","","","{""box1"":""7"",""box2"":""5"",""box3"":""46"",""box4"":""71""}","",4,"round2_outcome",3,4,2,7,5,46,71,1,1,20,NA,NA,NA,NA,NA,NA,NA,NA,NA,NA,NA,7,5,46,71,1,1,20,NA,NA,NA,NA,NA,NA,NA,NA,NA,NA,NA,"",NA,NA,NA,NA,NA,NA,NA,NA,NA,2025-11-18 02:26:15
"12098.100000023842","https://psyc-201.github.io/xiang2023/exp/index1.html?PROLIFIC_PID=REDACTED&STUDY_ID=69168b21477cff9ada6cb980&SESSION_ID=691bd37daff303c8f38c45fe","survey-html-form",29,1008300,"0.0-338.0","TcKSGcD5csyANglOWe4KcJwCyG/wLAW2HeOdiDwbYX0Xs41T3K6hG0oW/ovqUGwbfxnkcmv1eQZyol/sBbmYq15wQlYsbq/dvC6oxoj/sPOaFLhVGeouXL/PXez93wbteu04p3DuOlQiFwxdH7y453LxwFhFLCNMHSTG2Cu/Pp3XbyBQ9XlEdqr5A95w/w0N74DrMbu4YR9OzCSMbZWQczBMkaZufbOj/76YVw5ZSzqfy3X7O0eF59ttUB94YgZn5syJ2/bNX3vPn69ce+QEzAqpQhZYWDqp5AO76UXJO3H5hJWhnnnjSuGtphUQ/ylReCkN9hm6MGIctg02twAtJQ==","69168b21477cff9ada6cb980","691bd37daff303c8f38c45fe","index1","<span style='color:red'>Fail,<span style='color:red'>Fail,<span style='color:green'>Lift,<span style='color:green'>Lift,<span style='color:red'>Fail,<span style='color:red'>Fail,<span style='color:red'>Fail,<span style='color:red'>Fail,<span style='color:green'>Lift,<span style='color:red'>Fail,<span style='color:green'>Lift,<span style='color:red'>Fail","<span style='color:red'>Fail,<span style='color:red'>Fail,<span style='color:green'>Lift,<span style='color:green'>Lift,<span style='color:green'>Lift,<span style='color:green'>Lift,<span style='color:red'>Fail,<span style='color:green'>Lift,<span style='color:green'>Lift,<span style='color:green'>Lift,<span style='color:green'>Lift,<span style='color:red'>Fail","<span style='color:red'>Fail,<span style='color:green'>Lift,<span style='color:green'>Lift,<span style='color:red'>Fail,<span style='color:green'>Lift,<span style='color:green'>Lift","0,0,1,1,0,0,0,0,1,0,1,0","0,0,1,1,1,1,0,1,1,1,1,0","0,1,1,0,1,1",10,20,20,"","","","","{""box1"":""100""}","",4,"round3_ready",4,4,3,NA,NA,NA,NA,NA,NA,NA,NA,NA,NA,NA,NA,NA,NA,100,100,NA,NA,NA,NA,NA,NA,NA,NA,NA,100,100,NA,NA,NA,NA,NA,NA,NA,NA,NA,"",NA,NA,NA,NA,NA,NA,NA,NA,NA,2025-11-18 02:26:15
"34714.39999997616","https://psyc-201.github.io/xiang2023/exp/index1.html?PROLIFIC_PID=REDACTED&STUDY_ID=69168b21477cff9ada6cb980&SESSION_ID=691bd37daff303c8f38c45fe","survey-html-form",30,1043016,"0.0-339.0-0.0","TcKSGcD5csyANglOWe4KcJwCyG/wLAW2HeOdiDwbYX0Xs41T3K6hG0oW/ovqUGwbfxnkcmv1eQZyol/sBbmYq15wQlYsbq/dvC6oxoj/sPOaFLhVGeouXL/PXez93wbteu04p3DuOlQiFwxdH7y453LxwFhFLCNMHSTG2Cu/Pp3XbyBQ9XlEdqr5A95w/w0N74DrMbu4YR9OzCSMbZWQczBMkaZufbOj/76YVw5ZSzqfy3X7O0eF59ttUB94YgZn5syJ2/bNX3vPn69ce+QEzAqpQhZYWDqp5AO76UXJO3H5hJWhnnnjSuGtphUQ/ylReCkN9hm6MGIctg02twAtJQ==","69168b21477cff9ada6cb980","691bd37daff303c8f38c45fe","index1","<span style='color:red'>Fail,<span style='color:red'>Fail,<span style='color:green'>Lift,<span style='color:green'>Lift,<span style='color:red'>Fail,<span style='color:red'>Fail,<span style='color:red'>Fail,<span style='color:red'>Fail,<span style='color:green'>Lift,<span style='color:red'>Fail,<span style='color:green'>Lift,<span style='color:red'>Fail","<span style='color:red'>Fail,<span style='color:red'>Fail,<span style='color:green'>Lift,<span style='color:green'>Lift,<span style='color:green'>Lift,<span style='color:green'>Lift,<span style='color:red'>Fail,<span style='color:green'>Lift,<span style='color:green'>Lift,<span style='color:green'>Lift,<span style='color:green'>Lift,<span style='color:red'>Fail","<span style='color:red'>Fail,<span style='color:green'>Lift,<span style='color:green'>Lift,<span style='color:red'>Fail,<span style='color:green'>Lift,<span style='color:green'>Lift","0,0,1,1,0,0,0,0,1,0,1,0","0,0,1,1,1,1,0,1,1,1,1,0","0,1,1,0,1,1",10,20,20,"","","","","{""box1"":""7"",""box2"":""6"",""box3"":""46"",""box4"":""61""}","",5,"round3_lift",5,4,3,7,6,46,61,1,1,20,NA,NA,NA,NA,NA,NA,NA,NA,NA,NA,NA,NA,NA,NA,NA,NA,NA,NA,NA,NA,NA,NA,7,6,1,1,20,46,61,"",NA,NA,NA,NA,NA,NA,NA,NA,NA,2025-11-18 02:26:15
"null","https://psyc-201.github.io/xiang2023/exp/index1.html?PROLIFIC_PID=REDACTED&STUDY_ID=69168b21477cff9ada6cb980&SESSION_ID=691bd37daff303c8f38c45fe","html-keyboard-response",31,1046019,"0.0-343.0","TcKSGcD5csyANglOWe4KcJwCyG/wLAW2HeOdiDwbYX0Xs41T3K6hG0oW/ovqUGwbfxnkcmv1eQZyol/sBbmYq15wQlYsbq/dvC6oxoj/sPOaFLhVGeouXL/PXez93wbteu04p3DuOlQiFwxdH7y453LxwFhFLCNMHSTG2Cu/Pp3XbyBQ9XlEdqr5A95w/w0N74DrMbu4YR9OzCSMbZWQczBMkaZufbOj/76YVw5ZSzqfy3X7O0eF59ttUB94YgZn5syJ2/bNX3vPn69ce+QEzAqpQhZYWDqp5AO76UXJO3H5hJWhnnnjSuGtphUQ/ylReCkN9hm6MGIctg02twAtJQ==","69168b21477cff9ada6cb980","691bd37daff303c8f38c45fe","index1","<span style='color:red'>Fail,<span style='color:red'>Fail,<span style='color:green'>Lift,<span style='color:green'>Lift,<span style='color:red'>Fail,<span style='color:red'>Fail,<span style='color:red'>Fail,<span style='color:red'>Fail,<span style='color:green'>Lift,<span style='color:red'>Fail,<span style='color:green'>Lift,<span style='color:red'>Fail","<span style='color:red'>Fail,<span style='color:red'>Fail,<span style='color:green'>Lift,<span style='color:green'>Lift,<span style='color:green'>Lift,<span style='color:green'>Lift,<span style='color:red'>Fail,<span style='color:green'>Lift,<span style='color:green'>Lift,<span style='color:green'>Lift,<span style='color:green'>Lift,<span style='color:red'>Fail","<span style='color:red'>Fail,<span style='color:green'>Lift,<span style='color:green'>Lift,<span style='color:red'>Fail,<span style='color:green'>Lift,<span style='color:green'>Lift","0,0,1,1,0,0,0,0,1,0,1,0","0,0,1,1,1,1,0,1,1,1,1,0","0,1,1,0,1,1",10,20,20,"","","<p style='font-size:30px'><b> New Contest! </b></p>","null","","",5,"",NA,NA,NA,NA,NA,NA,NA,NA,NA,NA,NA,NA,NA,NA,NA,NA,NA,NA,NA,NA,NA,NA,NA,NA,NA,NA,NA,NA,NA,NA,NA,NA,NA,NA,NA,NA,NA,NA,NA,"",NA,NA,NA,NA,NA,NA,NA,NA,NA,2025-11-18 02:26:15
"15994.600000023842","https://psyc-201.github.io/xiang2023/exp/index1.html?PROLIFIC_PID=REDACTED&STUDY_ID=69168b21477cff9ada6cb980&SESSION_ID=691bd37daff303c8f38c45fe","survey-html-form",32,1062016,"0.0-344.0","TcKSGcD5csyANglOWe4KcJwCyG/wLAW2HeOdiDwbYX0Xs41T3K6hG0oW/ovqUGwbfxnkcmv1eQZyol/sBbmYq15wQlYsbq/dvC6oxoj/sPOaFLhVGeouXL/PXez93wbteu04p3DuOlQiFwxdH7y453LxwFhFLCNMHSTG2Cu/Pp3XbyBQ9XlEdqr5A95w/w0N74DrMbu4YR9OzCSMbZWQczBMkaZufbOj/76YVw5ZSzqfy3X7O0eF59ttUB94YgZn5syJ2/bNX3vPn69ce+QEzAqpQhZYWDqp5AO76UXJO3H5hJWhnnnjSuGtphUQ/ylReCkN9hm6MGIctg02twAtJQ==","69168b21477cff9ada6cb980","691bd37daff303c8f38c45fe","index1","<span style='color:red'>Fail,<span style='color:red'>Fail,<span style='color:green'>Lift,<span style='color:green'>Lift,<span style='color:red'>Fail,<span style='color:red'>Fail,<span style='color:red'>Fail,<span style='color:red'>Fail,<span style='color:green'>Lift,<span style='color:red'>Fail,<span style='color:green'>Lift,<span style='color:red'>Fail","<span style='color:red'>Fail,<span style='color:red'>Fail,<span style='color:green'>Lift,<span style='color:green'>Lift,<span style='color:green'>Lift,<span style='color:green'>Lift,<span style='color:red'>Fail,<span style='color:green'>Lift,<span style='color:green'>Lift,<span style='color:green'>Lift,<span style='color:green'>Lift,<span style='color:red'>Fail","<span style='color:red'>Fail,<span style='color:green'>Lift,<span style='color:green'>Lift,<span style='color:red'>Fail,<span style='color:green'>Lift,<span style='color:green'>Lift","0,0,1,1,0,0,0,0,1,0,1,0","0,0,1,1,1,1,0,1,1,1,1,0","0,1,1,0,1,1",10,20,20,"","","","","{""box1"":""2"",""box2"":""4""}","",5,"round1_outcome",1,5,1,2,4,NA,NA,0,0,10,2,4,NA,NA,0,0,10,NA,NA,NA,NA,NA,NA,NA,NA,NA,NA,NA,NA,NA,NA,NA,NA,NA,NA,NA,NA,NA,NA,"",NA,NA,NA,NA,NA,NA,NA,NA,NA,2025-11-18 02:26:15
"15463.399999976158","https://psyc-201.github.io/xiang2023/exp/index1.html?PROLIFIC_PID=REDACTED&STUDY_ID=69168b21477cff9ada6cb980&SESSION_ID=691bd37daff303c8f38c45fe","survey-html-form",33,1077481,"0.0-345.0","TcKSGcD5csyANglOWe4KcJwCyG/wLAW2HeOdiDwbYX0Xs41T3K6hG0oW/ovqUGwbfxnkcmv1eQZyol/sBbmYq15wQlYsbq/dvC6oxoj/sPOaFLhVGeouXL/PXez93wbteu04p3DuOlQiFwxdH7y453LxwFhFLCNMHSTG2Cu/Pp3XbyBQ9XlEdqr5A95w/w0N74DrMbu4YR9OzCSMbZWQczBMkaZufbOj/76YVw5ZSzqfy3X7O0eF59ttUB94YgZn5syJ2/bNX3vPn69ce+QEzAqpQhZYWDqp5AO76UXJO3H5hJWhnnnjSuGtphUQ/ylReCkN9hm6MGIctg02twAtJQ==","69168b21477cff9ada6cb980","691bd37daff303c8f38c45fe","index1","<span style='color:red'>Fail,<span style='color:red'>Fail,<span style='color:green'>Lift,<span style='color:green'>Lift,<span style='color:red'>Fail,<span style='color:red'>Fail,<span style='color:red'>Fail,<span style='color:red'>Fail,<span style='color:green'>Lift,<span style='color:red'>Fail,<span style='color:green'>Lift,<span style='color:red'>Fail","<span style='color:red'>Fail,<span style='color:red'>Fail,<span style='color:green'>Lift,<span style='color:green'>Lift,<span style='color:green'>Lift,<span style='color:green'>Lift,<span style='color:red'>Fail,<span style='color:green'>Lift,<span style='color:green'>Lift,<span style='color:green'>Lift,<span style='color:green'>Lift,<span style='color:red'>Fail","<span style='color:red'>Fail,<span style='color:green'>Lift,<span style='color:green'>Lift,<span style='color:red'>Fail,<span style='color:green'>Lift,<span style='color:green'>Lift","0,0,1,1,0,0,0,0,1,0,1,0","0,0,1,1,1,1,0,1,1,1,1,0","0,1,1,0,1,1",10,20,20,"","","","","{""box1"":""10"",""box2"":""31""}","",5,"round2_ready",2,5,2,NA,NA,NA,NA,NA,NA,NA,NA,NA,NA,NA,NA,NA,NA,10,31,10,31,NA,NA,NA,NA,NA,NA,NA,NA,NA,NA,NA,NA,NA,NA,NA,NA,NA,NA,"",NA,NA,NA,NA,NA,NA,NA,NA,NA,2025-11-18 02:26:15
"47248.10000002384","https://psyc-201.github.io/xiang2023/exp/index1.html?PROLIFIC_PID=REDACTED&STUDY_ID=69168b21477cff9ada6cb980&SESSION_ID=691bd37daff303c8f38c45fe","survey-html-form",34,1124730,"0.0-346.0","TcKSGcD5csyANglOWe4KcJwCyG/wLAW2HeOdiDwbYX0Xs41T3K6hG0oW/ovqUGwbfxnkcmv1eQZyol/sBbmYq15wQlYsbq/dvC6oxoj/sPOaFLhVGeouXL/PXez93wbteu04p3DuOlQiFwxdH7y453LxwFhFLCNMHSTG2Cu/Pp3XbyBQ9XlEdqr5A95w/w0N74DrMbu4YR9OzCSMbZWQczBMkaZufbOj/76YVw5ZSzqfy3X7O0eF59ttUB94YgZn5syJ2/bNX3vPn69ce+QEzAqpQhZYWDqp5AO76UXJO3H5hJWhnnnjSuGtphUQ/ylReCkN9hm6MGIctg02twAtJQ==","69168b21477cff9ada6cb980","691bd37daff303c8f38c45fe","index1","<span style='color:red'>Fail,<span style='color:red'>Fail,<span style='color:green'>Lift,<span style='color:green'>Lift,<span style='color:red'>Fail,<span style='color:red'>Fail,<span style='color:red'>Fail,<span style='color:red'>Fail,<span style='color:green'>Lift,<span style='color:red'>Fail,<span style='color:green'>Lift,<span style='color:red'>Fail","<span style='color:red'>Fail,<span style='color:red'>Fail,<span style='color:green'>Lift,<span style='color:green'>Lift,<span style='color:green'>Lift,<span style='color:green'>Lift,<span style='color:red'>Fail,<span style='color:green'>Lift,<span style='color:green'>Lift,<span style='color:green'>Lift,<span style='color:green'>Lift,<span style='color:red'>Fail","<span style='color:red'>Fail,<span style='color:green'>Lift,<span style='color:green'>Lift,<span style='color:red'>Fail,<span style='color:green'>Lift,<span style='color:green'>Lift","0,0,1,1,0,0,0,0,1,0,1,0","0,0,1,1,1,1,0,1,1,1,1,0","0,1,1,0,1,1",10,20,20,"","","","","{""box1"":""5"",""box2"":""5"",""box3"":""58"",""box4"":""57""}","",5,"round2_outcome",3,5,2,5,5,58,57,1,1,20,NA,NA,NA,NA,NA,NA,NA,NA,NA,NA,NA,5,5,58,57,1,1,20,NA,NA,NA,NA,NA,NA,NA,NA,NA,NA,NA,"",NA,NA,NA,NA,NA,NA,NA,NA,NA,2025-11-18 02:26:15
"15013.300000071526","https://psyc-201.github.io/xiang2023/exp/index1.html?PROLIFIC_PID=REDACTED&STUDY_ID=69168b21477cff9ada6cb980&SESSION_ID=691bd37daff303c8f38c45fe","survey-html-form",35,1139744,"0.0-347.0","TcKSGcD5csyANglOWe4KcJwCyG/wLAW2HeOdiDwbYX0Xs41T3K6hG0oW/ovqUGwbfxnkcmv1eQZyol/sBbmYq15wQlYsbq/dvC6oxoj/sPOaFLhVGeouXL/PXez93wbteu04p3DuOlQiFwxdH7y453LxwFhFLCNMHSTG2Cu/Pp3XbyBQ9XlEdqr5A95w/w0N74DrMbu4YR9OzCSMbZWQczBMkaZufbOj/76YVw5ZSzqfy3X7O0eF59ttUB94YgZn5syJ2/bNX3vPn69ce+QEzAqpQhZYWDqp5AO76UXJO3H5hJWhnnnjSuGtphUQ/ylReCkN9hm6MGIctg02twAtJQ==","69168b21477cff9ada6cb980","691bd37daff303c8f38c45fe","index1","<span style='color:red'>Fail,<span style='color:red'>Fail,<span style='color:green'>Lift,<span style='color:green'>Lift,<span style='color:red'>Fail,<span style='color:red'>Fail,<span style='color:red'>Fail,<span style='color:red'>Fail,<span style='color:green'>Lift,<span style='color:red'>Fail,<span style='color:green'>Lift,<span style='color:red'>Fail","<span style='color:red'>Fail,<span style='color:red'>Fail,<span style='color:green'>Lift,<span style='color:green'>Lift,<span style='color:green'>Lift,<span style='color:green'>Lift,<span style='color:red'>Fail,<span style='color:green'>Lift,<span style='color:green'>Lift,<span style='color:green'>Lift,<span style='color:green'>Lift,<span style='color:red'>Fail","<span style='color:red'>Fail,<span style='color:green'>Lift,<span style='color:green'>Lift,<span style='color:red'>Fail,<span style='color:green'>Lift,<span style='color:green'>Lift","0,0,1,1,0,0,0,0,1,0,1,0","0,0,1,1,1,1,0,1,1,1,1,0","0,1,1,0,1,1",10,20,20,"","","","","{""box1"":""100""}","",5,"round3_ready",4,5,3,NA,NA,NA,NA,NA,NA,NA,NA,NA,NA,NA,NA,NA,NA,100,100,NA,NA,NA,NA,NA,NA,NA,NA,NA,100,100,NA,NA,NA,NA,NA,NA,NA,NA,NA,"",NA,NA,NA,NA,NA,NA,NA,NA,NA,2025-11-18 02:26:15
"39201.10000002384","https://psyc-201.github.io/xiang2023/exp/index1.html?PROLIFIC_PID=REDACTED&STUDY_ID=69168b21477cff9ada6cb980&SESSION_ID=691bd37daff303c8f38c45fe","survey-html-form",36,1178947,"0.0-348.0-0.0","TcKSGcD5csyANglOWe4KcJwCyG/wLAW2HeOdiDwbYX0Xs41T3K6hG0oW/ovqUGwbfxnkcmv1eQZyol/sBbmYq15wQlYsbq/dvC6oxoj/sPOaFLhVGeouXL/PXez93wbteu04p3DuOlQiFwxdH7y453LxwFhFLCNMHSTG2Cu/Pp3XbyBQ9XlEdqr5A95w/w0N74DrMbu4YR9OzCSMbZWQczBMkaZufbOj/76YVw5ZSzqfy3X7O0eF59ttUB94YgZn5syJ2/bNX3vPn69ce+QEzAqpQhZYWDqp5AO76UXJO3H5hJWhnnnjSuGtphUQ/ylReCkN9hm6MGIctg02twAtJQ==","69168b21477cff9ada6cb980","691bd37daff303c8f38c45fe","index1","<span style='color:red'>Fail,<span style='color:red'>Fail,<span style='color:green'>Lift,<span style='color:green'>Lift,<span style='color:red'>Fail,<span style='color:red'>Fail,<span style='color:red'>Fail,<span style='color:red'>Fail,<span style='color:green'>Lift,<span style='color:red'>Fail,<span style='color:green'>Lift,<span style='color:red'>Fail","<span style='color:red'>Fail,<span style='color:red'>Fail,<span style='color:green'>Lift,<span style='color:green'>Lift,<span style='color:green'>Lift,<span style='color:green'>Lift,<span style='color:red'>Fail,<span style='color:green'>Lift,<span style='color:green'>Lift,<span style='color:green'>Lift,<span style='color:green'>Lift,<span style='color:red'>Fail","<span style='color:red'>Fail,<span style='color:green'>Lift,<span style='color:green'>Lift,<span style='color:red'>Fail,<span style='color:green'>Lift,<span style='color:green'>Lift","0,0,1,1,0,0,0,0,1,0,1,0","0,0,1,1,1,1,0,1,1,1,1,0","0,1,1,0,1,1",10,20,20,"","","","","{""box1"":""5"",""box2"":""5"",""box3"":""50"",""box4"":""50""}","",6,"round3_lift",5,5,3,5,5,50,50,1,1,20,NA,NA,NA,NA,NA,NA,NA,NA,NA,NA,NA,NA,NA,NA,NA,NA,NA,NA,NA,NA,NA,NA,5,5,1,1,20,50,50,"",NA,NA,NA,NA,NA,NA,NA,NA,NA,2025-11-18 02:26:15
"null","https://psyc-201.github.io/xiang2023/exp/index1.html?PROLIFIC_PID=REDACTED&STUDY_ID=69168b21477cff9ada6cb980&SESSION_ID=691bd37daff303c8f38c45fe","html-keyboard-response",37,1181950,"0.0-352.0","TcKSGcD5csyANglOWe4KcJwCyG/wLAW2HeOdiDwbYX0Xs41T3K6hG0oW/ovqUGwbfxnkcmv1eQZyol/sBbmYq15wQlYsbq/dvC6oxoj/sPOaFLhVGeouXL/PXez93wbteu04p3DuOlQiFwxdH7y453LxwFhFLCNMHSTG2Cu/Pp3XbyBQ9XlEdqr5A95w/w0N74DrMbu4YR9OzCSMbZWQczBMkaZufbOj/76YVw5ZSzqfy3X7O0eF59ttUB94YgZn5syJ2/bNX3vPn69ce+QEzAqpQhZYWDqp5AO76UXJO3H5hJWhnnnjSuGtphUQ/ylReCkN9hm6MGIctg02twAtJQ==","69168b21477cff9ada6cb980","691bd37daff303c8f38c45fe","index1","<span style='color:red'>Fail,<span style='color:red'>Fail,<span style='color:green'>Lift,<span style='color:green'>Lift,<span style='color:red'>Fail,<span style='color:red'>Fail,<span style='color:red'>Fail,<span style='color:red'>Fail,<span style='color:green'>Lift,<span style='color:red'>Fail,<span style='color:green'>Lift,<span style='color:red'>Fail","<span style='color:red'>Fail,<span style='color:red'>Fail,<span style='color:green'>Lift,<span style='color:green'>Lift,<span style='color:green'>Lift,<span style='color:green'>Lift,<span style='color:red'>Fail,<span style='color:green'>Lift,<span style='color:green'>Lift,<span style='color:green'>Lift,<span style='color:green'>Lift,<span style='color:red'>Fail","<span style='color:red'>Fail,<span style='color:green'>Lift,<span style='color:green'>Lift,<span style='color:red'>Fail,<span style='color:green'>Lift,<span style='color:green'>Lift","0,0,1,1,0,0,0,0,1,0,1,0","0,0,1,1,1,1,0,1,1,1,1,0","0,1,1,0,1,1",10,20,20,"","","<p style='font-size:30px'><b> New Contest! </b></p>","null","","",6,"",NA,NA,NA,NA,NA,NA,NA,NA,NA,NA,NA,NA,NA,NA,NA,NA,NA,NA,NA,NA,NA,NA,NA,NA,NA,NA,NA,NA,NA,NA,NA,NA,NA,NA,NA,NA,NA,NA,NA,"",NA,NA,NA,NA,NA,NA,NA,NA,NA,2025-11-18 02:26:15
"33209.700000047684","https://psyc-201.github.io/xiang2023/exp/index1.html?PROLIFIC_PID=REDACTED&STUDY_ID=69168b21477cff9ada6cb980&SESSION_ID=691bd37daff303c8f38c45fe","survey-html-form",38,1215161,"0.0-353.0","TcKSGcD5csyANglOWe4KcJwCyG/wLAW2HeOdiDwbYX0Xs41T3K6hG0oW/ovqUGwbfxnkcmv1eQZyol/sBbmYq15wQlYsbq/dvC6oxoj/sPOaFLhVGeouXL/PXez93wbteu04p3DuOlQiFwxdH7y453LxwFhFLCNMHSTG2Cu/Pp3XbyBQ9XlEdqr5A95w/w0N74DrMbu4YR9OzCSMbZWQczBMkaZufbOj/76YVw5ZSzqfy3X7O0eF59ttUB94YgZn5syJ2/bNX3vPn69ce+QEzAqpQhZYWDqp5AO76UXJO3H5hJWhnnnjSuGtphUQ/ylReCkN9hm6MGIctg02twAtJQ==","69168b21477cff9ada6cb980","691bd37daff303c8f38c45fe","index1","<span style='color:red'>Fail,<span style='color:red'>Fail,<span style='color:green'>Lift,<span style='color:green'>Lift,<span style='color:red'>Fail,<span style='color:red'>Fail,<span style='color:red'>Fail,<span style='color:red'>Fail,<span style='color:green'>Lift,<span style='color:red'>Fail,<span style='color:green'>Lift,<span style='color:red'>Fail","<span style='color:red'>Fail,<span style='color:red'>Fail,<span style='color:green'>Lift,<span style='color:green'>Lift,<span style='color:green'>Lift,<span style='color:green'>Lift,<span style='color:red'>Fail,<span style='color:green'>Lift,<span style='color:green'>Lift,<span style='color:green'>Lift,<span style='color:green'>Lift,<span style='color:red'>Fail","<span style='color:red'>Fail,<span style='color:green'>Lift,<span style='color:green'>Lift,<span style='color:red'>Fail,<span style='color:green'>Lift,<span style='color:green'>Lift","0,0,1,1,0,0,0,0,1,0,1,0","0,0,1,1,1,1,0,1,1,1,1,0","0,1,1,0,1,1",10,20,20,"","","","","{""box1"":""8"",""box2"":""9"",""box3"":""20"",""box4"":""13""}","",6,"round1_outcome",1,6,1,8,9,20,13,1,1,10,8,9,20,13,1,1,10,NA,NA,NA,NA,NA,NA,NA,NA,NA,NA,NA,NA,NA,NA,NA,NA,NA,NA,NA,NA,NA,NA,"",NA,NA,NA,NA,NA,NA,NA,NA,NA,2025-11-18 02:26:15
"24597.399999976158","https://psyc-201.github.io/xiang2023/exp/index1.html?PROLIFIC_PID=REDACTED&STUDY_ID=69168b21477cff9ada6cb980&SESSION_ID=691bd37daff303c8f38c45fe","survey-html-form",39,1239760,"0.0-354.0","TcKSGcD5csyANglOWe4KcJwCyG/wLAW2HeOdiDwbYX0Xs41T3K6hG0oW/ovqUGwbfxnkcmv1eQZyol/sBbmYq15wQlYsbq/dvC6oxoj/sPOaFLhVGeouXL/PXez93wbteu04p3DuOlQiFwxdH7y453LxwFhFLCNMHSTG2Cu/Pp3XbyBQ9XlEdqr5A95w/w0N74DrMbu4YR9OzCSMbZWQczBMkaZufbOj/76YVw5ZSzqfy3X7O0eF59ttUB94YgZn5syJ2/bNX3vPn69ce+QEzAqpQhZYWDqp5AO76UXJO3H5hJWhnnnjSuGtphUQ/ylReCkN9hm6MGIctg02twAtJQ==","69168b21477cff9ada6cb980","691bd37daff303c8f38c45fe","index1","<span style='color:red'>Fail,<span style='color:red'>Fail,<span style='color:green'>Lift,<span style='color:green'>Lift,<span style='color:red'>Fail,<span style='color:red'>Fail,<span style='color:red'>Fail,<span style='color:red'>Fail,<span style='color:green'>Lift,<span style='color:red'>Fail,<span style='color:green'>Lift,<span style='color:red'>Fail","<span style='color:red'>Fail,<span style='color:red'>Fail,<span style='color:green'>Lift,<span style='color:green'>Lift,<span style='color:green'>Lift,<span style='color:green'>Lift,<span style='color:red'>Fail,<span style='color:green'>Lift,<span style='color:green'>Lift,<span style='color:green'>Lift,<span style='color:green'>Lift,<span style='color:red'>Fail","<span style='color:red'>Fail,<span style='color:green'>Lift,<span style='color:green'>Lift,<span style='color:red'>Fail,<span style='color:green'>Lift,<span style='color:green'>Lift","0,0,1,1,0,0,0,0,1,0,1,0","0,0,1,1,1,1,0,1,1,1,1,0","0,1,1,0,1,1",10,20,20,"","","","","{""box1"":""100"",""box2"":""100""}","",6,"round2_ready",2,6,2,NA,NA,NA,NA,NA,NA,NA,NA,NA,NA,NA,NA,NA,NA,100,100,100,100,NA,NA,NA,NA,NA,NA,NA,NA,NA,NA,NA,NA,NA,NA,NA,NA,NA,NA,"",NA,NA,NA,NA,NA,NA,NA,NA,NA,2025-11-18 02:26:15
"35665.89999997616","https://psyc-201.github.io/xiang2023/exp/index1.html?PROLIFIC_PID=REDACTED&STUDY_ID=69168b21477cff9ada6cb980&SESSION_ID=691bd37daff303c8f38c45fe","survey-html-form",40,1275427,"0.0-355.0","TcKSGcD5csyANglOWe4KcJwCyG/wLAW2HeOdiDwbYX0Xs41T3K6hG0oW/ovqUGwbfxnkcmv1eQZyol/sBbmYq15wQlYsbq/dvC6oxoj/sPOaFLhVGeouXL/PXez93wbteu04p3DuOlQiFwxdH7y453LxwFhFLCNMHSTG2Cu/Pp3XbyBQ9XlEdqr5A95w/w0N74DrMbu4YR9OzCSMbZWQczBMkaZufbOj/76YVw5ZSzqfy3X7O0eF59ttUB94YgZn5syJ2/bNX3vPn69ce+QEzAqpQhZYWDqp5AO76UXJO3H5hJWhnnnjSuGtphUQ/ylReCkN9hm6MGIctg02twAtJQ==","69168b21477cff9ada6cb980","691bd37daff303c8f38c45fe","index1","<span style='color:red'>Fail,<span style='color:red'>Fail,<span style='color:green'>Lift,<span style='color:green'>Lift,<span style='color:red'>Fail,<span style='color:red'>Fail,<span style='color:red'>Fail,<span style='color:red'>Fail,<span style='color:green'>Lift,<span style='color:red'>Fail,<span style='color:green'>Lift,<span style='color:red'>Fail","<span style='color:red'>Fail,<span style='color:red'>Fail,<span style='color:green'>Lift,<span style='color:green'>Lift,<span style='color:green'>Lift,<span style='color:green'>Lift,<span style='color:red'>Fail,<span style='color:green'>Lift,<span style='color:green'>Lift,<span style='color:green'>Lift,<span style='color:green'>Lift,<span style='color:red'>Fail","<span style='color:red'>Fail,<span style='color:green'>Lift,<span style='color:green'>Lift,<span style='color:red'>Fail,<span style='color:green'>Lift,<span style='color:green'>Lift","0,0,1,1,0,0,0,0,1,0,1,0","0,0,1,1,1,1,0,1,1,1,1,0","0,1,1,0,1,1",10,20,20,"","","","","{""box1"":""8"",""box2"":""7"",""box3"":""20"",""box4"":""25""}","",6,"round2_outcome",3,6,2,8,7,20,25,1,1,20,NA,NA,NA,NA,NA,NA,NA,NA,NA,NA,NA,8,7,20,25,1,1,20,NA,NA,NA,NA,NA,NA,NA,NA,NA,NA,NA,"",NA,NA,NA,NA,NA,NA,NA,NA,NA,2025-11-18 02:26:15
"11829.399999976158","https://psyc-201.github.io/xiang2023/exp/index1.html?PROLIFIC_PID=REDACTED&STUDY_ID=69168b21477cff9ada6cb980&SESSION_ID=691bd37daff303c8f38c45fe","survey-html-form",41,1287258,"0.0-356.0","TcKSGcD5csyANglOWe4KcJwCyG/wLAW2HeOdiDwbYX0Xs41T3K6hG0oW/ovqUGwbfxnkcmv1eQZyol/sBbmYq15wQlYsbq/dvC6oxoj/sPOaFLhVGeouXL/PXez93wbteu04p3DuOlQiFwxdH7y453LxwFhFLCNMHSTG2Cu/Pp3XbyBQ9XlEdqr5A95w/w0N74DrMbu4YR9OzCSMbZWQczBMkaZufbOj/76YVw5ZSzqfy3X7O0eF59ttUB94YgZn5syJ2/bNX3vPn69ce+QEzAqpQhZYWDqp5AO76UXJO3H5hJWhnnnjSuGtphUQ/ylReCkN9hm6MGIctg02twAtJQ==","69168b21477cff9ada6cb980","691bd37daff303c8f38c45fe","index1","<span style='color:red'>Fail,<span style='color:red'>Fail,<span style='color:green'>Lift,<span style='color:green'>Lift,<span style='color:red'>Fail,<span style='color:red'>Fail,<span style='color:red'>Fail,<span style='color:red'>Fail,<span style='color:green'>Lift,<span style='color:red'>Fail,<span style='color:green'>Lift,<span style='color:red'>Fail","<span style='color:red'>Fail,<span style='color:red'>Fail,<span style='color:green'>Lift,<span style='color:green'>Lift,<span style='color:green'>Lift,<span style='color:green'>Lift,<span style='color:red'>Fail,<span style='color:green'>Lift,<span style='color:green'>Lift,<span style='color:green'>Lift,<span style='color:green'>Lift,<span style='color:red'>Fail","<span style='color:red'>Fail,<span style='color:green'>Lift,<span style='color:green'>Lift,<span style='color:red'>Fail,<span style='color:green'>Lift,<span style='color:green'>Lift","0,0,1,1,0,0,0,0,1,0,1,0","0,0,1,1,1,1,0,1,1,1,1,0","0,1,1,0,1,1",10,20,20,"","","","","{""box1"":""100""}","",6,"round3_ready",4,6,3,NA,NA,NA,NA,NA,NA,NA,NA,NA,NA,NA,NA,NA,NA,100,100,NA,NA,NA,NA,NA,NA,NA,NA,NA,100,100,NA,NA,NA,NA,NA,NA,NA,NA,NA,"",NA,NA,NA,NA,NA,NA,NA,NA,NA,2025-11-18 02:26:15
"34530.89999997616","https://psyc-201.github.io/xiang2023/exp/index1.html?PROLIFIC_PID=REDACTED&STUDY_ID=69168b21477cff9ada6cb980&SESSION_ID=691bd37daff303c8f38c45fe","survey-html-form",42,1321790,"0.0-357.0-0.0","TcKSGcD5csyANglOWe4KcJwCyG/wLAW2HeOdiDwbYX0Xs41T3K6hG0oW/ovqUGwbfxnkcmv1eQZyol/sBbmYq15wQlYsbq/dvC6oxoj/sPOaFLhVGeouXL/PXez93wbteu04p3DuOlQiFwxdH7y453LxwFhFLCNMHSTG2Cu/Pp3XbyBQ9XlEdqr5A95w/w0N74DrMbu4YR9OzCSMbZWQczBMkaZufbOj/76YVw5ZSzqfy3X7O0eF59ttUB94YgZn5syJ2/bNX3vPn69ce+QEzAqpQhZYWDqp5AO76UXJO3H5hJWhnnnjSuGtphUQ/ylReCkN9hm6MGIctg02twAtJQ==","69168b21477cff9ada6cb980","691bd37daff303c8f38c45fe","index1","<span style='color:red'>Fail,<span style='color:red'>Fail,<span style='color:green'>Lift,<span style='color:green'>Lift,<span style='color:red'>Fail,<span style='color:red'>Fail,<span style='color:red'>Fail,<span style='color:red'>Fail,<span style='color:green'>Lift,<span style='color:red'>Fail,<span style='color:green'>Lift,<span style='color:red'>Fail","<span style='color:red'>Fail,<span style='color:red'>Fail,<span style='color:green'>Lift,<span style='color:green'>Lift,<span style='color:green'>Lift,<span style='color:green'>Lift,<span style='color:red'>Fail,<span style='color:green'>Lift,<span style='color:green'>Lift,<span style='color:green'>Lift,<span style='color:green'>Lift,<span style='color:red'>Fail","<span style='color:red'>Fail,<span style='color:green'>Lift,<span style='color:green'>Lift,<span style='color:red'>Fail,<span style='color:green'>Lift,<span style='color:green'>Lift","0,0,1,1,0,0,0,0,1,0,1,0","0,0,1,1,1,1,0,1,1,1,1,0","0,1,1,0,1,1",10,20,20,"","","","","{""box1"":""8"",""box2"":""7"",""box3"":""55"",""box4"":""45""}","",6,"round3_lift",5,6,3,8,7,55,45,1,1,20,NA,NA,NA,NA,NA,NA,NA,NA,NA,NA,NA,NA,NA,NA,NA,NA,NA,NA,NA,NA,NA,NA,8,7,1,1,20,55,45,"",NA,NA,NA,NA,NA,NA,NA,NA,NA,2025-11-18 02:26:15
"111797.80000007153","https://psyc-201.github.io/xiang2023/exp/index1.html?PROLIFIC_PID=REDACTED&STUDY_ID=69168b21477cff9ada6cb980&SESSION_ID=691bd37daff303c8f38c45fe","survey-text",43,1433588,"0.0-361.0","TcKSGcD5csyANglOWe4KcJwCyG/wLAW2HeOdiDwbYX0Xs41T3K6hG0oW/ovqUGwbfxnkcmv1eQZyol/sBbmYq15wQlYsbq/dvC6oxoj/sPOaFLhVGeouXL/PXez93wbteu04p3DuOlQiFwxdH7y453LxwFhFLCNMHSTG2Cu/Pp3XbyBQ9XlEdqr5A95w/w0N74DrMbu4YR9OzCSMbZWQczBMkaZufbOj/76YVw5ZSzqfy3X7O0eF59ttUB94YgZn5syJ2/bNX3vPn69ce+QEzAqpQhZYWDqp5AO76UXJO3H5hJWhnnnjSuGtphUQ/ylReCkN9hm6MGIctg02twAtJQ==","69168b21477cff9ada6cb980","691bd37daff303c8f38c45fe","index1","<span style='color:red'>Fail,<span style='color:red'>Fail,<span style='color:green'>Lift,<span style='color:green'>Lift,<span style='color:red'>Fail,<span style='color:red'>Fail,<span style='color:red'>Fail,<span style='color:red'>Fail,<span style='color:green'>Lift,<span style='color:red'>Fail,<span style='color:green'>Lift,<span style='color:red'>Fail","<span style='color:red'>Fail,<span style='color:red'>Fail,<span style='color:green'>Lift,<span style='color:green'>Lift,<span style='color:green'>Lift,<span style='color:green'>Lift,<span style='color:red'>Fail,<span style='color:green'>Lift,<span style='color:green'>Lift,<span style='color:green'>Lift,<span style='color:green'>Lift,<span style='color:red'>Fail","<span style='color:red'>Fail,<span style='color:green'>Lift,<span style='color:green'>Lift,<span style='color:red'>Fail,<span style='color:green'>Lift,<span style='color:green'>Lift","0,0,1,1,0,0,0,0,1,0,1,0","0,0,1,1,1,1,0,1,1,1,1,0","0,1,1,0,1,1",10,20,20,"","","","","{""Q0"":""You are deciding on whether 2 people will lift a box separately and together.  You have to say how strong you think they are and the percentage chance they will lift the box.""}","",NA,"",NA,NA,NA,NA,NA,NA,NA,NA,NA,NA,NA,NA,NA,NA,NA,NA,NA,NA,NA,NA,NA,NA,NA,NA,NA,NA,NA,NA,NA,NA,NA,NA,NA,NA,NA,NA,NA,NA,NA,"",NA,NA,NA,NA,NA,NA,NA,NA,NA,2025-11-18 02:26:15
"7613.600000023842","https://psyc-201.github.io/xiang2023/exp/index1.html?PROLIFIC_PID=REDACTED&STUDY_ID=69168b21477cff9ada6cb980&SESSION_ID=691bd37daff303c8f38c45fe","survey-text",44,1441205,"0.0-362.0","TcKSGcD5csyANglOWe4KcJwCyG/wLAW2HeOdiDwbYX0Xs41T3K6hG0oW/ovqUGwbfxnkcmv1eQZyol/sBbmYq15wQlYsbq/dvC6oxoj/sPOaFLhVGeouXL/PXez93wbteu04p3DuOlQiFwxdH7y453LxwFhFLCNMHSTG2Cu/Pp3XbyBQ9XlEdqr5A95w/w0N74DrMbu4YR9OzCSMbZWQczBMkaZufbOj/76YVw5ZSzqfy3X7O0eF59ttUB94YgZn5syJ2/bNX3vPn69ce+QEzAqpQhZYWDqp5AO76UXJO3H5hJWhnnnjSuGtphUQ/ylReCkN9hm6MGIctg02twAtJQ==","69168b21477cff9ada6cb980","691bd37daff303c8f38c45fe","index1","<span style='color:red'>Fail,<span style='color:red'>Fail,<span style='color:green'>Lift,<span style='color:green'>Lift,<span style='color:red'>Fail,<span style='color:red'>Fail,<span style='color:red'>Fail,<span style='color:red'>Fail,<span style='color:green'>Lift,<span style='color:red'>Fail,<span style='color:green'>Lift,<span style='color:red'>Fail","<span style='color:red'>Fail,<span style='color:red'>Fail,<span style='color:green'>Lift,<span style='color:green'>Lift,<span style='color:green'>Lift,<span style='color:green'>Lift,<span style='color:red'>Fail,<span style='color:green'>Lift,<span style='color:green'>Lift,<span style='color:green'>Lift,<span style='color:green'>Lift,<span style='color:red'>Fail","<span style='color:red'>Fail,<span style='color:green'>Lift,<span style='color:green'>Lift,<span style='color:red'>Fail,<span style='color:green'>Lift,<span style='color:green'>Lift","0,0,1,1,0,0,0,0,1,0,1,0","0,0,1,1,1,1,0,1,1,1,1,0","0,1,1,0,1,1",10,20,20,"","","","","{""Q0"":""""}","",NA,"",NA,NA,NA,NA,NA,NA,NA,NA,NA,NA,NA,NA,NA,NA,NA,NA,NA,NA,NA,NA,NA,NA,NA,NA,NA,NA,NA,NA,NA,NA,NA,NA,NA,NA,NA,NA,NA,NA,NA,"[{""event"":""fullscreenenter"",""trial"":1,""time"":23516}]",1,3,NA,77,0,0.23,NA,NA,NA,2025-11-18 02:26:15
"12394.599999904633","https://psyc-201.github.io/xiang2023/exp/index1.html?PROLIFIC_PID=REDACTED&STUDY_ID=69168b21477cff9ada6cb980&SESSION_ID=691bd37daff303c8f38c45fe","html-button-response",45,1453601,"0.0-363.0","TcKSGcD5csyANglOWe4KcJwCyG/wLAW2HeOdiDwbYX0Xs41T3K6hG0oW/ovqUGwbfxnkcmv1eQZyol/sBbmYq15wQlYsbq/dvC6oxoj/sPOaFLhVGeouXL/PXez93wbteu04p3DuOlQiFwxdH7y453LxwFhFLCNMHSTG2Cu/Pp3XbyBQ9XlEdqr5A95w/w0N74DrMbu4YR9OzCSMbZWQczBMkaZufbOj/76YVw5ZSzqfy3X7O0eF59ttUB94YgZn5syJ2/bNX3vPn69ce+QEzAqpQhZYWDqp5AO76UXJO3H5hJWhnnnjSuGtphUQ/ylReCkN9hm6MGIctg02twAtJQ==","69168b21477cff9ada6cb980","691bd37daff303c8f38c45fe","index1","<span style='color:red'>Fail,<span style='color:red'>Fail,<span style='color:green'>Lift,<span style='color:green'>Lift,<span style='color:red'>Fail,<span style='color:red'>Fail,<span style='color:red'>Fail,<span style='color:red'>Fail,<span style='color:green'>Lift,<span style='color:red'>Fail,<span style='color:green'>Lift,<span style='color:red'>Fail","<span style='color:red'>Fail,<span style='color:red'>Fail,<span style='color:green'>Lift,<span style='color:green'>Lift,<span style='color:green'>Lift,<span style='color:green'>Lift,<span style='color:red'>Fail,<span style='color:green'>Lift,<span style='color:green'>Lift,<span style='color:green'>Lift,<span style='color:green'>Lift,<span style='color:red'>Fail","<span style='color:red'>Fail,<span style='color:green'>Lift,<span style='color:green'>Lift,<span style='color:red'>Fail,<span style='color:green'>Lift,<span style='color:green'>Lift","0,0,1,1,0,0,0,0,1,0,1,0","0,0,1,1,1,1,0,1,1,1,1,0","0,1,1,0,1,1",10,20,20,"","","<p> We randomly picked <b>Contest 1, Round 3</b> to calculate your bonus. </p><p> The outcome of Contestant A and B on that round is <span style='color:red'>Fail</span>. </p><p> The probability you entered was 77. </p><p><b> You won a bonus of $0.23!</b></p><p> IMPORTANT: Please click 'Next' to complete the game. </p>","","","",NA,"",NA,NA,NA,NA,NA,NA,NA,NA,NA,NA,NA,NA,NA,NA,NA,NA,NA,NA,NA,NA,NA,NA,NA,NA,NA,NA,NA,NA,NA,NA,NA,NA,NA,NA,NA,NA,NA,NA,NA,"",NA,NA,NA,NA,NA,NA,0,2,1,2025-11-18 02:26:15
