"rt","url","trial_type","trial_index","time_elapsed","internal_node_id","encryptedProlificId","studyId","sessionId","expIndex","round1_outcomes","round2_outcomes","round3_outcomes","round1_o","round2_o","round3_o","round1_reward","round2_reward","round3_reward","success","view_history","stimulus","key_press","responses","question_order","button_pressed","j","Stage","stage","contest","round","strength_a","strength_b","effort_a","effort_b","outcome_a","outcome_b","reward","r1_strength_a","r1_strength_b","r1_effort_a","r1_effort_b","r1_outcome_a","r1_outcome_b","r1_reward","probability_a","probability_b","r2_prob_a","r2_prob_b","r2_strength_a","r2_strength_b","r2_effort_a","r2_effort_b","r2_outcome_a","r2_outcome_b","r2_reward","r3_prob_a","r3_prob_b","attention_check","count","r3_strength_a","r3_strength_b","r3_outcome_a","r3_outcome_b","r3_reward","r3_effort_a","r3_effort_b","screen","pick_contest","pick_round","pick_side","trial_probability","trial_outcome","bonus","attention_sum","attention","datapipe_meta.attributes.date_modified"
"7314","https://psyc-201.github.io/xiang2023/exp/index1.html?PROLIFIC_PID=REDACTED&STUDY_ID=691f8ca61c6b4dcbb0aeb5f4&SESSION_ID=691fc7b4a78c49f4d5c350f2","external-html",0,7688,"0.0-0.0","X7fER69h008fJVTp3IUE8Ki8phoauz+QcmWdLex+mjG96M7X0y/BrVCaT6UDj30oFo9jvxrIkzwAz0A9rKlpogTwtBkVxHOnKZNLcHLAKMbOnNi3x/t4yQZ5Hzi1gt7CwKNAfdQnyjv3NDv+nU4eqKCDrMq0BYnDrgL09UYJWIxLMGsHweez+B7nSDS/sA8pKWhurEUbOH6JjvmdzU0o2W+xuwTdql3cd6eAKDcOey9jIRHJr/ZrkPX/0Bh5aRnyjhxmf94W5sgAp1OEgdRWQgPB50wZBMYK7sbgAB+VlK5/hNHaQWk4a0X6s5nqhnir2P2q1Y0kVTeS4oaW+a9/dQ==","691f8ca61c6b4dcbb0aeb5f4","691fc7b4a78c49f4d5c350f2","index1","<span style='color:red'>Fail,<span style='color:red'>Fail,<span style='color:green'>Lift,<span style='color:green'>Lift,<span style='color:red'>Fail,<span style='color:red'>Fail,<span style='color:red'>Fail,<span style='color:red'>Fail,<span style='color:green'>Lift,<span style='color:red'>Fail,<span style='color:red'>Fail,<span style='color:green'>Lift","<span style='color:red'>Fail,<span style='color:red'>Fail,<span style='color:green'>Lift,<span style='color:green'>Lift,<span style='color:green'>Lift,<span style='color:green'>Lift,<span style='color:red'>Fail,<span style='color:green'>Lift,<span style='color:green'>Lift,<span style='color:green'>Lift,<span style='color:red'>Fail,<span style='color:green'>Lift","<span style='color:red'>Fail,<span style='color:green'>Lift,<span style='color:green'>Lift,<span style='color:red'>Fail,<span style='color:green'>Lift,<span style='color:green'>Lift","0,0,1,1,0,0,0,0,1,0,0,1","0,0,1,1,1,1,0,1,1,1,0,1","0,1,1,0,1,1",10,20,20,"","","","","","",NA,NA,"",NA,NA,NA,NA,NA,NA,NA,NA,NA,NA,NA,NA,NA,NA,NA,NA,NA,NA,NA,NA,NA,NA,NA,NA,NA,NA,NA,NA,NA,NA,NA,NA,NA,NA,NA,NA,NA,NA,NA,"",NA,NA,NA,NA,NA,NA,NA,NA,2025-11-21 02:31:26
"","https://psyc-201.github.io/xiang2023/exp/index1.html?PROLIFIC_PID=REDACTED&STUDY_ID=691f8ca61c6b4dcbb0aeb5f4&SESSION_ID=691fc7b4a78c49f4d5c350f2","fullscreen",1,12381,"0.0-1.0","X7fER69h008fJVTp3IUE8Ki8phoauz+QcmWdLex+mjG96M7X0y/BrVCaT6UDj30oFo9jvxrIkzwAz0A9rKlpogTwtBkVxHOnKZNLcHLAKMbOnNi3x/t4yQZ5Hzi1gt7CwKNAfdQnyjv3NDv+nU4eqKCDrMq0BYnDrgL09UYJWIxLMGsHweez+B7nSDS/sA8pKWhurEUbOH6JjvmdzU0o2W+xuwTdql3cd6eAKDcOey9jIRHJr/ZrkPX/0Bh5aRnyjhxmf94W5sgAp1OEgdRWQgPB50wZBMYK7sbgAB+VlK5/hNHaQWk4a0X6s5nqhnir2P2q1Y0kVTeS4oaW+a9/dQ==","691f8ca61c6b4dcbb0aeb5f4","691fc7b4a78c49f4d5c350f2","index1","<span style='color:red'>Fail,<span style='color:red'>Fail,<span style='color:green'>Lift,<span style='color:green'>Lift,<span style='color:red'>Fail,<span style='color:red'>Fail,<span style='color:red'>Fail,<span style='color:red'>Fail,<span style='color:green'>Lift,<span style='color:red'>Fail,<span style='color:red'>Fail,<span style='color:green'>Lift","<span style='color:red'>Fail,<span style='color:red'>Fail,<span style='color:green'>Lift,<span style='color:green'>Lift,<span style='color:green'>Lift,<span style='color:green'>Lift,<span style='color:red'>Fail,<span style='color:green'>Lift,<span style='color:green'>Lift,<span style='color:green'>Lift,<span style='color:red'>Fail,<span style='color:green'>Lift","<span style='color:red'>Fail,<span style='color:green'>Lift,<span style='color:green'>Lift,<span style='color:red'>Fail,<span style='color:green'>Lift,<span style='color:green'>Lift","0,0,1,1,0,0,0,0,1,0,0,1","0,0,1,1,1,1,0,1,1,1,0,1","0,1,1,0,1,1",10,20,20,"true","","","","","",NA,NA,"",NA,NA,NA,NA,NA,NA,NA,NA,NA,NA,NA,NA,NA,NA,NA,NA,NA,NA,NA,NA,NA,NA,NA,NA,NA,NA,NA,NA,NA,NA,NA,NA,NA,NA,NA,NA,NA,NA,NA,"",NA,NA,NA,NA,NA,NA,NA,NA,2025-11-21 02:31:26
"413221.5","https://psyc-201.github.io/xiang2023/exp/index1.html?PROLIFIC_PID=REDACTED&STUDY_ID=691f8ca61c6b4dcbb0aeb5f4&SESSION_ID=691fc7b4a78c49f4d5c350f2","instructions",2,425606,"0.0-2.0","X7fER69h008fJVTp3IUE8Ki8phoauz+QcmWdLex+mjG96M7X0y/BrVCaT6UDj30oFo9jvxrIkzwAz0A9rKlpogTwtBkVxHOnKZNLcHLAKMbOnNi3x/t4yQZ5Hzi1gt7CwKNAfdQnyjv3NDv+nU4eqKCDrMq0BYnDrgL09UYJWIxLMGsHweez+B7nSDS/sA8pKWhurEUbOH6JjvmdzU0o2W+xuwTdql3cd6eAKDcOey9jIRHJr/ZrkPX/0Bh5aRnyjhxmf94W5sgAp1OEgdRWQgPB50wZBMYK7sbgAB+VlK5/hNHaQWk4a0X6s5nqhnir2P2q1Y0kVTeS4oaW+a9/dQ==","691f8ca61c6b4dcbb0aeb5f4","691fc7b4a78c49f4d5c350f2","index1","<span style='color:red'>Fail,<span style='color:red'>Fail,<span style='color:green'>Lift,<span style='color:green'>Lift,<span style='color:red'>Fail,<span style='color:red'>Fail,<span style='color:red'>Fail,<span style='color:red'>Fail,<span style='color:green'>Lift,<span style='color:red'>Fail,<span style='color:red'>Fail,<span style='color:green'>Lift","<span style='color:red'>Fail,<span style='color:red'>Fail,<span style='color:green'>Lift,<span style='color:green'>Lift,<span style='color:green'>Lift,<span style='color:green'>Lift,<span style='color:red'>Fail,<span style='color:green'>Lift,<span style='color:green'>Lift,<span style='color:green'>Lift,<span style='color:red'>Fail,<span style='color:green'>Lift","<span style='color:red'>Fail,<span style='color:green'>Lift,<span style='color:green'>Lift,<span style='color:red'>Fail,<span style='color:green'>Lift,<span style='color:green'>Lift","0,0,1,1,0,0,0,0,1,0,0,1","0,0,1,1,1,1,0,1,1,1,0,1","0,1,1,0,1,1",10,20,20,"","[{""page_index"":0,""viewing_time"":33380.09999999404},{""page_index"":1,""viewing_time"":143031},{""page_index"":2,""viewing_time"":111687.90000000596},{""page_index"":3,""viewing_time"":66927.79999999702},{""page_index"":4,""viewing_time"":11200.09999999404},{""page_index"":5,""viewing_time"":41103.90000000596},{""page_index"":6,""viewing_time"":5888}]","","","","",NA,NA,"",NA,NA,NA,NA,NA,NA,NA,NA,NA,NA,NA,NA,NA,NA,NA,NA,NA,NA,NA,NA,NA,NA,NA,NA,NA,NA,NA,NA,NA,NA,NA,NA,NA,NA,NA,NA,NA,NA,NA,"",NA,NA,NA,NA,NA,NA,NA,NA,2025-11-21 02:31:26
"null","https://psyc-201.github.io/xiang2023/exp/index1.html?PROLIFIC_PID=REDACTED&STUDY_ID=691f8ca61c6b4dcbb0aeb5f4&SESSION_ID=691fc7b4a78c49f4d5c350f2","html-keyboard-response",3,426619,"0.0-3.0","X7fER69h008fJVTp3IUE8Ki8phoauz+QcmWdLex+mjG96M7X0y/BrVCaT6UDj30oFo9jvxrIkzwAz0A9rKlpogTwtBkVxHOnKZNLcHLAKMbOnNi3x/t4yQZ5Hzi1gt7CwKNAfdQnyjv3NDv+nU4eqKCDrMq0BYnDrgL09UYJWIxLMGsHweez+B7nSDS/sA8pKWhurEUbOH6JjvmdzU0o2W+xuwTdql3cd6eAKDcOey9jIRHJr/ZrkPX/0Bh5aRnyjhxmf94W5sgAp1OEgdRWQgPB50wZBMYK7sbgAB+VlK5/hNHaQWk4a0X6s5nqhnir2P2q1Y0kVTeS4oaW+a9/dQ==","691f8ca61c6b4dcbb0aeb5f4","691fc7b4a78c49f4d5c350f2","index1","<span style='color:red'>Fail,<span style='color:red'>Fail,<span style='color:green'>Lift,<span style='color:green'>Lift,<span style='color:red'>Fail,<span style='color:red'>Fail,<span style='color:red'>Fail,<span style='color:red'>Fail,<span style='color:green'>Lift,<span style='color:red'>Fail,<span style='color:red'>Fail,<span style='color:green'>Lift","<span style='color:red'>Fail,<span style='color:red'>Fail,<span style='color:green'>Lift,<span style='color:green'>Lift,<span style='color:green'>Lift,<span style='color:green'>Lift,<span style='color:red'>Fail,<span style='color:green'>Lift,<span style='color:green'>Lift,<span style='color:green'>Lift,<span style='color:red'>Fail,<span style='color:green'>Lift","<span style='color:red'>Fail,<span style='color:green'>Lift,<span style='color:green'>Lift,<span style='color:red'>Fail,<span style='color:green'>Lift,<span style='color:green'>Lift","0,0,1,1,0,0,0,0,1,0,0,1","0,0,1,1,1,1,0,1,1,1,0,1","0,1,1,0,1,1",10,20,20,"",""," ","null","","",NA,NA,"",NA,NA,NA,NA,NA,NA,NA,NA,NA,NA,NA,NA,NA,NA,NA,NA,NA,NA,NA,NA,NA,NA,NA,NA,NA,NA,NA,NA,NA,NA,NA,NA,NA,NA,NA,NA,NA,NA,NA,"",NA,NA,NA,NA,NA,NA,NA,NA,2025-11-21 02:31:26
"89761.20000000298","https://psyc-201.github.io/xiang2023/exp/index1.html?PROLIFIC_PID=REDACTED&STUDY_ID=691f8ca61c6b4dcbb0aeb5f4&SESSION_ID=691fc7b4a78c49f4d5c350f2","survey-multi-choice",4,516390,"0.0-4.0","X7fER69h008fJVTp3IUE8Ki8phoauz+QcmWdLex+mjG96M7X0y/BrVCaT6UDj30oFo9jvxrIkzwAz0A9rKlpogTwtBkVxHOnKZNLcHLAKMbOnNi3x/t4yQZ5Hzi1gt7CwKNAfdQnyjv3NDv+nU4eqKCDrMq0BYnDrgL09UYJWIxLMGsHweez+B7nSDS/sA8pKWhurEUbOH6JjvmdzU0o2W+xuwTdql3cd6eAKDcOey9jIRHJr/ZrkPX/0Bh5aRnyjhxmf94W5sgAp1OEgdRWQgPB50wZBMYK7sbgAB+VlK5/hNHaQWk4a0X6s5nqhnir2P2q1Y0kVTeS4oaW+a9/dQ==","691f8ca61c6b4dcbb0aeb5f4","691fc7b4a78c49f4d5c350f2","index1","<span style='color:red'>Fail,<span style='color:red'>Fail,<span style='color:green'>Lift,<span style='color:green'>Lift,<span style='color:red'>Fail,<span style='color:red'>Fail,<span style='color:red'>Fail,<span style='color:red'>Fail,<span style='color:green'>Lift,<span style='color:red'>Fail,<span style='color:red'>Fail,<span style='color:green'>Lift","<span style='color:red'>Fail,<span style='color:red'>Fail,<span style='color:green'>Lift,<span style='color:green'>Lift,<span style='color:green'>Lift,<span style='color:green'>Lift,<span style='color:red'>Fail,<span style='color:green'>Lift,<span style='color:green'>Lift,<span style='color:green'>Lift,<span style='color:red'>Fail,<span style='color:green'>Lift","<span style='color:red'>Fail,<span style='color:green'>Lift,<span style='color:green'>Lift,<span style='color:red'>Fail,<span style='color:green'>Lift,<span style='color:green'>Lift","0,0,1,1,0,0,0,0,1,0,0,1","0,0,1,1,1,1,0,1,1,1,0,1","0,1,1,0,1,1",10,20,20,"","","","","{""Q0"":""It consists of multiple contests, each contest with three rounds."",""Q1"":""When a new round starts."",""Q2"":""The box weight changes according to the reward on the box; the higher the reward, the heavier the box."",""Q3"":""They will split the $20, that is $10 for each."",""Q4"":""How close my guesses are to the actual outcome.""}","[0,1,2,3,4]",NA,NA,"",NA,NA,NA,NA,NA,NA,NA,NA,NA,NA,NA,NA,NA,NA,NA,NA,NA,NA,NA,NA,NA,NA,NA,NA,NA,NA,NA,NA,NA,NA,NA,NA,NA,NA,NA,NA,NA,NA,NA,"",NA,NA,NA,NA,NA,NA,NA,NA,2025-11-21 02:31:26
"8163.20000000298","https://psyc-201.github.io/xiang2023/exp/index1.html?PROLIFIC_PID=REDACTED&STUDY_ID=691f8ca61c6b4dcbb0aeb5f4&SESSION_ID=691fc7b4a78c49f4d5c350f2","html-button-response",5,524566,"0.0-5.0-1.0","X7fER69h008fJVTp3IUE8Ki8phoauz+QcmWdLex+mjG96M7X0y/BrVCaT6UDj30oFo9jvxrIkzwAz0A9rKlpogTwtBkVxHOnKZNLcHLAKMbOnNi3x/t4yQZ5Hzi1gt7CwKNAfdQnyjv3NDv+nU4eqKCDrMq0BYnDrgL09UYJWIxLMGsHweez+B7nSDS/sA8pKWhurEUbOH6JjvmdzU0o2W+xuwTdql3cd6eAKDcOey9jIRHJr/ZrkPX/0Bh5aRnyjhxmf94W5sgAp1OEgdRWQgPB50wZBMYK7sbgAB+VlK5/hNHaQWk4a0X6s5nqhnir2P2q1Y0kVTeS4oaW+a9/dQ==","691f8ca61c6b4dcbb0aeb5f4","691fc7b4a78c49f4d5c350f2","index1","<span style='color:red'>Fail,<span style='color:red'>Fail,<span style='color:green'>Lift,<span style='color:green'>Lift,<span style='color:red'>Fail,<span style='color:red'>Fail,<span style='color:red'>Fail,<span style='color:red'>Fail,<span style='color:green'>Lift,<span style='color:red'>Fail,<span style='color:red'>Fail,<span style='color:green'>Lift","<span style='color:red'>Fail,<span style='color:red'>Fail,<span style='color:green'>Lift,<span style='color:green'>Lift,<span style='color:green'>Lift,<span style='color:green'>Lift,<span style='color:red'>Fail,<span style='color:green'>Lift,<span style='color:green'>Lift,<span style='color:green'>Lift,<span style='color:red'>Fail,<span style='color:green'>Lift","<span style='color:red'>Fail,<span style='color:green'>Lift,<span style='color:green'>Lift,<span style='color:red'>Fail,<span style='color:green'>Lift,<span style='color:green'>Lift","0,0,1,1,0,0,0,0,1,0,0,1","0,0,1,1,1,1,0,1,1,1,0,1","0,1,1,0,1,1",10,20,20,"","","<p> Oops! You did not pass the comprehension check. <b>Please note that you have only 1 attempt(s) left.</b> </p>","","","",1,NA,"",NA,NA,NA,NA,NA,NA,NA,NA,NA,NA,NA,NA,NA,NA,NA,NA,NA,NA,NA,NA,NA,NA,NA,NA,NA,NA,NA,NA,NA,NA,NA,NA,NA,NA,NA,NA,NA,NA,NA,"",NA,NA,NA,NA,NA,NA,NA,NA,2025-11-21 02:31:26
"93249.40000000596","https://psyc-201.github.io/xiang2023/exp/index1.html?PROLIFIC_PID=REDACTED&STUDY_ID=691f8ca61c6b4dcbb0aeb5f4&SESSION_ID=691fc7b4a78c49f4d5c350f2","instructions",6,617819,"0.0-6.0-0.0","X7fER69h008fJVTp3IUE8Ki8phoauz+QcmWdLex+mjG96M7X0y/BrVCaT6UDj30oFo9jvxrIkzwAz0A9rKlpogTwtBkVxHOnKZNLcHLAKMbOnNi3x/t4yQZ5Hzi1gt7CwKNAfdQnyjv3NDv+nU4eqKCDrMq0BYnDrgL09UYJWIxLMGsHweez+B7nSDS/sA8pKWhurEUbOH6JjvmdzU0o2W+xuwTdql3cd6eAKDcOey9jIRHJr/ZrkPX/0Bh5aRnyjhxmf94W5sgAp1OEgdRWQgPB50wZBMYK7sbgAB+VlK5/hNHaQWk4a0X6s5nqhnir2P2q1Y0kVTeS4oaW+a9/dQ==","691f8ca61c6b4dcbb0aeb5f4","691fc7b4a78c49f4d5c350f2","index1","<span style='color:red'>Fail,<span style='color:red'>Fail,<span style='color:green'>Lift,<span style='color:green'>Lift,<span style='color:red'>Fail,<span style='color:red'>Fail,<span style='color:red'>Fail,<span style='color:red'>Fail,<span style='color:green'>Lift,<span style='color:red'>Fail,<span style='color:red'>Fail,<span style='color:green'>Lift","<span style='color:red'>Fail,<span style='color:red'>Fail,<span style='color:green'>Lift,<span style='color:green'>Lift,<span style='color:green'>Lift,<span style='color:green'>Lift,<span style='color:red'>Fail,<span style='color:green'>Lift,<span style='color:green'>Lift,<span style='color:green'>Lift,<span style='color:red'>Fail,<span style='color:green'>Lift","<span style='color:red'>Fail,<span style='color:green'>Lift,<span style='color:green'>Lift,<span style='color:red'>Fail,<span style='color:green'>Lift,<span style='color:green'>Lift","0,0,1,1,0,0,0,0,1,0,0,1","0,0,1,1,1,1,0,1,1,1,0,1","0,1,1,0,1,1",10,20,20,"","[{""page_index"":0,""viewing_time"":22679.40000000596},{""page_index"":1,""viewing_time"":7191.70000000298},{""page_index"":2,""viewing_time"":10385.5},{""page_index"":3,""viewing_time"":10999.29999999702},{""page_index"":4,""viewing_time"":13951.40000000596},{""page_index"":5,""viewing_time"":10999.5},{""page_index"":6,""viewing_time"":17040.09999999404}]","","","","",NA,NA,"",NA,NA,NA,NA,NA,NA,NA,NA,NA,NA,NA,NA,NA,NA,NA,NA,NA,NA,NA,NA,NA,NA,NA,NA,NA,NA,NA,NA,NA,NA,NA,NA,NA,NA,NA,NA,NA,NA,NA,"",NA,NA,NA,NA,NA,NA,NA,NA,2025-11-21 02:31:26
"null","https://psyc-201.github.io/xiang2023/exp/index1.html?PROLIFIC_PID=REDACTED&STUDY_ID=691f8ca61c6b4dcbb0aeb5f4&SESSION_ID=691fc7b4a78c49f4d5c350f2","html-keyboard-response",7,618832,"0.0-6.0-1.0","X7fER69h008fJVTp3IUE8Ki8phoauz+QcmWdLex+mjG96M7X0y/BrVCaT6UDj30oFo9jvxrIkzwAz0A9rKlpogTwtBkVxHOnKZNLcHLAKMbOnNi3x/t4yQZ5Hzi1gt7CwKNAfdQnyjv3NDv+nU4eqKCDrMq0BYnDrgL09UYJWIxLMGsHweez+B7nSDS/sA8pKWhurEUbOH6JjvmdzU0o2W+xuwTdql3cd6eAKDcOey9jIRHJr/ZrkPX/0Bh5aRnyjhxmf94W5sgAp1OEgdRWQgPB50wZBMYK7sbgAB+VlK5/hNHaQWk4a0X6s5nqhnir2P2q1Y0kVTeS4oaW+a9/dQ==","691f8ca61c6b4dcbb0aeb5f4","691fc7b4a78c49f4d5c350f2","index1","<span style='color:red'>Fail,<span style='color:red'>Fail,<span style='color:green'>Lift,<span style='color:green'>Lift,<span style='color:red'>Fail,<span style='color:red'>Fail,<span style='color:red'>Fail,<span style='color:red'>Fail,<span style='color:green'>Lift,<span style='color:red'>Fail,<span style='color:red'>Fail,<span style='color:green'>Lift","<span style='color:red'>Fail,<span style='color:red'>Fail,<span style='color:green'>Lift,<span style='color:green'>Lift,<span style='color:green'>Lift,<span style='color:green'>Lift,<span style='color:red'>Fail,<span style='color:green'>Lift,<span style='color:green'>Lift,<span style='color:green'>Lift,<span style='color:red'>Fail,<span style='color:green'>Lift","<span style='color:red'>Fail,<span style='color:green'>Lift,<span style='color:green'>Lift,<span style='color:red'>Fail,<span style='color:green'>Lift,<span style='color:green'>Lift","0,0,1,1,0,0,0,0,1,0,0,1","0,0,1,1,1,1,0,1,1,1,0,1","0,1,1,0,1,1",10,20,20,"",""," ","null","","",NA,NA,"",NA,NA,NA,NA,NA,NA,NA,NA,NA,NA,NA,NA,NA,NA,NA,NA,NA,NA,NA,NA,NA,NA,NA,NA,NA,NA,NA,NA,NA,NA,NA,NA,NA,NA,NA,NA,NA,NA,NA,"",NA,NA,NA,NA,NA,NA,NA,NA,2025-11-21 02:31:26
"80916.19999998808","https://psyc-201.github.io/xiang2023/exp/index1.html?PROLIFIC_PID=REDACTED&STUDY_ID=691f8ca61c6b4dcbb0aeb5f4&SESSION_ID=691fc7b4a78c49f4d5c350f2","survey-multi-choice",8,699760,"0.0-7.0-0.0","X7fER69h008fJVTp3IUE8Ki8phoauz+QcmWdLex+mjG96M7X0y/BrVCaT6UDj30oFo9jvxrIkzwAz0A9rKlpogTwtBkVxHOnKZNLcHLAKMbOnNi3x/t4yQZ5Hzi1gt7CwKNAfdQnyjv3NDv+nU4eqKCDrMq0BYnDrgL09UYJWIxLMGsHweez+B7nSDS/sA8pKWhurEUbOH6JjvmdzU0o2W+xuwTdql3cd6eAKDcOey9jIRHJr/ZrkPX/0Bh5aRnyjhxmf94W5sgAp1OEgdRWQgPB50wZBMYK7sbgAB+VlK5/hNHaQWk4a0X6s5nqhnir2P2q1Y0kVTeS4oaW+a9/dQ==","691f8ca61c6b4dcbb0aeb5f4","691fc7b4a78c49f4d5c350f2","index1","<span style='color:red'>Fail,<span style='color:red'>Fail,<span style='color:green'>Lift,<span style='color:green'>Lift,<span style='color:red'>Fail,<span style='color:red'>Fail,<span style='color:red'>Fail,<span style='color:red'>Fail,<span style='color:green'>Lift,<span style='color:red'>Fail,<span style='color:red'>Fail,<span style='color:green'>Lift","<span style='color:red'>Fail,<span style='color:red'>Fail,<span style='color:green'>Lift,<span style='color:green'>Lift,<span style='color:green'>Lift,<span style='color:green'>Lift,<span style='color:red'>Fail,<span style='color:green'>Lift,<span style='color:green'>Lift,<span style='color:green'>Lift,<span style='color:red'>Fail,<span style='color:green'>Lift","<span style='color:red'>Fail,<span style='color:green'>Lift,<span style='color:green'>Lift,<span style='color:red'>Fail,<span style='color:green'>Lift,<span style='color:green'>Lift","0,0,1,1,0,0,0,0,1,0,0,1","0,0,1,1,1,1,0,1,1,1,0,1","0,1,1,0,1,1",10,20,20,"","","","","{""Q0"":""It consists of multiple contests, each contest with three rounds."",""Q1"":""When a new contest begins."",""Q2"":""The box weight always stays the same (equivalent to strength of 5)."",""Q3"":""Each will get $20."",""Q4"":""How close my guesses are to the actual outcome.""}","[0,1,2,3,4]",NA,NA,"",NA,NA,NA,NA,NA,NA,NA,NA,NA,NA,NA,NA,NA,NA,NA,NA,NA,NA,NA,NA,NA,NA,NA,NA,NA,NA,NA,NA,NA,NA,NA,NA,NA,NA,NA,NA,NA,NA,NA,"",NA,NA,NA,NA,NA,NA,NA,NA,2025-11-21 02:31:26
"9913.199999988079","https://psyc-201.github.io/xiang2023/exp/index1.html?PROLIFIC_PID=REDACTED&STUDY_ID=691f8ca61c6b4dcbb0aeb5f4&SESSION_ID=691fc7b4a78c49f4d5c350f2","instructions",9,709699,"0.0-305.0","X7fER69h008fJVTp3IUE8Ki8phoauz+QcmWdLex+mjG96M7X0y/BrVCaT6UDj30oFo9jvxrIkzwAz0A9rKlpogTwtBkVxHOnKZNLcHLAKMbOnNi3x/t4yQZ5Hzi1gt7CwKNAfdQnyjv3NDv+nU4eqKCDrMq0BYnDrgL09UYJWIxLMGsHweez+B7nSDS/sA8pKWhurEUbOH6JjvmdzU0o2W+xuwTdql3cd6eAKDcOey9jIRHJr/ZrkPX/0Bh5aRnyjhxmf94W5sgAp1OEgdRWQgPB50wZBMYK7sbgAB+VlK5/hNHaQWk4a0X6s5nqhnir2P2q1Y0kVTeS4oaW+a9/dQ==","691f8ca61c6b4dcbb0aeb5f4","691fc7b4a78c49f4d5c350f2","index1","<span style='color:red'>Fail,<span style='color:red'>Fail,<span style='color:green'>Lift,<span style='color:green'>Lift,<span style='color:red'>Fail,<span style='color:red'>Fail,<span style='color:red'>Fail,<span style='color:red'>Fail,<span style='color:green'>Lift,<span style='color:red'>Fail,<span style='color:red'>Fail,<span style='color:green'>Lift","<span style='color:red'>Fail,<span style='color:red'>Fail,<span style='color:green'>Lift,<span style='color:green'>Lift,<span style='color:green'>Lift,<span style='color:green'>Lift,<span style='color:red'>Fail,<span style='color:green'>Lift,<span style='color:green'>Lift,<span style='color:green'>Lift,<span style='color:red'>Fail,<span style='color:green'>Lift","<span style='color:red'>Fail,<span style='color:green'>Lift,<span style='color:green'>Lift,<span style='color:red'>Fail,<span style='color:green'>Lift,<span style='color:green'>Lift","0,0,1,1,0,0,0,0,1,0,0,1","0,0,1,1,1,1,0,1,1,1,0,1","0,1,1,0,1,1",10,20,20,"","[{""page_index"":0,""viewing_time"":4848.0999999940395},{""page_index"":1,""viewing_time"":5064.20000000298}]","","","","",NA,NA,"",NA,NA,NA,NA,NA,NA,NA,NA,NA,NA,NA,NA,NA,NA,NA,NA,NA,NA,NA,NA,NA,NA,NA,NA,NA,NA,NA,NA,NA,NA,NA,NA,NA,NA,NA,NA,NA,NA,NA,"",NA,NA,NA,NA,NA,NA,NA,NA,2025-11-21 02:31:26
"null","https://psyc-201.github.io/xiang2023/exp/index1.html?PROLIFIC_PID=REDACTED&STUDY_ID=691f8ca61c6b4dcbb0aeb5f4&SESSION_ID=691fc7b4a78c49f4d5c350f2","html-keyboard-response",10,710707,"0.0-306.0","X7fER69h008fJVTp3IUE8Ki8phoauz+QcmWdLex+mjG96M7X0y/BrVCaT6UDj30oFo9jvxrIkzwAz0A9rKlpogTwtBkVxHOnKZNLcHLAKMbOnNi3x/t4yQZ5Hzi1gt7CwKNAfdQnyjv3NDv+nU4eqKCDrMq0BYnDrgL09UYJWIxLMGsHweez+B7nSDS/sA8pKWhurEUbOH6JjvmdzU0o2W+xuwTdql3cd6eAKDcOey9jIRHJr/ZrkPX/0Bh5aRnyjhxmf94W5sgAp1OEgdRWQgPB50wZBMYK7sbgAB+VlK5/hNHaQWk4a0X6s5nqhnir2P2q1Y0kVTeS4oaW+a9/dQ==","691f8ca61c6b4dcbb0aeb5f4","691fc7b4a78c49f4d5c350f2","index1","<span style='color:red'>Fail,<span style='color:red'>Fail,<span style='color:green'>Lift,<span style='color:green'>Lift,<span style='color:red'>Fail,<span style='color:red'>Fail,<span style='color:red'>Fail,<span style='color:red'>Fail,<span style='color:green'>Lift,<span style='color:red'>Fail,<span style='color:red'>Fail,<span style='color:green'>Lift","<span style='color:red'>Fail,<span style='color:red'>Fail,<span style='color:green'>Lift,<span style='color:green'>Lift,<span style='color:green'>Lift,<span style='color:green'>Lift,<span style='color:red'>Fail,<span style='color:green'>Lift,<span style='color:green'>Lift,<span style='color:green'>Lift,<span style='color:red'>Fail,<span style='color:green'>Lift","<span style='color:red'>Fail,<span style='color:green'>Lift,<span style='color:green'>Lift,<span style='color:red'>Fail,<span style='color:green'>Lift,<span style='color:green'>Lift","0,0,1,1,0,0,0,0,1,0,0,1","0,0,1,1,1,1,0,1,1,1,0,1","0,1,1,0,1,1",10,20,20,"",""," ","null","","",NA,1,"",NA,NA,NA,NA,NA,NA,NA,NA,NA,NA,NA,NA,NA,NA,NA,NA,NA,NA,NA,NA,NA,NA,NA,NA,NA,NA,NA,NA,NA,NA,NA,NA,NA,NA,NA,NA,NA,NA,NA,"",NA,NA,NA,NA,NA,NA,NA,NA,2025-11-21 02:31:26
"null","https://psyc-201.github.io/xiang2023/exp/index1.html?PROLIFIC_PID=REDACTED&STUDY_ID=691f8ca61c6b4dcbb0aeb5f4&SESSION_ID=691fc7b4a78c49f4d5c350f2","html-keyboard-response",11,713720,"0.0-307.0","X7fER69h008fJVTp3IUE8Ki8phoauz+QcmWdLex+mjG96M7X0y/BrVCaT6UDj30oFo9jvxrIkzwAz0A9rKlpogTwtBkVxHOnKZNLcHLAKMbOnNi3x/t4yQZ5Hzi1gt7CwKNAfdQnyjv3NDv+nU4eqKCDrMq0BYnDrgL09UYJWIxLMGsHweez+B7nSDS/sA8pKWhurEUbOH6JjvmdzU0o2W+xuwTdql3cd6eAKDcOey9jIRHJr/ZrkPX/0Bh5aRnyjhxmf94W5sgAp1OEgdRWQgPB50wZBMYK7sbgAB+VlK5/hNHaQWk4a0X6s5nqhnir2P2q1Y0kVTeS4oaW+a9/dQ==","691f8ca61c6b4dcbb0aeb5f4","691fc7b4a78c49f4d5c350f2","index1","<span style='color:red'>Fail,<span style='color:red'>Fail,<span style='color:green'>Lift,<span style='color:green'>Lift,<span style='color:red'>Fail,<span style='color:red'>Fail,<span style='color:red'>Fail,<span style='color:red'>Fail,<span style='color:green'>Lift,<span style='color:red'>Fail,<span style='color:red'>Fail,<span style='color:green'>Lift","<span style='color:red'>Fail,<span style='color:red'>Fail,<span style='color:green'>Lift,<span style='color:green'>Lift,<span style='color:green'>Lift,<span style='color:green'>Lift,<span style='color:red'>Fail,<span style='color:green'>Lift,<span style='color:green'>Lift,<span style='color:green'>Lift,<span style='color:red'>Fail,<span style='color:green'>Lift","<span style='color:red'>Fail,<span style='color:green'>Lift,<span style='color:green'>Lift,<span style='color:red'>Fail,<span style='color:green'>Lift,<span style='color:green'>Lift","0,0,1,1,0,0,0,0,1,0,0,1","0,0,1,1,1,1,0,1,1,1,0,1","0,1,1,0,1,1",10,20,20,"","","<p style='font-size:30px'><b> New Contest! </b></p>","null","","",NA,1,"",NA,NA,NA,NA,NA,NA,NA,NA,NA,NA,NA,NA,NA,NA,NA,NA,NA,NA,NA,NA,NA,NA,NA,NA,NA,NA,NA,NA,NA,NA,NA,NA,NA,NA,NA,NA,NA,NA,NA,"",NA,NA,NA,NA,NA,NA,NA,NA,2025-11-21 02:31:26
"21954.40000000596","https://psyc-201.github.io/xiang2023/exp/index1.html?PROLIFIC_PID=REDACTED&STUDY_ID=691f8ca61c6b4dcbb0aeb5f4&SESSION_ID=691fc7b4a78c49f4d5c350f2","survey-html-form",12,735686,"0.0-308.0","X7fER69h008fJVTp3IUE8Ki8phoauz+QcmWdLex+mjG96M7X0y/BrVCaT6UDj30oFo9jvxrIkzwAz0A9rKlpogTwtBkVxHOnKZNLcHLAKMbOnNi3x/t4yQZ5Hzi1gt7CwKNAfdQnyjv3NDv+nU4eqKCDrMq0BYnDrgL09UYJWIxLMGsHweez+B7nSDS/sA8pKWhurEUbOH6JjvmdzU0o2W+xuwTdql3cd6eAKDcOey9jIRHJr/ZrkPX/0Bh5aRnyjhxmf94W5sgAp1OEgdRWQgPB50wZBMYK7sbgAB+VlK5/hNHaQWk4a0X6s5nqhnir2P2q1Y0kVTeS4oaW+a9/dQ==","691f8ca61c6b4dcbb0aeb5f4","691fc7b4a78c49f4d5c350f2","index1","<span style='color:red'>Fail,<span style='color:red'>Fail,<span style='color:green'>Lift,<span style='color:green'>Lift,<span style='color:red'>Fail,<span style='color:red'>Fail,<span style='color:red'>Fail,<span style='color:red'>Fail,<span style='color:green'>Lift,<span style='color:red'>Fail,<span style='color:red'>Fail,<span style='color:green'>Lift","<span style='color:red'>Fail,<span style='color:red'>Fail,<span style='color:green'>Lift,<span style='color:green'>Lift,<span style='color:green'>Lift,<span style='color:green'>Lift,<span style='color:red'>Fail,<span style='color:green'>Lift,<span style='color:green'>Lift,<span style='color:green'>Lift,<span style='color:red'>Fail,<span style='color:green'>Lift","<span style='color:red'>Fail,<span style='color:green'>Lift,<span style='color:green'>Lift,<span style='color:red'>Fail,<span style='color:green'>Lift,<span style='color:green'>Lift","0,0,1,1,0,0,0,0,1,0,0,1","0,0,1,1,1,1,0,1,1,1,0,1","0,1,1,0,1,1",10,20,20,"","","","","{""box1"":""5"",""box2"":""5""}","",NA,1,"round1_outcome",1,1,1,5,5,NA,NA,0,0,10,5,5,NA,NA,0,0,10,NA,NA,NA,NA,NA,NA,NA,NA,NA,NA,NA,NA,NA,NA,NA,NA,NA,NA,NA,NA,NA,NA,"",NA,NA,NA,NA,NA,NA,NA,NA,2025-11-21 02:31:26
"34541.39999999106","https://psyc-201.github.io/xiang2023/exp/index1.html?PROLIFIC_PID=REDACTED&STUDY_ID=691f8ca61c6b4dcbb0aeb5f4&SESSION_ID=691fc7b4a78c49f4d5c350f2","survey-html-form",13,770236,"0.0-309.0","X7fER69h008fJVTp3IUE8Ki8phoauz+QcmWdLex+mjG96M7X0y/BrVCaT6UDj30oFo9jvxrIkzwAz0A9rKlpogTwtBkVxHOnKZNLcHLAKMbOnNi3x/t4yQZ5Hzi1gt7CwKNAfdQnyjv3NDv+nU4eqKCDrMq0BYnDrgL09UYJWIxLMGsHweez+B7nSDS/sA8pKWhurEUbOH6JjvmdzU0o2W+xuwTdql3cd6eAKDcOey9jIRHJr/ZrkPX/0Bh5aRnyjhxmf94W5sgAp1OEgdRWQgPB50wZBMYK7sbgAB+VlK5/hNHaQWk4a0X6s5nqhnir2P2q1Y0kVTeS4oaW+a9/dQ==","691f8ca61c6b4dcbb0aeb5f4","691fc7b4a78c49f4d5c350f2","index1","<span style='color:red'>Fail,<span style='color:red'>Fail,<span style='color:green'>Lift,<span style='color:green'>Lift,<span style='color:red'>Fail,<span style='color:red'>Fail,<span style='color:red'>Fail,<span style='color:red'>Fail,<span style='color:green'>Lift,<span style='color:red'>Fail,<span style='color:red'>Fail,<span style='color:green'>Lift","<span style='color:red'>Fail,<span style='color:red'>Fail,<span style='color:green'>Lift,<span style='color:green'>Lift,<span style='color:green'>Lift,<span style='color:green'>Lift,<span style='color:red'>Fail,<span style='color:green'>Lift,<span style='color:green'>Lift,<span style='color:green'>Lift,<span style='color:red'>Fail,<span style='color:green'>Lift","<span style='color:red'>Fail,<span style='color:green'>Lift,<span style='color:green'>Lift,<span style='color:red'>Fail,<span style='color:green'>Lift,<span style='color:green'>Lift","0,0,1,1,0,0,0,0,1,0,0,1","0,0,1,1,1,1,0,1,1,1,0,1","0,1,1,0,1,1",10,20,20,"","","","","{""box1"":""60"",""box2"":""60""}","",NA,1,"round2_ready",2,1,2,NA,NA,NA,NA,NA,NA,NA,NA,NA,NA,NA,NA,NA,NA,60,60,60,60,NA,NA,NA,NA,NA,NA,NA,NA,NA,NA,NA,NA,NA,NA,NA,NA,NA,NA,"",NA,NA,NA,NA,NA,NA,NA,NA,2025-11-21 02:31:26
"27543.59999999404","https://psyc-201.github.io/xiang2023/exp/index1.html?PROLIFIC_PID=REDACTED&STUDY_ID=691f8ca61c6b4dcbb0aeb5f4&SESSION_ID=691fc7b4a78c49f4d5c350f2","survey-html-form",14,797788,"0.0-310.0","X7fER69h008fJVTp3IUE8Ki8phoauz+QcmWdLex+mjG96M7X0y/BrVCaT6UDj30oFo9jvxrIkzwAz0A9rKlpogTwtBkVxHOnKZNLcHLAKMbOnNi3x/t4yQZ5Hzi1gt7CwKNAfdQnyjv3NDv+nU4eqKCDrMq0BYnDrgL09UYJWIxLMGsHweez+B7nSDS/sA8pKWhurEUbOH6JjvmdzU0o2W+xuwTdql3cd6eAKDcOey9jIRHJr/ZrkPX/0Bh5aRnyjhxmf94W5sgAp1OEgdRWQgPB50wZBMYK7sbgAB+VlK5/hNHaQWk4a0X6s5nqhnir2P2q1Y0kVTeS4oaW+a9/dQ==","691f8ca61c6b4dcbb0aeb5f4","691fc7b4a78c49f4d5c350f2","index1","<span style='color:red'>Fail,<span style='color:red'>Fail,<span style='color:green'>Lift,<span style='color:green'>Lift,<span style='color:red'>Fail,<span style='color:red'>Fail,<span style='color:red'>Fail,<span style='color:red'>Fail,<span style='color:green'>Lift,<span style='color:red'>Fail,<span style='color:red'>Fail,<span style='color:green'>Lift","<span style='color:red'>Fail,<span style='color:red'>Fail,<span style='color:green'>Lift,<span style='color:green'>Lift,<span style='color:green'>Lift,<span style='color:green'>Lift,<span style='color:red'>Fail,<span style='color:green'>Lift,<span style='color:green'>Lift,<span style='color:green'>Lift,<span style='color:red'>Fail,<span style='color:green'>Lift","<span style='color:red'>Fail,<span style='color:green'>Lift,<span style='color:green'>Lift,<span style='color:red'>Fail,<span style='color:green'>Lift,<span style='color:green'>Lift","0,0,1,1,0,0,0,0,1,0,0,1","0,0,1,1,1,1,0,1,1,1,0,1","0,1,1,0,1,1",10,20,20,"","","","","{""box1"":""4"",""box2"":""4""}","",NA,1,"round2_outcome",3,1,2,4,4,NA,NA,0,0,20,NA,NA,NA,NA,NA,NA,NA,NA,NA,NA,NA,4,4,NA,NA,0,0,20,NA,NA,NA,NA,NA,NA,NA,NA,NA,NA,NA,"",NA,NA,NA,NA,NA,NA,NA,NA,2025-11-21 02:31:26
"34118.20000000298","https://psyc-201.github.io/xiang2023/exp/index1.html?PROLIFIC_PID=REDACTED&STUDY_ID=691f8ca61c6b4dcbb0aeb5f4&SESSION_ID=691fc7b4a78c49f4d5c350f2","survey-html-form",15,831916,"0.0-311.0","X7fER69h008fJVTp3IUE8Ki8phoauz+QcmWdLex+mjG96M7X0y/BrVCaT6UDj30oFo9jvxrIkzwAz0A9rKlpogTwtBkVxHOnKZNLcHLAKMbOnNi3x/t4yQZ5Hzi1gt7CwKNAfdQnyjv3NDv+nU4eqKCDrMq0BYnDrgL09UYJWIxLMGsHweez+B7nSDS/sA8pKWhurEUbOH6JjvmdzU0o2W+xuwTdql3cd6eAKDcOey9jIRHJr/ZrkPX/0Bh5aRnyjhxmf94W5sgAp1OEgdRWQgPB50wZBMYK7sbgAB+VlK5/hNHaQWk4a0X6s5nqhnir2P2q1Y0kVTeS4oaW+a9/dQ==","691f8ca61c6b4dcbb0aeb5f4","691fc7b4a78c49f4d5c350f2","index1","<span style='color:red'>Fail,<span style='color:red'>Fail,<span style='color:green'>Lift,<span style='color:green'>Lift,<span style='color:red'>Fail,<span style='color:red'>Fail,<span style='color:red'>Fail,<span style='color:red'>Fail,<span style='color:green'>Lift,<span style='color:red'>Fail,<span style='color:red'>Fail,<span style='color:green'>Lift","<span style='color:red'>Fail,<span style='color:red'>Fail,<span style='color:green'>Lift,<span style='color:green'>Lift,<span style='color:green'>Lift,<span style='color:green'>Lift,<span style='color:red'>Fail,<span style='color:green'>Lift,<span style='color:green'>Lift,<span style='color:green'>Lift,<span style='color:red'>Fail,<span style='color:green'>Lift","<span style='color:red'>Fail,<span style='color:green'>Lift,<span style='color:green'>Lift,<span style='color:red'>Fail,<span style='color:green'>Lift,<span style='color:green'>Lift","0,0,1,1,0,0,0,0,1,0,0,1","0,0,1,1,1,1,0,1,1,1,0,1","0,1,1,0,1,1",10,20,20,"","","","","{""box1"":""80""}","",NA,1,"round3_ready",4,1,3,NA,NA,NA,NA,NA,NA,NA,NA,NA,NA,NA,NA,NA,NA,80,80,NA,NA,NA,NA,NA,NA,NA,NA,NA,80,80,NA,NA,NA,NA,NA,NA,NA,NA,NA,"",NA,NA,NA,NA,NA,NA,NA,NA,2025-11-21 02:31:26
"47982.59999999404","https://psyc-201.github.io/xiang2023/exp/index1.html?PROLIFIC_PID=REDACTED&STUDY_ID=691f8ca61c6b4dcbb0aeb5f4&SESSION_ID=691fc7b4a78c49f4d5c350f2","survey-html-form",16,879908,"0.0-313.0-0.0","X7fER69h008fJVTp3IUE8Ki8phoauz+QcmWdLex+mjG96M7X0y/BrVCaT6UDj30oFo9jvxrIkzwAz0A9rKlpogTwtBkVxHOnKZNLcHLAKMbOnNi3x/t4yQZ5Hzi1gt7CwKNAfdQnyjv3NDv+nU4eqKCDrMq0BYnDrgL09UYJWIxLMGsHweez+B7nSDS/sA8pKWhurEUbOH6JjvmdzU0o2W+xuwTdql3cd6eAKDcOey9jIRHJr/ZrkPX/0Bh5aRnyjhxmf94W5sgAp1OEgdRWQgPB50wZBMYK7sbgAB+VlK5/hNHaQWk4a0X6s5nqhnir2P2q1Y0kVTeS4oaW+a9/dQ==","691f8ca61c6b4dcbb0aeb5f4","691fc7b4a78c49f4d5c350f2","index1","<span style='color:red'>Fail,<span style='color:red'>Fail,<span style='color:green'>Lift,<span style='color:green'>Lift,<span style='color:red'>Fail,<span style='color:red'>Fail,<span style='color:red'>Fail,<span style='color:red'>Fail,<span style='color:green'>Lift,<span style='color:red'>Fail,<span style='color:red'>Fail,<span style='color:green'>Lift","<span style='color:red'>Fail,<span style='color:red'>Fail,<span style='color:green'>Lift,<span style='color:green'>Lift,<span style='color:green'>Lift,<span style='color:green'>Lift,<span style='color:red'>Fail,<span style='color:green'>Lift,<span style='color:green'>Lift,<span style='color:green'>Lift,<span style='color:red'>Fail,<span style='color:green'>Lift","<span style='color:red'>Fail,<span style='color:green'>Lift,<span style='color:green'>Lift,<span style='color:red'>Fail,<span style='color:green'>Lift,<span style='color:green'>Lift","0,0,1,1,0,0,0,0,1,0,0,1","0,0,1,1,1,1,0,1,1,1,0,1","0,1,1,0,1,1",10,20,20,"","","","","{""box1"":""4"",""box2"":""4"",""box3"":""999"",""box4"":""999""}","",NA,2,"round3_fail",5,1,3,4,4,NA,NA,0,0,20,NA,NA,NA,NA,NA,NA,NA,NA,NA,NA,NA,NA,NA,NA,NA,NA,NA,NA,NA,NA,1,1,4,4,0,0,20,NA,NA,"",NA,NA,NA,NA,NA,NA,NA,NA,2025-11-21 02:31:26
"null","https://psyc-201.github.io/xiang2023/exp/index1.html?PROLIFIC_PID=REDACTED&STUDY_ID=691f8ca61c6b4dcbb0aeb5f4&SESSION_ID=691fc7b4a78c49f4d5c350f2","html-keyboard-response",17,882917,"0.0-316.0","X7fER69h008fJVTp3IUE8Ki8phoauz+QcmWdLex+mjG96M7X0y/BrVCaT6UDj30oFo9jvxrIkzwAz0A9rKlpogTwtBkVxHOnKZNLcHLAKMbOnNi3x/t4yQZ5Hzi1gt7CwKNAfdQnyjv3NDv+nU4eqKCDrMq0BYnDrgL09UYJWIxLMGsHweez+B7nSDS/sA8pKWhurEUbOH6JjvmdzU0o2W+xuwTdql3cd6eAKDcOey9jIRHJr/ZrkPX/0Bh5aRnyjhxmf94W5sgAp1OEgdRWQgPB50wZBMYK7sbgAB+VlK5/hNHaQWk4a0X6s5nqhnir2P2q1Y0kVTeS4oaW+a9/dQ==","691f8ca61c6b4dcbb0aeb5f4","691fc7b4a78c49f4d5c350f2","index1","<span style='color:red'>Fail,<span style='color:red'>Fail,<span style='color:green'>Lift,<span style='color:green'>Lift,<span style='color:red'>Fail,<span style='color:red'>Fail,<span style='color:red'>Fail,<span style='color:red'>Fail,<span style='color:green'>Lift,<span style='color:red'>Fail,<span style='color:red'>Fail,<span style='color:green'>Lift","<span style='color:red'>Fail,<span style='color:red'>Fail,<span style='color:green'>Lift,<span style='color:green'>Lift,<span style='color:green'>Lift,<span style='color:green'>Lift,<span style='color:red'>Fail,<span style='color:green'>Lift,<span style='color:green'>Lift,<span style='color:green'>Lift,<span style='color:red'>Fail,<span style='color:green'>Lift","<span style='color:red'>Fail,<span style='color:green'>Lift,<span style='color:green'>Lift,<span style='color:red'>Fail,<span style='color:green'>Lift,<span style='color:green'>Lift","0,0,1,1,0,0,0,0,1,0,0,1","0,0,1,1,1,1,0,1,1,1,0,1","0,1,1,0,1,1",10,20,20,"","","<p style='font-size:30px'><b> New Contest! </b></p>","null","","",NA,2,"",NA,NA,NA,NA,NA,NA,NA,NA,NA,NA,NA,NA,NA,NA,NA,NA,NA,NA,NA,NA,NA,NA,NA,NA,NA,NA,NA,NA,NA,NA,NA,NA,NA,NA,NA,NA,NA,NA,NA,"",NA,NA,NA,NA,NA,NA,NA,NA,2025-11-21 02:31:26
"23455.5","https://psyc-201.github.io/xiang2023/exp/index1.html?PROLIFIC_PID=REDACTED&STUDY_ID=691f8ca61c6b4dcbb0aeb5f4&SESSION_ID=691fc7b4a78c49f4d5c350f2","survey-html-form",18,906381,"0.0-317.0","X7fER69h008fJVTp3IUE8Ki8phoauz+QcmWdLex+mjG96M7X0y/BrVCaT6UDj30oFo9jvxrIkzwAz0A9rKlpogTwtBkVxHOnKZNLcHLAKMbOnNi3x/t4yQZ5Hzi1gt7CwKNAfdQnyjv3NDv+nU4eqKCDrMq0BYnDrgL09UYJWIxLMGsHweez+B7nSDS/sA8pKWhurEUbOH6JjvmdzU0o2W+xuwTdql3cd6eAKDcOey9jIRHJr/ZrkPX/0Bh5aRnyjhxmf94W5sgAp1OEgdRWQgPB50wZBMYK7sbgAB+VlK5/hNHaQWk4a0X6s5nqhnir2P2q1Y0kVTeS4oaW+a9/dQ==","691f8ca61c6b4dcbb0aeb5f4","691fc7b4a78c49f4d5c350f2","index1","<span style='color:red'>Fail,<span style='color:red'>Fail,<span style='color:green'>Lift,<span style='color:green'>Lift,<span style='color:red'>Fail,<span style='color:red'>Fail,<span style='color:red'>Fail,<span style='color:red'>Fail,<span style='color:green'>Lift,<span style='color:red'>Fail,<span style='color:red'>Fail,<span style='color:green'>Lift","<span style='color:red'>Fail,<span style='color:red'>Fail,<span style='color:green'>Lift,<span style='color:green'>Lift,<span style='color:green'>Lift,<span style='color:green'>Lift,<span style='color:red'>Fail,<span style='color:green'>Lift,<span style='color:green'>Lift,<span style='color:green'>Lift,<span style='color:red'>Fail,<span style='color:green'>Lift","<span style='color:red'>Fail,<span style='color:green'>Lift,<span style='color:green'>Lift,<span style='color:red'>Fail,<span style='color:green'>Lift,<span style='color:green'>Lift","0,0,1,1,0,0,0,0,1,0,0,1","0,0,1,1,1,1,0,1,1,1,0,1","0,1,1,0,1,1",10,20,20,"","","","","{""box1"":""5"",""box2"":""5""}","",NA,2,"round1_outcome",1,2,1,5,5,NA,NA,0,0,10,5,5,NA,NA,0,0,10,NA,NA,NA,NA,NA,NA,NA,NA,NA,NA,NA,NA,NA,NA,NA,NA,NA,NA,NA,NA,NA,NA,"",NA,NA,NA,NA,NA,NA,NA,NA,2025-11-21 02:31:26
"22855.5","https://psyc-201.github.io/xiang2023/exp/index1.html?PROLIFIC_PID=REDACTED&STUDY_ID=691f8ca61c6b4dcbb0aeb5f4&SESSION_ID=691fc7b4a78c49f4d5c350f2","survey-html-form",19,929245,"0.0-318.0","X7fER69h008fJVTp3IUE8Ki8phoauz+QcmWdLex+mjG96M7X0y/BrVCaT6UDj30oFo9jvxrIkzwAz0A9rKlpogTwtBkVxHOnKZNLcHLAKMbOnNi3x/t4yQZ5Hzi1gt7CwKNAfdQnyjv3NDv+nU4eqKCDrMq0BYnDrgL09UYJWIxLMGsHweez+B7nSDS/sA8pKWhurEUbOH6JjvmdzU0o2W+xuwTdql3cd6eAKDcOey9jIRHJr/ZrkPX/0Bh5aRnyjhxmf94W5sgAp1OEgdRWQgPB50wZBMYK7sbgAB+VlK5/hNHaQWk4a0X6s5nqhnir2P2q1Y0kVTeS4oaW+a9/dQ==","691f8ca61c6b4dcbb0aeb5f4","691fc7b4a78c49f4d5c350f2","index1","<span style='color:red'>Fail,<span style='color:red'>Fail,<span style='color:green'>Lift,<span style='color:green'>Lift,<span style='color:red'>Fail,<span style='color:red'>Fail,<span style='color:red'>Fail,<span style='color:red'>Fail,<span style='color:green'>Lift,<span style='color:red'>Fail,<span style='color:red'>Fail,<span style='color:green'>Lift","<span style='color:red'>Fail,<span style='color:red'>Fail,<span style='color:green'>Lift,<span style='color:green'>Lift,<span style='color:green'>Lift,<span style='color:green'>Lift,<span style='color:red'>Fail,<span style='color:green'>Lift,<span style='color:green'>Lift,<span style='color:green'>Lift,<span style='color:red'>Fail,<span style='color:green'>Lift","<span style='color:red'>Fail,<span style='color:green'>Lift,<span style='color:green'>Lift,<span style='color:red'>Fail,<span style='color:green'>Lift,<span style='color:green'>Lift","0,0,1,1,0,0,0,0,1,0,0,1","0,0,1,1,1,1,0,1,1,1,0,1","0,1,1,0,1,1",10,20,20,"","","","","{""box1"":""75"",""box2"":""75""}","",NA,2,"round2_ready",2,2,2,NA,NA,NA,NA,NA,NA,NA,NA,NA,NA,NA,NA,NA,NA,75,75,75,75,NA,NA,NA,NA,NA,NA,NA,NA,NA,NA,NA,NA,NA,NA,NA,NA,NA,NA,"",NA,NA,NA,NA,NA,NA,NA,NA,2025-11-21 02:31:26
"29870.30000001192","https://psyc-201.github.io/xiang2023/exp/index1.html?PROLIFIC_PID=REDACTED&STUDY_ID=691f8ca61c6b4dcbb0aeb5f4&SESSION_ID=691fc7b4a78c49f4d5c350f2","survey-html-form",20,959125,"0.0-319.0","X7fER69h008fJVTp3IUE8Ki8phoauz+QcmWdLex+mjG96M7X0y/BrVCaT6UDj30oFo9jvxrIkzwAz0A9rKlpogTwtBkVxHOnKZNLcHLAKMbOnNi3x/t4yQZ5Hzi1gt7CwKNAfdQnyjv3NDv+nU4eqKCDrMq0BYnDrgL09UYJWIxLMGsHweez+B7nSDS/sA8pKWhurEUbOH6JjvmdzU0o2W+xuwTdql3cd6eAKDcOey9jIRHJr/ZrkPX/0Bh5aRnyjhxmf94W5sgAp1OEgdRWQgPB50wZBMYK7sbgAB+VlK5/hNHaQWk4a0X6s5nqhnir2P2q1Y0kVTeS4oaW+a9/dQ==","691f8ca61c6b4dcbb0aeb5f4","691fc7b4a78c49f4d5c350f2","index1","<span style='color:red'>Fail,<span style='color:red'>Fail,<span style='color:green'>Lift,<span style='color:green'>Lift,<span style='color:red'>Fail,<span style='color:red'>Fail,<span style='color:red'>Fail,<span style='color:red'>Fail,<span style='color:green'>Lift,<span style='color:red'>Fail,<span style='color:red'>Fail,<span style='color:green'>Lift","<span style='color:red'>Fail,<span style='color:red'>Fail,<span style='color:green'>Lift,<span style='color:green'>Lift,<span style='color:green'>Lift,<span style='color:green'>Lift,<span style='color:red'>Fail,<span style='color:green'>Lift,<span style='color:green'>Lift,<span style='color:green'>Lift,<span style='color:red'>Fail,<span style='color:green'>Lift","<span style='color:red'>Fail,<span style='color:green'>Lift,<span style='color:green'>Lift,<span style='color:red'>Fail,<span style='color:green'>Lift,<span style='color:green'>Lift","0,0,1,1,0,0,0,0,1,0,0,1","0,0,1,1,1,1,0,1,1,1,0,1","0,1,1,0,1,1",10,20,20,"","","","","{""box1"":""5"",""box2"":""5"",""box3"":""100"",""box4"":""100""}","",NA,2,"round2_outcome",3,2,2,5,5,100,100,1,1,20,NA,NA,NA,NA,NA,NA,NA,NA,NA,NA,NA,5,5,100,100,1,1,20,NA,NA,NA,NA,NA,NA,NA,NA,NA,NA,NA,"",NA,NA,NA,NA,NA,NA,NA,NA,2025-11-21 02:31:26
"23429.79999999702","https://psyc-201.github.io/xiang2023/exp/index1.html?PROLIFIC_PID=REDACTED&STUDY_ID=691f8ca61c6b4dcbb0aeb5f4&SESSION_ID=691fc7b4a78c49f4d5c350f2","survey-html-form",21,982564,"0.0-320.0","X7fER69h008fJVTp3IUE8Ki8phoauz+QcmWdLex+mjG96M7X0y/BrVCaT6UDj30oFo9jvxrIkzwAz0A9rKlpogTwtBkVxHOnKZNLcHLAKMbOnNi3x/t4yQZ5Hzi1gt7CwKNAfdQnyjv3NDv+nU4eqKCDrMq0BYnDrgL09UYJWIxLMGsHweez+B7nSDS/sA8pKWhurEUbOH6JjvmdzU0o2W+xuwTdql3cd6eAKDcOey9jIRHJr/ZrkPX/0Bh5aRnyjhxmf94W5sgAp1OEgdRWQgPB50wZBMYK7sbgAB+VlK5/hNHaQWk4a0X6s5nqhnir2P2q1Y0kVTeS4oaW+a9/dQ==","691f8ca61c6b4dcbb0aeb5f4","691fc7b4a78c49f4d5c350f2","index1","<span style='color:red'>Fail,<span style='color:red'>Fail,<span style='color:green'>Lift,<span style='color:green'>Lift,<span style='color:red'>Fail,<span style='color:red'>Fail,<span style='color:red'>Fail,<span style='color:red'>Fail,<span style='color:green'>Lift,<span style='color:red'>Fail,<span style='color:red'>Fail,<span style='color:green'>Lift","<span style='color:red'>Fail,<span style='color:red'>Fail,<span style='color:green'>Lift,<span style='color:green'>Lift,<span style='color:green'>Lift,<span style='color:green'>Lift,<span style='color:red'>Fail,<span style='color:green'>Lift,<span style='color:green'>Lift,<span style='color:green'>Lift,<span style='color:red'>Fail,<span style='color:green'>Lift","<span style='color:red'>Fail,<span style='color:green'>Lift,<span style='color:green'>Lift,<span style='color:red'>Fail,<span style='color:green'>Lift,<span style='color:green'>Lift","0,0,1,1,0,0,0,0,1,0,0,1","0,0,1,1,1,1,0,1,1,1,0,1","0,1,1,0,1,1",10,20,20,"","","","","{""box1"":""95""}","",NA,2,"round3_ready",4,2,3,NA,NA,NA,NA,NA,NA,NA,NA,NA,NA,NA,NA,NA,NA,95,95,NA,NA,NA,NA,NA,NA,NA,NA,NA,95,95,NA,NA,NA,NA,NA,NA,NA,NA,NA,"",NA,NA,NA,NA,NA,NA,NA,NA,2025-11-21 02:31:26
"27472.79999999702","https://psyc-201.github.io/xiang2023/exp/index1.html?PROLIFIC_PID=REDACTED&STUDY_ID=691f8ca61c6b4dcbb0aeb5f4&SESSION_ID=691fc7b4a78c49f4d5c350f2","survey-html-form",22,1010044,"0.0-321.0-0.0","X7fER69h008fJVTp3IUE8Ki8phoauz+QcmWdLex+mjG96M7X0y/BrVCaT6UDj30oFo9jvxrIkzwAz0A9rKlpogTwtBkVxHOnKZNLcHLAKMbOnNi3x/t4yQZ5Hzi1gt7CwKNAfdQnyjv3NDv+nU4eqKCDrMq0BYnDrgL09UYJWIxLMGsHweez+B7nSDS/sA8pKWhurEUbOH6JjvmdzU0o2W+xuwTdql3cd6eAKDcOey9jIRHJr/ZrkPX/0Bh5aRnyjhxmf94W5sgAp1OEgdRWQgPB50wZBMYK7sbgAB+VlK5/hNHaQWk4a0X6s5nqhnir2P2q1Y0kVTeS4oaW+a9/dQ==","691f8ca61c6b4dcbb0aeb5f4","691fc7b4a78c49f4d5c350f2","index1","<span style='color:red'>Fail,<span style='color:red'>Fail,<span style='color:green'>Lift,<span style='color:green'>Lift,<span style='color:red'>Fail,<span style='color:red'>Fail,<span style='color:red'>Fail,<span style='color:red'>Fail,<span style='color:green'>Lift,<span style='color:red'>Fail,<span style='color:red'>Fail,<span style='color:green'>Lift","<span style='color:red'>Fail,<span style='color:red'>Fail,<span style='color:green'>Lift,<span style='color:green'>Lift,<span style='color:green'>Lift,<span style='color:green'>Lift,<span style='color:red'>Fail,<span style='color:green'>Lift,<span style='color:green'>Lift,<span style='color:green'>Lift,<span style='color:red'>Fail,<span style='color:green'>Lift","<span style='color:red'>Fail,<span style='color:green'>Lift,<span style='color:green'>Lift,<span style='color:red'>Fail,<span style='color:green'>Lift,<span style='color:green'>Lift","0,0,1,1,0,0,0,0,1,0,0,1","0,0,1,1,1,1,0,1,1,1,0,1","0,1,1,0,1,1",10,20,20,"","","","","{""box1"":""5"",""box2"":""5"",""box3"":""100"",""box4"":""100""}","",NA,3,"round3_lift",5,2,3,5,5,100,100,1,1,20,NA,NA,NA,NA,NA,NA,NA,NA,NA,NA,NA,NA,NA,NA,NA,NA,NA,NA,NA,NA,NA,NA,5,5,1,1,20,100,100,"",NA,NA,NA,NA,NA,NA,NA,NA,2025-11-21 02:31:26
"null","https://psyc-201.github.io/xiang2023/exp/index1.html?PROLIFIC_PID=REDACTED&STUDY_ID=691f8ca61c6b4dcbb0aeb5f4&SESSION_ID=691fc7b4a78c49f4d5c350f2","html-keyboard-response",23,1013049,"0.0-325.0","X7fER69h008fJVTp3IUE8Ki8phoauz+QcmWdLex+mjG96M7X0y/BrVCaT6UDj30oFo9jvxrIkzwAz0A9rKlpogTwtBkVxHOnKZNLcHLAKMbOnNi3x/t4yQZ5Hzi1gt7CwKNAfdQnyjv3NDv+nU4eqKCDrMq0BYnDrgL09UYJWIxLMGsHweez+B7nSDS/sA8pKWhurEUbOH6JjvmdzU0o2W+xuwTdql3cd6eAKDcOey9jIRHJr/ZrkPX/0Bh5aRnyjhxmf94W5sgAp1OEgdRWQgPB50wZBMYK7sbgAB+VlK5/hNHaQWk4a0X6s5nqhnir2P2q1Y0kVTeS4oaW+a9/dQ==","691f8ca61c6b4dcbb0aeb5f4","691fc7b4a78c49f4d5c350f2","index1","<span style='color:red'>Fail,<span style='color:red'>Fail,<span style='color:green'>Lift,<span style='color:green'>Lift,<span style='color:red'>Fail,<span style='color:red'>Fail,<span style='color:red'>Fail,<span style='color:red'>Fail,<span style='color:green'>Lift,<span style='color:red'>Fail,<span style='color:red'>Fail,<span style='color:green'>Lift","<span style='color:red'>Fail,<span style='color:red'>Fail,<span style='color:green'>Lift,<span style='color:green'>Lift,<span style='color:green'>Lift,<span style='color:green'>Lift,<span style='color:red'>Fail,<span style='color:green'>Lift,<span style='color:green'>Lift,<span style='color:green'>Lift,<span style='color:red'>Fail,<span style='color:green'>Lift","<span style='color:red'>Fail,<span style='color:green'>Lift,<span style='color:green'>Lift,<span style='color:red'>Fail,<span style='color:green'>Lift,<span style='color:green'>Lift","0,0,1,1,0,0,0,0,1,0,0,1","0,0,1,1,1,1,0,1,1,1,0,1","0,1,1,0,1,1",10,20,20,"","","<p style='font-size:30px'><b> New Contest! </b></p>","null","","",NA,3,"",NA,NA,NA,NA,NA,NA,NA,NA,NA,NA,NA,NA,NA,NA,NA,NA,NA,NA,NA,NA,NA,NA,NA,NA,NA,NA,NA,NA,NA,NA,NA,NA,NA,NA,NA,NA,NA,NA,NA,"",NA,NA,NA,NA,NA,NA,NA,NA,2025-11-21 02:31:26
"34662.09999999404","https://psyc-201.github.io/xiang2023/exp/index1.html?PROLIFIC_PID=REDACTED&STUDY_ID=691f8ca61c6b4dcbb0aeb5f4&SESSION_ID=691fc7b4a78c49f4d5c350f2","survey-html-form",24,1047716,"0.0-326.0","X7fER69h008fJVTp3IUE8Ki8phoauz+QcmWdLex+mjG96M7X0y/BrVCaT6UDj30oFo9jvxrIkzwAz0A9rKlpogTwtBkVxHOnKZNLcHLAKMbOnNi3x/t4yQZ5Hzi1gt7CwKNAfdQnyjv3NDv+nU4eqKCDrMq0BYnDrgL09UYJWIxLMGsHweez+B7nSDS/sA8pKWhurEUbOH6JjvmdzU0o2W+xuwTdql3cd6eAKDcOey9jIRHJr/ZrkPX/0Bh5aRnyjhxmf94W5sgAp1OEgdRWQgPB50wZBMYK7sbgAB+VlK5/hNHaQWk4a0X6s5nqhnir2P2q1Y0kVTeS4oaW+a9/dQ==","691f8ca61c6b4dcbb0aeb5f4","691fc7b4a78c49f4d5c350f2","index1","<span style='color:red'>Fail,<span style='color:red'>Fail,<span style='color:green'>Lift,<span style='color:green'>Lift,<span style='color:red'>Fail,<span style='color:red'>Fail,<span style='color:red'>Fail,<span style='color:red'>Fail,<span style='color:green'>Lift,<span style='color:red'>Fail,<span style='color:red'>Fail,<span style='color:green'>Lift","<span style='color:red'>Fail,<span style='color:red'>Fail,<span style='color:green'>Lift,<span style='color:green'>Lift,<span style='color:green'>Lift,<span style='color:green'>Lift,<span style='color:red'>Fail,<span style='color:green'>Lift,<span style='color:green'>Lift,<span style='color:green'>Lift,<span style='color:red'>Fail,<span style='color:green'>Lift","<span style='color:red'>Fail,<span style='color:green'>Lift,<span style='color:green'>Lift,<span style='color:red'>Fail,<span style='color:green'>Lift,<span style='color:green'>Lift","0,0,1,1,0,0,0,0,1,0,0,1","0,0,1,1,1,1,0,1,1,1,0,1","0,1,1,0,1,1",10,20,20,"","","","","{""box1"":""6"",""box2"":""6"",""box3"":""50"",""box4"":""50""}","",NA,3,"round1_outcome",1,3,1,6,6,50,50,1,1,10,6,6,50,50,1,1,10,NA,NA,NA,NA,NA,NA,NA,NA,NA,NA,NA,NA,NA,NA,NA,NA,NA,NA,NA,NA,NA,NA,"",NA,NA,NA,NA,NA,NA,NA,NA,2025-11-21 02:31:26
"20198.19999998808","https://psyc-201.github.io/xiang2023/exp/index1.html?PROLIFIC_PID=REDACTED&STUDY_ID=691f8ca61c6b4dcbb0aeb5f4&SESSION_ID=691fc7b4a78c49f4d5c350f2","survey-html-form",25,1067921,"0.0-327.0","X7fER69h008fJVTp3IUE8Ki8phoauz+QcmWdLex+mjG96M7X0y/BrVCaT6UDj30oFo9jvxrIkzwAz0A9rKlpogTwtBkVxHOnKZNLcHLAKMbOnNi3x/t4yQZ5Hzi1gt7CwKNAfdQnyjv3NDv+nU4eqKCDrMq0BYnDrgL09UYJWIxLMGsHweez+B7nSDS/sA8pKWhurEUbOH6JjvmdzU0o2W+xuwTdql3cd6eAKDcOey9jIRHJr/ZrkPX/0Bh5aRnyjhxmf94W5sgAp1OEgdRWQgPB50wZBMYK7sbgAB+VlK5/hNHaQWk4a0X6s5nqhnir2P2q1Y0kVTeS4oaW+a9/dQ==","691f8ca61c6b4dcbb0aeb5f4","691fc7b4a78c49f4d5c350f2","index1","<span style='color:red'>Fail,<span style='color:red'>Fail,<span style='color:green'>Lift,<span style='color:green'>Lift,<span style='color:red'>Fail,<span style='color:red'>Fail,<span style='color:red'>Fail,<span style='color:red'>Fail,<span style='color:green'>Lift,<span style='color:red'>Fail,<span style='color:red'>Fail,<span style='color:green'>Lift","<span style='color:red'>Fail,<span style='color:red'>Fail,<span style='color:green'>Lift,<span style='color:green'>Lift,<span style='color:green'>Lift,<span style='color:green'>Lift,<span style='color:red'>Fail,<span style='color:green'>Lift,<span style='color:green'>Lift,<span style='color:green'>Lift,<span style='color:red'>Fail,<span style='color:green'>Lift","<span style='color:red'>Fail,<span style='color:green'>Lift,<span style='color:green'>Lift,<span style='color:red'>Fail,<span style='color:green'>Lift,<span style='color:green'>Lift","0,0,1,1,0,0,0,0,1,0,0,1","0,0,1,1,1,1,0,1,1,1,0,1","0,1,1,0,1,1",10,20,20,"","","","","{""box1"":""95"",""box2"":""95""}","",NA,3,"round2_ready",2,3,2,NA,NA,NA,NA,NA,NA,NA,NA,NA,NA,NA,NA,NA,NA,95,95,95,95,NA,NA,NA,NA,NA,NA,NA,NA,NA,NA,NA,NA,NA,NA,NA,NA,NA,NA,"",NA,NA,NA,NA,NA,NA,NA,NA,2025-11-21 02:31:26
"27782","https://psyc-201.github.io/xiang2023/exp/index1.html?PROLIFIC_PID=REDACTED&STUDY_ID=691f8ca61c6b4dcbb0aeb5f4&SESSION_ID=691fc7b4a78c49f4d5c350f2","survey-html-form",26,1095709,"0.0-328.0","X7fER69h008fJVTp3IUE8Ki8phoauz+QcmWdLex+mjG96M7X0y/BrVCaT6UDj30oFo9jvxrIkzwAz0A9rKlpogTwtBkVxHOnKZNLcHLAKMbOnNi3x/t4yQZ5Hzi1gt7CwKNAfdQnyjv3NDv+nU4eqKCDrMq0BYnDrgL09UYJWIxLMGsHweez+B7nSDS/sA8pKWhurEUbOH6JjvmdzU0o2W+xuwTdql3cd6eAKDcOey9jIRHJr/ZrkPX/0Bh5aRnyjhxmf94W5sgAp1OEgdRWQgPB50wZBMYK7sbgAB+VlK5/hNHaQWk4a0X6s5nqhnir2P2q1Y0kVTeS4oaW+a9/dQ==","691f8ca61c6b4dcbb0aeb5f4","691fc7b4a78c49f4d5c350f2","index1","<span style='color:red'>Fail,<span style='color:red'>Fail,<span style='color:green'>Lift,<span style='color:green'>Lift,<span style='color:red'>Fail,<span style='color:red'>Fail,<span style='color:red'>Fail,<span style='color:red'>Fail,<span style='color:green'>Lift,<span style='color:red'>Fail,<span style='color:red'>Fail,<span style='color:green'>Lift","<span style='color:red'>Fail,<span style='color:red'>Fail,<span style='color:green'>Lift,<span style='color:green'>Lift,<span style='color:green'>Lift,<span style='color:green'>Lift,<span style='color:red'>Fail,<span style='color:green'>Lift,<span style='color:green'>Lift,<span style='color:green'>Lift,<span style='color:red'>Fail,<span style='color:green'>Lift","<span style='color:red'>Fail,<span style='color:green'>Lift,<span style='color:green'>Lift,<span style='color:red'>Fail,<span style='color:green'>Lift,<span style='color:green'>Lift","0,0,1,1,0,0,0,0,1,0,0,1","0,0,1,1,1,1,0,1,1,1,0,1","0,1,1,0,1,1",10,20,20,"","","","","{""box1"":""6"",""box2"":""6"",""box3"":""100"",""box4"":""100""}","",NA,3,"round2_outcome",3,3,2,6,6,100,100,1,1,20,NA,NA,NA,NA,NA,NA,NA,NA,NA,NA,NA,6,6,100,100,1,1,20,NA,NA,NA,NA,NA,NA,NA,NA,NA,NA,NA,"",NA,NA,NA,NA,NA,NA,NA,NA,2025-11-21 02:31:26
"16830.90000000596","https://psyc-201.github.io/xiang2023/exp/index1.html?PROLIFIC_PID=REDACTED&STUDY_ID=691f8ca61c6b4dcbb0aeb5f4&SESSION_ID=691fc7b4a78c49f4d5c350f2","survey-html-form",27,1112547,"0.0-329.0","X7fER69h008fJVTp3IUE8Ki8phoauz+QcmWdLex+mjG96M7X0y/BrVCaT6UDj30oFo9jvxrIkzwAz0A9rKlpogTwtBkVxHOnKZNLcHLAKMbOnNi3x/t4yQZ5Hzi1gt7CwKNAfdQnyjv3NDv+nU4eqKCDrMq0BYnDrgL09UYJWIxLMGsHweez+B7nSDS/sA8pKWhurEUbOH6JjvmdzU0o2W+xuwTdql3cd6eAKDcOey9jIRHJr/ZrkPX/0Bh5aRnyjhxmf94W5sgAp1OEgdRWQgPB50wZBMYK7sbgAB+VlK5/hNHaQWk4a0X6s5nqhnir2P2q1Y0kVTeS4oaW+a9/dQ==","691f8ca61c6b4dcbb0aeb5f4","691fc7b4a78c49f4d5c350f2","index1","<span style='color:red'>Fail,<span style='color:red'>Fail,<span style='color:green'>Lift,<span style='color:green'>Lift,<span style='color:red'>Fail,<span style='color:red'>Fail,<span style='color:red'>Fail,<span style='color:red'>Fail,<span style='color:green'>Lift,<span style='color:red'>Fail,<span style='color:red'>Fail,<span style='color:green'>Lift","<span style='color:red'>Fail,<span style='color:red'>Fail,<span style='color:green'>Lift,<span style='color:green'>Lift,<span style='color:green'>Lift,<span style='color:green'>Lift,<span style='color:red'>Fail,<span style='color:green'>Lift,<span style='color:green'>Lift,<span style='color:green'>Lift,<span style='color:red'>Fail,<span style='color:green'>Lift","<span style='color:red'>Fail,<span style='color:green'>Lift,<span style='color:green'>Lift,<span style='color:red'>Fail,<span style='color:green'>Lift,<span style='color:green'>Lift","0,0,1,1,0,0,0,0,1,0,0,1","0,0,1,1,1,1,0,1,1,1,0,1","0,1,1,0,1,1",10,20,20,"","","","","{""box1"":""99""}","",NA,3,"round3_ready",4,3,3,NA,NA,NA,NA,NA,NA,NA,NA,NA,NA,NA,NA,NA,NA,99,99,NA,NA,NA,NA,NA,NA,NA,NA,NA,99,99,NA,NA,NA,NA,NA,NA,NA,NA,NA,"",NA,NA,NA,NA,NA,NA,NA,NA,2025-11-21 02:31:26
"26808.89999999106","https://psyc-201.github.io/xiang2023/exp/index1.html?PROLIFIC_PID=REDACTED&STUDY_ID=691f8ca61c6b4dcbb0aeb5f4&SESSION_ID=691fc7b4a78c49f4d5c350f2","survey-html-form",28,1139365,"0.0-330.0-0.0","X7fER69h008fJVTp3IUE8Ki8phoauz+QcmWdLex+mjG96M7X0y/BrVCaT6UDj30oFo9jvxrIkzwAz0A9rKlpogTwtBkVxHOnKZNLcHLAKMbOnNi3x/t4yQZ5Hzi1gt7CwKNAfdQnyjv3NDv+nU4eqKCDrMq0BYnDrgL09UYJWIxLMGsHweez+B7nSDS/sA8pKWhurEUbOH6JjvmdzU0o2W+xuwTdql3cd6eAKDcOey9jIRHJr/ZrkPX/0Bh5aRnyjhxmf94W5sgAp1OEgdRWQgPB50wZBMYK7sbgAB+VlK5/hNHaQWk4a0X6s5nqhnir2P2q1Y0kVTeS4oaW+a9/dQ==","691f8ca61c6b4dcbb0aeb5f4","691fc7b4a78c49f4d5c350f2","index1","<span style='color:red'>Fail,<span style='color:red'>Fail,<span style='color:green'>Lift,<span style='color:green'>Lift,<span style='color:red'>Fail,<span style='color:red'>Fail,<span style='color:red'>Fail,<span style='color:red'>Fail,<span style='color:green'>Lift,<span style='color:red'>Fail,<span style='color:red'>Fail,<span style='color:green'>Lift","<span style='color:red'>Fail,<span style='color:red'>Fail,<span style='color:green'>Lift,<span style='color:green'>Lift,<span style='color:green'>Lift,<span style='color:green'>Lift,<span style='color:red'>Fail,<span style='color:green'>Lift,<span style='color:green'>Lift,<span style='color:green'>Lift,<span style='color:red'>Fail,<span style='color:green'>Lift","<span style='color:red'>Fail,<span style='color:green'>Lift,<span style='color:green'>Lift,<span style='color:red'>Fail,<span style='color:green'>Lift,<span style='color:green'>Lift","0,0,1,1,0,0,0,0,1,0,0,1","0,0,1,1,1,1,0,1,1,1,0,1","0,1,1,0,1,1",10,20,20,"","","","","{""box1"":""6"",""box2"":""6"",""box3"":""100"",""box4"":""100""}","",NA,4,"round3_lift",5,3,3,6,6,100,100,1,1,20,NA,NA,NA,NA,NA,NA,NA,NA,NA,NA,NA,NA,NA,NA,NA,NA,NA,NA,NA,NA,NA,NA,6,6,1,1,20,100,100,"",NA,NA,NA,NA,NA,NA,NA,NA,2025-11-21 02:31:26
"null","https://psyc-201.github.io/xiang2023/exp/index1.html?PROLIFIC_PID=REDACTED&STUDY_ID=691f8ca61c6b4dcbb0aeb5f4&SESSION_ID=691fc7b4a78c49f4d5c350f2","html-keyboard-response",29,1142378,"0.0-334.0","X7fER69h008fJVTp3IUE8Ki8phoauz+QcmWdLex+mjG96M7X0y/BrVCaT6UDj30oFo9jvxrIkzwAz0A9rKlpogTwtBkVxHOnKZNLcHLAKMbOnNi3x/t4yQZ5Hzi1gt7CwKNAfdQnyjv3NDv+nU4eqKCDrMq0BYnDrgL09UYJWIxLMGsHweez+B7nSDS/sA8pKWhurEUbOH6JjvmdzU0o2W+xuwTdql3cd6eAKDcOey9jIRHJr/ZrkPX/0Bh5aRnyjhxmf94W5sgAp1OEgdRWQgPB50wZBMYK7sbgAB+VlK5/hNHaQWk4a0X6s5nqhnir2P2q1Y0kVTeS4oaW+a9/dQ==","691f8ca61c6b4dcbb0aeb5f4","691fc7b4a78c49f4d5c350f2","index1","<span style='color:red'>Fail,<span style='color:red'>Fail,<span style='color:green'>Lift,<span style='color:green'>Lift,<span style='color:red'>Fail,<span style='color:red'>Fail,<span style='color:red'>Fail,<span style='color:red'>Fail,<span style='color:green'>Lift,<span style='color:red'>Fail,<span style='color:red'>Fail,<span style='color:green'>Lift","<span style='color:red'>Fail,<span style='color:red'>Fail,<span style='color:green'>Lift,<span style='color:green'>Lift,<span style='color:green'>Lift,<span style='color:green'>Lift,<span style='color:red'>Fail,<span style='color:green'>Lift,<span style='color:green'>Lift,<span style='color:green'>Lift,<span style='color:red'>Fail,<span style='color:green'>Lift","<span style='color:red'>Fail,<span style='color:green'>Lift,<span style='color:green'>Lift,<span style='color:red'>Fail,<span style='color:green'>Lift,<span style='color:green'>Lift","0,0,1,1,0,0,0,0,1,0,0,1","0,0,1,1,1,1,0,1,1,1,0,1","0,1,1,0,1,1",10,20,20,"","","<p style='font-size:30px'><b> New Contest! </b></p>","null","","",NA,4,"",NA,NA,NA,NA,NA,NA,NA,NA,NA,NA,NA,NA,NA,NA,NA,NA,NA,NA,NA,NA,NA,NA,NA,NA,NA,NA,NA,NA,NA,NA,NA,NA,NA,NA,NA,NA,NA,NA,NA,"",NA,NA,NA,NA,NA,NA,NA,NA,2025-11-21 02:31:26
"75288","https://psyc-201.github.io/xiang2023/exp/index1.html?PROLIFIC_PID=REDACTED&STUDY_ID=691f8ca61c6b4dcbb0aeb5f4&SESSION_ID=691fc7b4a78c49f4d5c350f2","survey-html-form",30,1217674,"0.0-335.0","X7fER69h008fJVTp3IUE8Ki8phoauz+QcmWdLex+mjG96M7X0y/BrVCaT6UDj30oFo9jvxrIkzwAz0A9rKlpogTwtBkVxHOnKZNLcHLAKMbOnNi3x/t4yQZ5Hzi1gt7CwKNAfdQnyjv3NDv+nU4eqKCDrMq0BYnDrgL09UYJWIxLMGsHweez+B7nSDS/sA8pKWhurEUbOH6JjvmdzU0o2W+xuwTdql3cd6eAKDcOey9jIRHJr/ZrkPX/0Bh5aRnyjhxmf94W5sgAp1OEgdRWQgPB50wZBMYK7sbgAB+VlK5/hNHaQWk4a0X6s5nqhnir2P2q1Y0kVTeS4oaW+a9/dQ==","691f8ca61c6b4dcbb0aeb5f4","691fc7b4a78c49f4d5c350f2","index1","<span style='color:red'>Fail,<span style='color:red'>Fail,<span style='color:green'>Lift,<span style='color:green'>Lift,<span style='color:red'>Fail,<span style='color:red'>Fail,<span style='color:red'>Fail,<span style='color:red'>Fail,<span style='color:green'>Lift,<span style='color:red'>Fail,<span style='color:red'>Fail,<span style='color:green'>Lift","<span style='color:red'>Fail,<span style='color:red'>Fail,<span style='color:green'>Lift,<span style='color:green'>Lift,<span style='color:green'>Lift,<span style='color:green'>Lift,<span style='color:red'>Fail,<span style='color:green'>Lift,<span style='color:green'>Lift,<span style='color:green'>Lift,<span style='color:red'>Fail,<span style='color:green'>Lift","<span style='color:red'>Fail,<span style='color:green'>Lift,<span style='color:green'>Lift,<span style='color:red'>Fail,<span style='color:green'>Lift,<span style='color:green'>Lift","0,0,1,1,0,0,0,0,1,0,0,1","0,0,1,1,1,1,0,1,1,1,0,1","0,1,1,0,1,1",10,20,20,"","","","","{""box1"":""4"",""box2"":""6"",""box4"":""50""}","",NA,4,"round1_outcome",1,4,1,4,6,NA,50,0,1,10,4,6,NA,50,0,1,10,NA,NA,NA,NA,NA,NA,NA,NA,NA,NA,NA,NA,NA,NA,NA,NA,NA,NA,NA,NA,NA,NA,"",NA,NA,NA,NA,NA,NA,NA,NA,2025-11-21 02:31:26
"26781","https://psyc-201.github.io/xiang2023/exp/index1.html?PROLIFIC_PID=REDACTED&STUDY_ID=691f8ca61c6b4dcbb0aeb5f4&SESSION_ID=691fc7b4a78c49f4d5c350f2","survey-html-form",31,1244459,"0.0-336.0","X7fER69h008fJVTp3IUE8Ki8phoauz+QcmWdLex+mjG96M7X0y/BrVCaT6UDj30oFo9jvxrIkzwAz0A9rKlpogTwtBkVxHOnKZNLcHLAKMbOnNi3x/t4yQZ5Hzi1gt7CwKNAfdQnyjv3NDv+nU4eqKCDrMq0BYnDrgL09UYJWIxLMGsHweez+B7nSDS/sA8pKWhurEUbOH6JjvmdzU0o2W+xuwTdql3cd6eAKDcOey9jIRHJr/ZrkPX/0Bh5aRnyjhxmf94W5sgAp1OEgdRWQgPB50wZBMYK7sbgAB+VlK5/hNHaQWk4a0X6s5nqhnir2P2q1Y0kVTeS4oaW+a9/dQ==","691f8ca61c6b4dcbb0aeb5f4","691fc7b4a78c49f4d5c350f2","index1","<span style='color:red'>Fail,<span style='color:red'>Fail,<span style='color:green'>Lift,<span style='color:green'>Lift,<span style='color:red'>Fail,<span style='color:red'>Fail,<span style='color:red'>Fail,<span style='color:red'>Fail,<span style='color:green'>Lift,<span style='color:red'>Fail,<span style='color:red'>Fail,<span style='color:green'>Lift","<span style='color:red'>Fail,<span style='color:red'>Fail,<span style='color:green'>Lift,<span style='color:green'>Lift,<span style='color:green'>Lift,<span style='color:green'>Lift,<span style='color:red'>Fail,<span style='color:green'>Lift,<span style='color:green'>Lift,<span style='color:green'>Lift,<span style='color:red'>Fail,<span style='color:green'>Lift","<span style='color:red'>Fail,<span style='color:green'>Lift,<span style='color:green'>Lift,<span style='color:red'>Fail,<span style='color:green'>Lift,<span style='color:green'>Lift","0,0,1,1,0,0,0,0,1,0,0,1","0,0,1,1,1,1,0,1,1,1,0,1","0,1,1,0,1,1",10,20,20,"","","","","{""box1"":""20"",""box2"":""95""}","",NA,4,"round2_ready",2,4,2,NA,NA,NA,NA,NA,NA,NA,NA,NA,NA,NA,NA,NA,NA,20,95,20,95,NA,NA,NA,NA,NA,NA,NA,NA,NA,NA,NA,NA,NA,NA,NA,NA,NA,NA,"",NA,NA,NA,NA,NA,NA,NA,NA,2025-11-21 02:31:26
"75383.59999999404","https://psyc-201.github.io/xiang2023/exp/index1.html?PROLIFIC_PID=REDACTED&STUDY_ID=691f8ca61c6b4dcbb0aeb5f4&SESSION_ID=691fc7b4a78c49f4d5c350f2","survey-html-form",32,1319851,"0.0-337.0","X7fER69h008fJVTp3IUE8Ki8phoauz+QcmWdLex+mjG96M7X0y/BrVCaT6UDj30oFo9jvxrIkzwAz0A9rKlpogTwtBkVxHOnKZNLcHLAKMbOnNi3x/t4yQZ5Hzi1gt7CwKNAfdQnyjv3NDv+nU4eqKCDrMq0BYnDrgL09UYJWIxLMGsHweez+B7nSDS/sA8pKWhurEUbOH6JjvmdzU0o2W+xuwTdql3cd6eAKDcOey9jIRHJr/ZrkPX/0Bh5aRnyjhxmf94W5sgAp1OEgdRWQgPB50wZBMYK7sbgAB+VlK5/hNHaQWk4a0X6s5nqhnir2P2q1Y0kVTeS4oaW+a9/dQ==","691f8ca61c6b4dcbb0aeb5f4","691fc7b4a78c49f4d5c350f2","index1","<span style='color:red'>Fail,<span style='color:red'>Fail,<span style='color:green'>Lift,<span style='color:green'>Lift,<span style='color:red'>Fail,<span style='color:red'>Fail,<span style='color:red'>Fail,<span style='color:red'>Fail,<span style='color:green'>Lift,<span style='color:red'>Fail,<span style='color:red'>Fail,<span style='color:green'>Lift","<span style='color:red'>Fail,<span style='color:red'>Fail,<span style='color:green'>Lift,<span style='color:green'>Lift,<span style='color:green'>Lift,<span style='color:green'>Lift,<span style='color:red'>Fail,<span style='color:green'>Lift,<span style='color:green'>Lift,<span style='color:green'>Lift,<span style='color:red'>Fail,<span style='color:green'>Lift","<span style='color:red'>Fail,<span style='color:green'>Lift,<span style='color:green'>Lift,<span style='color:red'>Fail,<span style='color:green'>Lift,<span style='color:green'>Lift","0,0,1,1,0,0,0,0,1,0,0,1","0,0,1,1,1,1,0,1,1,1,0,1","0,1,1,0,1,1",10,20,20,"","","","","{""box1"":""4"",""box2"":""6"",""box4"":""100""}","",NA,4,"round2_outcome",3,4,2,4,6,NA,100,0,1,20,NA,NA,NA,NA,NA,NA,NA,NA,NA,NA,NA,4,6,NA,100,0,1,20,NA,NA,NA,NA,NA,NA,NA,NA,NA,NA,NA,"",NA,NA,NA,NA,NA,NA,NA,NA,2025-11-21 02:31:26
"18512.20000000298","https://psyc-201.github.io/xiang2023/exp/index1.html?PROLIFIC_PID=REDACTED&STUDY_ID=691f8ca61c6b4dcbb0aeb5f4&SESSION_ID=691fc7b4a78c49f4d5c350f2","survey-html-form",33,1338371,"0.0-338.0","X7fER69h008fJVTp3IUE8Ki8phoauz+QcmWdLex+mjG96M7X0y/BrVCaT6UDj30oFo9jvxrIkzwAz0A9rKlpogTwtBkVxHOnKZNLcHLAKMbOnNi3x/t4yQZ5Hzi1gt7CwKNAfdQnyjv3NDv+nU4eqKCDrMq0BYnDrgL09UYJWIxLMGsHweez+B7nSDS/sA8pKWhurEUbOH6JjvmdzU0o2W+xuwTdql3cd6eAKDcOey9jIRHJr/ZrkPX/0Bh5aRnyjhxmf94W5sgAp1OEgdRWQgPB50wZBMYK7sbgAB+VlK5/hNHaQWk4a0X6s5nqhnir2P2q1Y0kVTeS4oaW+a9/dQ==","691f8ca61c6b4dcbb0aeb5f4","691fc7b4a78c49f4d5c350f2","index1","<span style='color:red'>Fail,<span style='color:red'>Fail,<span style='color:green'>Lift,<span style='color:green'>Lift,<span style='color:red'>Fail,<span style='color:red'>Fail,<span style='color:red'>Fail,<span style='color:red'>Fail,<span style='color:green'>Lift,<span style='color:red'>Fail,<span style='color:red'>Fail,<span style='color:green'>Lift","<span style='color:red'>Fail,<span style='color:red'>Fail,<span style='color:green'>Lift,<span style='color:green'>Lift,<span style='color:green'>Lift,<span style='color:green'>Lift,<span style='color:red'>Fail,<span style='color:green'>Lift,<span style='color:green'>Lift,<span style='color:green'>Lift,<span style='color:red'>Fail,<span style='color:green'>Lift","<span style='color:red'>Fail,<span style='color:green'>Lift,<span style='color:green'>Lift,<span style='color:red'>Fail,<span style='color:green'>Lift,<span style='color:green'>Lift","0,0,1,1,0,0,0,0,1,0,0,1","0,0,1,1,1,1,0,1,1,1,0,1","0,1,1,0,1,1",10,20,20,"","","","","{""box1"":""10""}","",NA,4,"round3_ready",4,4,3,NA,NA,NA,NA,NA,NA,NA,NA,NA,NA,NA,NA,NA,NA,10,10,NA,NA,NA,NA,NA,NA,NA,NA,NA,10,10,NA,NA,NA,NA,NA,NA,NA,NA,NA,"",NA,NA,NA,NA,NA,NA,NA,NA,2025-11-21 02:31:26
"25008.10000000894","https://psyc-201.github.io/xiang2023/exp/index1.html?PROLIFIC_PID=REDACTED&STUDY_ID=691f8ca61c6b4dcbb0aeb5f4&SESSION_ID=691fc7b4a78c49f4d5c350f2","survey-html-form",34,1363389,"0.0-339.0-0.0","X7fER69h008fJVTp3IUE8Ki8phoauz+QcmWdLex+mjG96M7X0y/BrVCaT6UDj30oFo9jvxrIkzwAz0A9rKlpogTwtBkVxHOnKZNLcHLAKMbOnNi3x/t4yQZ5Hzi1gt7CwKNAfdQnyjv3NDv+nU4eqKCDrMq0BYnDrgL09UYJWIxLMGsHweez+B7nSDS/sA8pKWhurEUbOH6JjvmdzU0o2W+xuwTdql3cd6eAKDcOey9jIRHJr/ZrkPX/0Bh5aRnyjhxmf94W5sgAp1OEgdRWQgPB50wZBMYK7sbgAB+VlK5/hNHaQWk4a0X6s5nqhnir2P2q1Y0kVTeS4oaW+a9/dQ==","691f8ca61c6b4dcbb0aeb5f4","691fc7b4a78c49f4d5c350f2","index1","<span style='color:red'>Fail,<span style='color:red'>Fail,<span style='color:green'>Lift,<span style='color:green'>Lift,<span style='color:red'>Fail,<span style='color:red'>Fail,<span style='color:red'>Fail,<span style='color:red'>Fail,<span style='color:green'>Lift,<span style='color:red'>Fail,<span style='color:red'>Fail,<span style='color:green'>Lift","<span style='color:red'>Fail,<span style='color:red'>Fail,<span style='color:green'>Lift,<span style='color:green'>Lift,<span style='color:green'>Lift,<span style='color:green'>Lift,<span style='color:red'>Fail,<span style='color:green'>Lift,<span style='color:green'>Lift,<span style='color:green'>Lift,<span style='color:red'>Fail,<span style='color:green'>Lift","<span style='color:red'>Fail,<span style='color:green'>Lift,<span style='color:green'>Lift,<span style='color:red'>Fail,<span style='color:green'>Lift,<span style='color:green'>Lift","0,0,1,1,0,0,0,0,1,0,0,1","0,0,1,1,1,1,0,1,1,1,0,1","0,1,1,0,1,1",10,20,20,"","","","","{""box1"":""4"",""box2"":""6"",""box3"":""100"",""box4"":""100""}","",NA,5,"round3_lift",5,4,3,4,6,100,100,1,1,20,NA,NA,NA,NA,NA,NA,NA,NA,NA,NA,NA,NA,NA,NA,NA,NA,NA,NA,NA,NA,NA,NA,4,6,1,1,20,100,100,"",NA,NA,NA,NA,NA,NA,NA,NA,2025-11-21 02:31:26
"null","https://psyc-201.github.io/xiang2023/exp/index1.html?PROLIFIC_PID=REDACTED&STUDY_ID=691f8ca61c6b4dcbb0aeb5f4&SESSION_ID=691fc7b4a78c49f4d5c350f2","html-keyboard-response",35,1366409,"0.0-343.0","X7fER69h008fJVTp3IUE8Ki8phoauz+QcmWdLex+mjG96M7X0y/BrVCaT6UDj30oFo9jvxrIkzwAz0A9rKlpogTwtBkVxHOnKZNLcHLAKMbOnNi3x/t4yQZ5Hzi1gt7CwKNAfdQnyjv3NDv+nU4eqKCDrMq0BYnDrgL09UYJWIxLMGsHweez+B7nSDS/sA8pKWhurEUbOH6JjvmdzU0o2W+xuwTdql3cd6eAKDcOey9jIRHJr/ZrkPX/0Bh5aRnyjhxmf94W5sgAp1OEgdRWQgPB50wZBMYK7sbgAB+VlK5/hNHaQWk4a0X6s5nqhnir2P2q1Y0kVTeS4oaW+a9/dQ==","691f8ca61c6b4dcbb0aeb5f4","691fc7b4a78c49f4d5c350f2","index1","<span style='color:red'>Fail,<span style='color:red'>Fail,<span style='color:green'>Lift,<span style='color:green'>Lift,<span style='color:red'>Fail,<span style='color:red'>Fail,<span style='color:red'>Fail,<span style='color:red'>Fail,<span style='color:green'>Lift,<span style='color:red'>Fail,<span style='color:red'>Fail,<span style='color:green'>Lift","<span style='color:red'>Fail,<span style='color:red'>Fail,<span style='color:green'>Lift,<span style='color:green'>Lift,<span style='color:green'>Lift,<span style='color:green'>Lift,<span style='color:red'>Fail,<span style='color:green'>Lift,<span style='color:green'>Lift,<span style='color:green'>Lift,<span style='color:red'>Fail,<span style='color:green'>Lift","<span style='color:red'>Fail,<span style='color:green'>Lift,<span style='color:green'>Lift,<span style='color:red'>Fail,<span style='color:green'>Lift,<span style='color:green'>Lift","0,0,1,1,0,0,0,0,1,0,0,1","0,0,1,1,1,1,0,1,1,1,0,1","0,1,1,0,1,1",10,20,20,"","","<p style='font-size:30px'><b> New Contest! </b></p>","null","","",NA,5,"",NA,NA,NA,NA,NA,NA,NA,NA,NA,NA,NA,NA,NA,NA,NA,NA,NA,NA,NA,NA,NA,NA,NA,NA,NA,NA,NA,NA,NA,NA,NA,NA,NA,NA,NA,NA,NA,NA,NA,"",NA,NA,NA,NA,NA,NA,NA,NA,2025-11-21 02:31:26
"29362.89999999106","https://psyc-201.github.io/xiang2023/exp/index1.html?PROLIFIC_PID=REDACTED&STUDY_ID=691f8ca61c6b4dcbb0aeb5f4&SESSION_ID=691fc7b4a78c49f4d5c350f2","survey-html-form",36,1395779,"0.0-344.0","X7fER69h008fJVTp3IUE8Ki8phoauz+QcmWdLex+mjG96M7X0y/BrVCaT6UDj30oFo9jvxrIkzwAz0A9rKlpogTwtBkVxHOnKZNLcHLAKMbOnNi3x/t4yQZ5Hzi1gt7CwKNAfdQnyjv3NDv+nU4eqKCDrMq0BYnDrgL09UYJWIxLMGsHweez+B7nSDS/sA8pKWhurEUbOH6JjvmdzU0o2W+xuwTdql3cd6eAKDcOey9jIRHJr/ZrkPX/0Bh5aRnyjhxmf94W5sgAp1OEgdRWQgPB50wZBMYK7sbgAB+VlK5/hNHaQWk4a0X6s5nqhnir2P2q1Y0kVTeS4oaW+a9/dQ==","691f8ca61c6b4dcbb0aeb5f4","691fc7b4a78c49f4d5c350f2","index1","<span style='color:red'>Fail,<span style='color:red'>Fail,<span style='color:green'>Lift,<span style='color:green'>Lift,<span style='color:red'>Fail,<span style='color:red'>Fail,<span style='color:red'>Fail,<span style='color:red'>Fail,<span style='color:green'>Lift,<span style='color:red'>Fail,<span style='color:red'>Fail,<span style='color:green'>Lift","<span style='color:red'>Fail,<span style='color:red'>Fail,<span style='color:green'>Lift,<span style='color:green'>Lift,<span style='color:green'>Lift,<span style='color:green'>Lift,<span style='color:red'>Fail,<span style='color:green'>Lift,<span style='color:green'>Lift,<span style='color:green'>Lift,<span style='color:red'>Fail,<span style='color:green'>Lift","<span style='color:red'>Fail,<span style='color:green'>Lift,<span style='color:green'>Lift,<span style='color:red'>Fail,<span style='color:green'>Lift,<span style='color:green'>Lift","0,0,1,1,0,0,0,0,1,0,0,1","0,0,1,1,1,1,0,1,1,1,0,1","0,1,1,0,1,1",10,20,20,"","","","","{""box1"":""5"",""box2"":""4"",""box3"":""50""}","",NA,5,"round1_outcome",1,5,1,5,4,50,NA,1,0,10,5,4,50,NA,1,0,10,NA,NA,NA,NA,NA,NA,NA,NA,NA,NA,NA,NA,NA,NA,NA,NA,NA,NA,NA,NA,NA,NA,"",NA,NA,NA,NA,NA,NA,NA,NA,2025-11-21 02:31:26
"24590.90000000596","https://psyc-201.github.io/xiang2023/exp/index1.html?PROLIFIC_PID=REDACTED&STUDY_ID=691f8ca61c6b4dcbb0aeb5f4&SESSION_ID=691fc7b4a78c49f4d5c350f2","survey-html-form",37,1420380,"0.0-345.0","X7fER69h008fJVTp3IUE8Ki8phoauz+QcmWdLex+mjG96M7X0y/BrVCaT6UDj30oFo9jvxrIkzwAz0A9rKlpogTwtBkVxHOnKZNLcHLAKMbOnNi3x/t4yQZ5Hzi1gt7CwKNAfdQnyjv3NDv+nU4eqKCDrMq0BYnDrgL09UYJWIxLMGsHweez+B7nSDS/sA8pKWhurEUbOH6JjvmdzU0o2W+xuwTdql3cd6eAKDcOey9jIRHJr/ZrkPX/0Bh5aRnyjhxmf94W5sgAp1OEgdRWQgPB50wZBMYK7sbgAB+VlK5/hNHaQWk4a0X6s5nqhnir2P2q1Y0kVTeS4oaW+a9/dQ==","691f8ca61c6b4dcbb0aeb5f4","691fc7b4a78c49f4d5c350f2","index1","<span style='color:red'>Fail,<span style='color:red'>Fail,<span style='color:green'>Lift,<span style='color:green'>Lift,<span style='color:red'>Fail,<span style='color:red'>Fail,<span style='color:red'>Fail,<span style='color:red'>Fail,<span style='color:green'>Lift,<span style='color:red'>Fail,<span style='color:red'>Fail,<span style='color:green'>Lift","<span style='color:red'>Fail,<span style='color:red'>Fail,<span style='color:green'>Lift,<span style='color:green'>Lift,<span style='color:green'>Lift,<span style='color:green'>Lift,<span style='color:red'>Fail,<span style='color:green'>Lift,<span style='color:green'>Lift,<span style='color:green'>Lift,<span style='color:red'>Fail,<span style='color:green'>Lift","<span style='color:red'>Fail,<span style='color:green'>Lift,<span style='color:green'>Lift,<span style='color:red'>Fail,<span style='color:green'>Lift,<span style='color:green'>Lift","0,0,1,1,0,0,0,0,1,0,0,1","0,0,1,1,1,1,0,1,1,1,0,1","0,1,1,0,1,1",10,20,20,"","","","","{""box1"":""90"",""box2"":""25""}","",NA,5,"round2_ready",2,5,2,NA,NA,NA,NA,NA,NA,NA,NA,NA,NA,NA,NA,NA,NA,90,25,90,25,NA,NA,NA,NA,NA,NA,NA,NA,NA,NA,NA,NA,NA,NA,NA,NA,NA,NA,"",NA,NA,NA,NA,NA,NA,NA,NA,2025-11-21 02:31:26
"40103","https://psyc-201.github.io/xiang2023/exp/index1.html?PROLIFIC_PID=REDACTED&STUDY_ID=691f8ca61c6b4dcbb0aeb5f4&SESSION_ID=691fc7b4a78c49f4d5c350f2","survey-html-form",38,1460492,"0.0-346.0","X7fER69h008fJVTp3IUE8Ki8phoauz+QcmWdLex+mjG96M7X0y/BrVCaT6UDj30oFo9jvxrIkzwAz0A9rKlpogTwtBkVxHOnKZNLcHLAKMbOnNi3x/t4yQZ5Hzi1gt7CwKNAfdQnyjv3NDv+nU4eqKCDrMq0BYnDrgL09UYJWIxLMGsHweez+B7nSDS/sA8pKWhurEUbOH6JjvmdzU0o2W+xuwTdql3cd6eAKDcOey9jIRHJr/ZrkPX/0Bh5aRnyjhxmf94W5sgAp1OEgdRWQgPB50wZBMYK7sbgAB+VlK5/hNHaQWk4a0X6s5nqhnir2P2q1Y0kVTeS4oaW+a9/dQ==","691f8ca61c6b4dcbb0aeb5f4","691fc7b4a78c49f4d5c350f2","index1","<span style='color:red'>Fail,<span style='color:red'>Fail,<span style='color:green'>Lift,<span style='color:green'>Lift,<span style='color:red'>Fail,<span style='color:red'>Fail,<span style='color:red'>Fail,<span style='color:red'>Fail,<span style='color:green'>Lift,<span style='color:red'>Fail,<span style='color:red'>Fail,<span style='color:green'>Lift","<span style='color:red'>Fail,<span style='color:red'>Fail,<span style='color:green'>Lift,<span style='color:green'>Lift,<span style='color:green'>Lift,<span style='color:green'>Lift,<span style='color:red'>Fail,<span style='color:green'>Lift,<span style='color:green'>Lift,<span style='color:green'>Lift,<span style='color:red'>Fail,<span style='color:green'>Lift","<span style='color:red'>Fail,<span style='color:green'>Lift,<span style='color:green'>Lift,<span style='color:red'>Fail,<span style='color:green'>Lift,<span style='color:green'>Lift","0,0,1,1,0,0,0,0,1,0,0,1","0,0,1,1,1,1,0,1,1,1,0,1","0,1,1,0,1,1",10,20,20,"","","","","{""box1"":""5"",""box2"":""4"",""box3"":""100"",""box4"":""100""}","",NA,5,"round2_outcome",3,5,2,5,4,100,100,1,1,20,NA,NA,NA,NA,NA,NA,NA,NA,NA,NA,NA,5,4,100,100,1,1,20,NA,NA,NA,NA,NA,NA,NA,NA,NA,NA,NA,"",NA,NA,NA,NA,NA,NA,NA,NA,2025-11-21 02:31:26
"16902.59999999404","https://psyc-201.github.io/xiang2023/exp/index1.html?PROLIFIC_PID=REDACTED&STUDY_ID=691f8ca61c6b4dcbb0aeb5f4&SESSION_ID=691fc7b4a78c49f4d5c350f2","survey-html-form",39,1477403,"0.0-347.0","X7fER69h008fJVTp3IUE8Ki8phoauz+QcmWdLex+mjG96M7X0y/BrVCaT6UDj30oFo9jvxrIkzwAz0A9rKlpogTwtBkVxHOnKZNLcHLAKMbOnNi3x/t4yQZ5Hzi1gt7CwKNAfdQnyjv3NDv+nU4eqKCDrMq0BYnDrgL09UYJWIxLMGsHweez+B7nSDS/sA8pKWhurEUbOH6JjvmdzU0o2W+xuwTdql3cd6eAKDcOey9jIRHJr/ZrkPX/0Bh5aRnyjhxmf94W5sgAp1OEgdRWQgPB50wZBMYK7sbgAB+VlK5/hNHaQWk4a0X6s5nqhnir2P2q1Y0kVTeS4oaW+a9/dQ==","691f8ca61c6b4dcbb0aeb5f4","691fc7b4a78c49f4d5c350f2","index1","<span style='color:red'>Fail,<span style='color:red'>Fail,<span style='color:green'>Lift,<span style='color:green'>Lift,<span style='color:red'>Fail,<span style='color:red'>Fail,<span style='color:red'>Fail,<span style='color:red'>Fail,<span style='color:green'>Lift,<span style='color:red'>Fail,<span style='color:red'>Fail,<span style='color:green'>Lift","<span style='color:red'>Fail,<span style='color:red'>Fail,<span style='color:green'>Lift,<span style='color:green'>Lift,<span style='color:green'>Lift,<span style='color:green'>Lift,<span style='color:red'>Fail,<span style='color:green'>Lift,<span style='color:green'>Lift,<span style='color:green'>Lift,<span style='color:red'>Fail,<span style='color:green'>Lift","<span style='color:red'>Fail,<span style='color:green'>Lift,<span style='color:green'>Lift,<span style='color:red'>Fail,<span style='color:green'>Lift,<span style='color:green'>Lift","0,0,1,1,0,0,0,0,1,0,0,1","0,0,1,1,1,1,0,1,1,1,0,1","0,1,1,0,1,1",10,20,20,"","","","","{""box1"":""95""}","",NA,5,"round3_ready",4,5,3,NA,NA,NA,NA,NA,NA,NA,NA,NA,NA,NA,NA,NA,NA,95,95,NA,NA,NA,NA,NA,NA,NA,NA,NA,95,95,NA,NA,NA,NA,NA,NA,NA,NA,NA,"",NA,NA,NA,NA,NA,NA,NA,NA,2025-11-21 02:31:26
"29054.79999999702","https://psyc-201.github.io/xiang2023/exp/index1.html?PROLIFIC_PID=REDACTED&STUDY_ID=691f8ca61c6b4dcbb0aeb5f4&SESSION_ID=691fc7b4a78c49f4d5c350f2","survey-html-form",40,1506467,"0.0-348.0-0.0","X7fER69h008fJVTp3IUE8Ki8phoauz+QcmWdLex+mjG96M7X0y/BrVCaT6UDj30oFo9jvxrIkzwAz0A9rKlpogTwtBkVxHOnKZNLcHLAKMbOnNi3x/t4yQZ5Hzi1gt7CwKNAfdQnyjv3NDv+nU4eqKCDrMq0BYnDrgL09UYJWIxLMGsHweez+B7nSDS/sA8pKWhurEUbOH6JjvmdzU0o2W+xuwTdql3cd6eAKDcOey9jIRHJr/ZrkPX/0Bh5aRnyjhxmf94W5sgAp1OEgdRWQgPB50wZBMYK7sbgAB+VlK5/hNHaQWk4a0X6s5nqhnir2P2q1Y0kVTeS4oaW+a9/dQ==","691f8ca61c6b4dcbb0aeb5f4","691fc7b4a78c49f4d5c350f2","index1","<span style='color:red'>Fail,<span style='color:red'>Fail,<span style='color:green'>Lift,<span style='color:green'>Lift,<span style='color:red'>Fail,<span style='color:red'>Fail,<span style='color:red'>Fail,<span style='color:red'>Fail,<span style='color:green'>Lift,<span style='color:red'>Fail,<span style='color:red'>Fail,<span style='color:green'>Lift","<span style='color:red'>Fail,<span style='color:red'>Fail,<span style='color:green'>Lift,<span style='color:green'>Lift,<span style='color:green'>Lift,<span style='color:green'>Lift,<span style='color:red'>Fail,<span style='color:green'>Lift,<span style='color:green'>Lift,<span style='color:green'>Lift,<span style='color:red'>Fail,<span style='color:green'>Lift","<span style='color:red'>Fail,<span style='color:green'>Lift,<span style='color:green'>Lift,<span style='color:red'>Fail,<span style='color:green'>Lift,<span style='color:green'>Lift","0,0,1,1,0,0,0,0,1,0,0,1","0,0,1,1,1,1,0,1,1,1,0,1","0,1,1,0,1,1",10,20,20,"","","","","{""box1"":""5"",""box2"":""4"",""box3"":""100"",""box4"":""100""}","",NA,6,"round3_lift",5,5,3,5,4,100,100,1,1,20,NA,NA,NA,NA,NA,NA,NA,NA,NA,NA,NA,NA,NA,NA,NA,NA,NA,NA,NA,NA,NA,NA,5,4,1,1,20,100,100,"",NA,NA,NA,NA,NA,NA,NA,NA,2025-11-21 02:31:26
"null","https://psyc-201.github.io/xiang2023/exp/index1.html?PROLIFIC_PID=REDACTED&STUDY_ID=691f8ca61c6b4dcbb0aeb5f4&SESSION_ID=691fc7b4a78c49f4d5c350f2","html-keyboard-response",41,1509488,"0.0-352.0","X7fER69h008fJVTp3IUE8Ki8phoauz+QcmWdLex+mjG96M7X0y/BrVCaT6UDj30oFo9jvxrIkzwAz0A9rKlpogTwtBkVxHOnKZNLcHLAKMbOnNi3x/t4yQZ5Hzi1gt7CwKNAfdQnyjv3NDv+nU4eqKCDrMq0BYnDrgL09UYJWIxLMGsHweez+B7nSDS/sA8pKWhurEUbOH6JjvmdzU0o2W+xuwTdql3cd6eAKDcOey9jIRHJr/ZrkPX/0Bh5aRnyjhxmf94W5sgAp1OEgdRWQgPB50wZBMYK7sbgAB+VlK5/hNHaQWk4a0X6s5nqhnir2P2q1Y0kVTeS4oaW+a9/dQ==","691f8ca61c6b4dcbb0aeb5f4","691fc7b4a78c49f4d5c350f2","index1","<span style='color:red'>Fail,<span style='color:red'>Fail,<span style='color:green'>Lift,<span style='color:green'>Lift,<span style='color:red'>Fail,<span style='color:red'>Fail,<span style='color:red'>Fail,<span style='color:red'>Fail,<span style='color:green'>Lift,<span style='color:red'>Fail,<span style='color:red'>Fail,<span style='color:green'>Lift","<span style='color:red'>Fail,<span style='color:red'>Fail,<span style='color:green'>Lift,<span style='color:green'>Lift,<span style='color:green'>Lift,<span style='color:green'>Lift,<span style='color:red'>Fail,<span style='color:green'>Lift,<span style='color:green'>Lift,<span style='color:green'>Lift,<span style='color:red'>Fail,<span style='color:green'>Lift","<span style='color:red'>Fail,<span style='color:green'>Lift,<span style='color:green'>Lift,<span style='color:red'>Fail,<span style='color:green'>Lift,<span style='color:green'>Lift","0,0,1,1,0,0,0,0,1,0,0,1","0,0,1,1,1,1,0,1,1,1,0,1","0,1,1,0,1,1",10,20,20,"","","<p style='font-size:30px'><b> New Contest! </b></p>","null","","",NA,6,"",NA,NA,NA,NA,NA,NA,NA,NA,NA,NA,NA,NA,NA,NA,NA,NA,NA,NA,NA,NA,NA,NA,NA,NA,NA,NA,NA,NA,NA,NA,NA,NA,NA,NA,NA,NA,NA,NA,NA,"",NA,NA,NA,NA,NA,NA,NA,NA,2025-11-21 02:31:26
"22779.5","https://psyc-201.github.io/xiang2023/exp/index1.html?PROLIFIC_PID=REDACTED&STUDY_ID=691f8ca61c6b4dcbb0aeb5f4&SESSION_ID=691fc7b4a78c49f4d5c350f2","survey-html-form",42,1532275,"0.0-353.0","X7fER69h008fJVTp3IUE8Ki8phoauz+QcmWdLex+mjG96M7X0y/BrVCaT6UDj30oFo9jvxrIkzwAz0A9rKlpogTwtBkVxHOnKZNLcHLAKMbOnNi3x/t4yQZ5Hzi1gt7CwKNAfdQnyjv3NDv+nU4eqKCDrMq0BYnDrgL09UYJWIxLMGsHweez+B7nSDS/sA8pKWhurEUbOH6JjvmdzU0o2W+xuwTdql3cd6eAKDcOey9jIRHJr/ZrkPX/0Bh5aRnyjhxmf94W5sgAp1OEgdRWQgPB50wZBMYK7sbgAB+VlK5/hNHaQWk4a0X6s5nqhnir2P2q1Y0kVTeS4oaW+a9/dQ==","691f8ca61c6b4dcbb0aeb5f4","691fc7b4a78c49f4d5c350f2","index1","<span style='color:red'>Fail,<span style='color:red'>Fail,<span style='color:green'>Lift,<span style='color:green'>Lift,<span style='color:red'>Fail,<span style='color:red'>Fail,<span style='color:red'>Fail,<span style='color:red'>Fail,<span style='color:green'>Lift,<span style='color:red'>Fail,<span style='color:red'>Fail,<span style='color:green'>Lift","<span style='color:red'>Fail,<span style='color:red'>Fail,<span style='color:green'>Lift,<span style='color:green'>Lift,<span style='color:green'>Lift,<span style='color:green'>Lift,<span style='color:red'>Fail,<span style='color:green'>Lift,<span style='color:green'>Lift,<span style='color:green'>Lift,<span style='color:red'>Fail,<span style='color:green'>Lift","<span style='color:red'>Fail,<span style='color:green'>Lift,<span style='color:green'>Lift,<span style='color:red'>Fail,<span style='color:green'>Lift,<span style='color:green'>Lift","0,0,1,1,0,0,0,0,1,0,0,1","0,0,1,1,1,1,0,1,1,1,0,1","0,1,1,0,1,1",10,20,20,"","","","","{""box1"":""4"",""box2"":""4""}","",NA,6,"round1_outcome",1,6,1,4,4,NA,NA,0,0,10,4,4,NA,NA,0,0,10,NA,NA,NA,NA,NA,NA,NA,NA,NA,NA,NA,NA,NA,NA,NA,NA,NA,NA,NA,NA,NA,NA,"",NA,NA,NA,NA,NA,NA,NA,NA,2025-11-21 02:31:26
"49952.79999999702","https://psyc-201.github.io/xiang2023/exp/index1.html?PROLIFIC_PID=REDACTED&STUDY_ID=691f8ca61c6b4dcbb0aeb5f4&SESSION_ID=691fc7b4a78c49f4d5c350f2","survey-html-form",43,1582235,"0.0-354.0","X7fER69h008fJVTp3IUE8Ki8phoauz+QcmWdLex+mjG96M7X0y/BrVCaT6UDj30oFo9jvxrIkzwAz0A9rKlpogTwtBkVxHOnKZNLcHLAKMbOnNi3x/t4yQZ5Hzi1gt7CwKNAfdQnyjv3NDv+nU4eqKCDrMq0BYnDrgL09UYJWIxLMGsHweez+B7nSDS/sA8pKWhurEUbOH6JjvmdzU0o2W+xuwTdql3cd6eAKDcOey9jIRHJr/ZrkPX/0Bh5aRnyjhxmf94W5sgAp1OEgdRWQgPB50wZBMYK7sbgAB+VlK5/hNHaQWk4a0X6s5nqhnir2P2q1Y0kVTeS4oaW+a9/dQ==","691f8ca61c6b4dcbb0aeb5f4","691fc7b4a78c49f4d5c350f2","index1","<span style='color:red'>Fail,<span style='color:red'>Fail,<span style='color:green'>Lift,<span style='color:green'>Lift,<span style='color:red'>Fail,<span style='color:red'>Fail,<span style='color:red'>Fail,<span style='color:red'>Fail,<span style='color:green'>Lift,<span style='color:red'>Fail,<span style='color:red'>Fail,<span style='color:green'>Lift","<span style='color:red'>Fail,<span style='color:red'>Fail,<span style='color:green'>Lift,<span style='color:green'>Lift,<span style='color:green'>Lift,<span style='color:green'>Lift,<span style='color:red'>Fail,<span style='color:green'>Lift,<span style='color:green'>Lift,<span style='color:green'>Lift,<span style='color:red'>Fail,<span style='color:green'>Lift","<span style='color:red'>Fail,<span style='color:green'>Lift,<span style='color:green'>Lift,<span style='color:red'>Fail,<span style='color:green'>Lift,<span style='color:green'>Lift","0,0,1,1,0,0,0,0,1,0,0,1","0,0,1,1,1,1,0,1,1,1,0,1","0,1,1,0,1,1",10,20,20,"","","","","{""box1"":""25"",""box2"":""25""}","",NA,6,"round2_ready",2,6,2,NA,NA,NA,NA,NA,NA,NA,NA,NA,NA,NA,NA,NA,NA,25,25,25,25,NA,NA,NA,NA,NA,NA,NA,NA,NA,NA,NA,NA,NA,NA,NA,NA,NA,NA,"",NA,NA,NA,NA,NA,NA,NA,NA,2025-11-21 02:31:26
"57463.79999999702","https://psyc-201.github.io/xiang2023/exp/index1.html?PROLIFIC_PID=REDACTED&STUDY_ID=691f8ca61c6b4dcbb0aeb5f4&SESSION_ID=691fc7b4a78c49f4d5c350f2","survey-html-form",44,1639707,"0.0-355.0","X7fER69h008fJVTp3IUE8Ki8phoauz+QcmWdLex+mjG96M7X0y/BrVCaT6UDj30oFo9jvxrIkzwAz0A9rKlpogTwtBkVxHOnKZNLcHLAKMbOnNi3x/t4yQZ5Hzi1gt7CwKNAfdQnyjv3NDv+nU4eqKCDrMq0BYnDrgL09UYJWIxLMGsHweez+B7nSDS/sA8pKWhurEUbOH6JjvmdzU0o2W+xuwTdql3cd6eAKDcOey9jIRHJr/ZrkPX/0Bh5aRnyjhxmf94W5sgAp1OEgdRWQgPB50wZBMYK7sbgAB+VlK5/hNHaQWk4a0X6s5nqhnir2P2q1Y0kVTeS4oaW+a9/dQ==","691f8ca61c6b4dcbb0aeb5f4","691fc7b4a78c49f4d5c350f2","index1","<span style='color:red'>Fail,<span style='color:red'>Fail,<span style='color:green'>Lift,<span style='color:green'>Lift,<span style='color:red'>Fail,<span style='color:red'>Fail,<span style='color:red'>Fail,<span style='color:red'>Fail,<span style='color:green'>Lift,<span style='color:red'>Fail,<span style='color:red'>Fail,<span style='color:green'>Lift","<span style='color:red'>Fail,<span style='color:red'>Fail,<span style='color:green'>Lift,<span style='color:green'>Lift,<span style='color:green'>Lift,<span style='color:green'>Lift,<span style='color:red'>Fail,<span style='color:green'>Lift,<span style='color:green'>Lift,<span style='color:green'>Lift,<span style='color:red'>Fail,<span style='color:green'>Lift","<span style='color:red'>Fail,<span style='color:green'>Lift,<span style='color:green'>Lift,<span style='color:red'>Fail,<span style='color:green'>Lift,<span style='color:green'>Lift","0,0,1,1,0,0,0,0,1,0,0,1","0,0,1,1,1,1,0,1,1,1,0,1","0,1,1,0,1,1",10,20,20,"","","","","{""box1"":""4"",""box2"":""5"",""box4"":""100""}","",NA,6,"round2_outcome",3,6,2,4,5,NA,100,0,1,20,NA,NA,NA,NA,NA,NA,NA,NA,NA,NA,NA,4,5,NA,100,0,1,20,NA,NA,NA,NA,NA,NA,NA,NA,NA,NA,NA,"",NA,NA,NA,NA,NA,NA,NA,NA,2025-11-21 02:31:26
"22570.5","https://psyc-201.github.io/xiang2023/exp/index1.html?PROLIFIC_PID=REDACTED&STUDY_ID=691f8ca61c6b4dcbb0aeb5f4&SESSION_ID=691fc7b4a78c49f4d5c350f2","survey-html-form",45,1662285,"0.0-356.0","X7fER69h008fJVTp3IUE8Ki8phoauz+QcmWdLex+mjG96M7X0y/BrVCaT6UDj30oFo9jvxrIkzwAz0A9rKlpogTwtBkVxHOnKZNLcHLAKMbOnNi3x/t4yQZ5Hzi1gt7CwKNAfdQnyjv3NDv+nU4eqKCDrMq0BYnDrgL09UYJWIxLMGsHweez+B7nSDS/sA8pKWhurEUbOH6JjvmdzU0o2W+xuwTdql3cd6eAKDcOey9jIRHJr/ZrkPX/0Bh5aRnyjhxmf94W5sgAp1OEgdRWQgPB50wZBMYK7sbgAB+VlK5/hNHaQWk4a0X6s5nqhnir2P2q1Y0kVTeS4oaW+a9/dQ==","691f8ca61c6b4dcbb0aeb5f4","691fc7b4a78c49f4d5c350f2","index1","<span style='color:red'>Fail,<span style='color:red'>Fail,<span style='color:green'>Lift,<span style='color:green'>Lift,<span style='color:red'>Fail,<span style='color:red'>Fail,<span style='color:red'>Fail,<span style='color:red'>Fail,<span style='color:green'>Lift,<span style='color:red'>Fail,<span style='color:red'>Fail,<span style='color:green'>Lift","<span style='color:red'>Fail,<span style='color:red'>Fail,<span style='color:green'>Lift,<span style='color:green'>Lift,<span style='color:green'>Lift,<span style='color:green'>Lift,<span style='color:red'>Fail,<span style='color:green'>Lift,<span style='color:green'>Lift,<span style='color:green'>Lift,<span style='color:red'>Fail,<span style='color:green'>Lift","<span style='color:red'>Fail,<span style='color:green'>Lift,<span style='color:green'>Lift,<span style='color:red'>Fail,<span style='color:green'>Lift,<span style='color:green'>Lift","0,0,1,1,0,0,0,0,1,0,0,1","0,0,1,1,1,1,0,1,1,1,0,1","0,1,1,0,1,1",10,20,20,"","","","","{""box1"":""10""}","",NA,6,"round3_ready",4,6,3,NA,NA,NA,NA,NA,NA,NA,NA,NA,NA,NA,NA,NA,NA,10,10,NA,NA,NA,NA,NA,NA,NA,NA,NA,10,10,NA,NA,NA,NA,NA,NA,NA,NA,NA,"",NA,NA,NA,NA,NA,NA,NA,NA,2025-11-21 02:31:26
"32264.40000000596","https://psyc-201.github.io/xiang2023/exp/index1.html?PROLIFIC_PID=REDACTED&STUDY_ID=691f8ca61c6b4dcbb0aeb5f4&SESSION_ID=691fc7b4a78c49f4d5c350f2","survey-html-form",46,1694555,"0.0-358.0-0.0","X7fER69h008fJVTp3IUE8Ki8phoauz+QcmWdLex+mjG96M7X0y/BrVCaT6UDj30oFo9jvxrIkzwAz0A9rKlpogTwtBkVxHOnKZNLcHLAKMbOnNi3x/t4yQZ5Hzi1gt7CwKNAfdQnyjv3NDv+nU4eqKCDrMq0BYnDrgL09UYJWIxLMGsHweez+B7nSDS/sA8pKWhurEUbOH6JjvmdzU0o2W+xuwTdql3cd6eAKDcOey9jIRHJr/ZrkPX/0Bh5aRnyjhxmf94W5sgAp1OEgdRWQgPB50wZBMYK7sbgAB+VlK5/hNHaQWk4a0X6s5nqhnir2P2q1Y0kVTeS4oaW+a9/dQ==","691f8ca61c6b4dcbb0aeb5f4","691fc7b4a78c49f4d5c350f2","index1","<span style='color:red'>Fail,<span style='color:red'>Fail,<span style='color:green'>Lift,<span style='color:green'>Lift,<span style='color:red'>Fail,<span style='color:red'>Fail,<span style='color:red'>Fail,<span style='color:red'>Fail,<span style='color:green'>Lift,<span style='color:red'>Fail,<span style='color:red'>Fail,<span style='color:green'>Lift","<span style='color:red'>Fail,<span style='color:red'>Fail,<span style='color:green'>Lift,<span style='color:green'>Lift,<span style='color:green'>Lift,<span style='color:green'>Lift,<span style='color:red'>Fail,<span style='color:green'>Lift,<span style='color:green'>Lift,<span style='color:green'>Lift,<span style='color:red'>Fail,<span style='color:green'>Lift","<span style='color:red'>Fail,<span style='color:green'>Lift,<span style='color:green'>Lift,<span style='color:red'>Fail,<span style='color:green'>Lift,<span style='color:green'>Lift","0,0,1,1,0,0,0,0,1,0,0,1","0,0,1,1,1,1,0,1,1,1,0,1","0,1,1,0,1,1",10,20,20,"","","","","{""box1"":""4"",""box2"":""5"",""box3"":""999"",""box4"":""999""}","",NA,6,"round3_fail",5,6,3,4,5,NA,NA,0,0,20,NA,NA,NA,NA,NA,NA,NA,NA,NA,NA,NA,NA,NA,NA,NA,NA,NA,NA,NA,NA,1,1,4,5,0,0,20,NA,NA,"",NA,NA,NA,NA,NA,NA,NA,NA,2025-11-21 02:31:26
"82531.39999999106","https://psyc-201.github.io/xiang2023/exp/index1.html?PROLIFIC_PID=REDACTED&STUDY_ID=691f8ca61c6b4dcbb0aeb5f4&SESSION_ID=691fc7b4a78c49f4d5c350f2","survey-text",47,1777106,"0.0-361.0","X7fER69h008fJVTp3IUE8Ki8phoauz+QcmWdLex+mjG96M7X0y/BrVCaT6UDj30oFo9jvxrIkzwAz0A9rKlpogTwtBkVxHOnKZNLcHLAKMbOnNi3x/t4yQZ5Hzi1gt7CwKNAfdQnyjv3NDv+nU4eqKCDrMq0BYnDrgL09UYJWIxLMGsHweez+B7nSDS/sA8pKWhurEUbOH6JjvmdzU0o2W+xuwTdql3cd6eAKDcOey9jIRHJr/ZrkPX/0Bh5aRnyjhxmf94W5sgAp1OEgdRWQgPB50wZBMYK7sbgAB+VlK5/hNHaQWk4a0X6s5nqhnir2P2q1Y0kVTeS4oaW+a9/dQ==","691f8ca61c6b4dcbb0aeb5f4","691fc7b4a78c49f4d5c350f2","index1","<span style='color:red'>Fail,<span style='color:red'>Fail,<span style='color:green'>Lift,<span style='color:green'>Lift,<span style='color:red'>Fail,<span style='color:red'>Fail,<span style='color:red'>Fail,<span style='color:red'>Fail,<span style='color:green'>Lift,<span style='color:red'>Fail,<span style='color:red'>Fail,<span style='color:green'>Lift","<span style='color:red'>Fail,<span style='color:red'>Fail,<span style='color:green'>Lift,<span style='color:green'>Lift,<span style='color:green'>Lift,<span style='color:green'>Lift,<span style='color:red'>Fail,<span style='color:green'>Lift,<span style='color:green'>Lift,<span style='color:green'>Lift,<span style='color:red'>Fail,<span style='color:green'>Lift","<span style='color:red'>Fail,<span style='color:green'>Lift,<span style='color:green'>Lift,<span style='color:red'>Fail,<span style='color:green'>Lift,<span style='color:green'>Lift","0,0,1,1,0,0,0,0,1,0,0,1","0,0,1,1,1,1,0,1,1,1,0,1","0,1,1,0,1,1",10,20,20,"","","","","{""Q0"":""I evaluated multiple rounds of the game show Lift That Box! by estimating each contestants strength and effort based on their success or failure, and predicted the likelihood of them lifting the box individually and together. I also completed attention checks where required.""}","",NA,NA,"",NA,NA,NA,NA,NA,NA,NA,NA,NA,NA,NA,NA,NA,NA,NA,NA,NA,NA,NA,NA,NA,NA,NA,NA,NA,NA,NA,NA,NA,NA,NA,NA,NA,NA,NA,NA,NA,NA,NA,"",NA,NA,NA,NA,NA,NA,NA,NA,2025-11-21 02:31:26
"6940.70000000298","https://psyc-201.github.io/xiang2023/exp/index1.html?PROLIFIC_PID=REDACTED&STUDY_ID=691f8ca61c6b4dcbb0aeb5f4&SESSION_ID=691fc7b4a78c49f4d5c350f2","survey-text",48,1784055,"0.0-362.0","X7fER69h008fJVTp3IUE8Ki8phoauz+QcmWdLex+mjG96M7X0y/BrVCaT6UDj30oFo9jvxrIkzwAz0A9rKlpogTwtBkVxHOnKZNLcHLAKMbOnNi3x/t4yQZ5Hzi1gt7CwKNAfdQnyjv3NDv+nU4eqKCDrMq0BYnDrgL09UYJWIxLMGsHweez+B7nSDS/sA8pKWhurEUbOH6JjvmdzU0o2W+xuwTdql3cd6eAKDcOey9jIRHJr/ZrkPX/0Bh5aRnyjhxmf94W5sgAp1OEgdRWQgPB50wZBMYK7sbgAB+VlK5/hNHaQWk4a0X6s5nqhnir2P2q1Y0kVTeS4oaW+a9/dQ==","691f8ca61c6b4dcbb0aeb5f4","691fc7b4a78c49f4d5c350f2","index1","<span style='color:red'>Fail,<span style='color:red'>Fail,<span style='color:green'>Lift,<span style='color:green'>Lift,<span style='color:red'>Fail,<span style='color:red'>Fail,<span style='color:red'>Fail,<span style='color:red'>Fail,<span style='color:green'>Lift,<span style='color:red'>Fail,<span style='color:red'>Fail,<span style='color:green'>Lift","<span style='color:red'>Fail,<span style='color:red'>Fail,<span style='color:green'>Lift,<span style='color:green'>Lift,<span style='color:green'>Lift,<span style='color:green'>Lift,<span style='color:red'>Fail,<span style='color:green'>Lift,<span style='color:green'>Lift,<span style='color:green'>Lift,<span style='color:red'>Fail,<span style='color:green'>Lift","<span style='color:red'>Fail,<span style='color:green'>Lift,<span style='color:green'>Lift,<span style='color:red'>Fail,<span style='color:green'>Lift,<span style='color:green'>Lift","0,0,1,1,0,0,0,0,1,0,0,1","0,0,1,1,1,1,0,1,1,1,0,1","0,1,1,0,1,1",10,20,20,"","","","","{""Q0"":""""}","",NA,NA,"",NA,NA,NA,NA,NA,NA,NA,NA,NA,NA,NA,NA,NA,NA,NA,NA,NA,NA,NA,NA,NA,NA,NA,NA,NA,NA,NA,NA,NA,NA,NA,NA,NA,NA,NA,NA,NA,NA,NA,"[{""event"":""fullscreenenter"",""trial"":1,""time"":11394},{""event"":""fullscreenexit"",""trial"":6,""time"":529189},{""event"":""blur"",""trial"":6,""time"":537170},{""event"":""focus"",""trial"":6,""time"":538136},{""event"":""blur"",""trial"":6,""time"":543341},{""event"":""focus"",""trial"":6,""time"":547189},{""event"":""blur"",""trial"":6,""time"":552367},{""event"":""focus"",""trial"":6,""time"":554388},{""event"":""blur"",""trial"":6,""time"":561106},{""event"":""focus"",""trial"":6,""time"":564786},{""event"":""blur"",""trial"":6,""time"":572063},{""event"":""focus"",""trial"":6,""time"":575791},{""event"":""blur"",""trial"":6,""time"":584913},{""event"":""focus"",""trial"":6,""time"":589739},{""event"":""blur"",""trial"":6,""time"":597447},{""event"":""focus"",""trial"":6,""time"":600695},{""event"":""blur"",""trial"":6,""time"":609690},{""event"":""focus"",""trial"":6,""time"":617707},{""event"":""blur"",""trial"":8,""time"":633385},{""event"":""focus"",""trial"":8,""time"":637275},{""event"":""blur"",""trial"":8,""time"":640149},{""event"":""focus"",""trial"":8,""time"":653565},{""event"":""blur"",""trial"":13,""time"":747114},{""event"":""focus"",""trial"":13,""time"":751826},{""event"":""blur"",""trial"":14,""time"":781499},{""event"":""focus"",""trial"":14,""time"":785410},{""event"":""blur"",""trial"":15,""time"":806187},{""event"":""focus"",""trial"":15,""time"":814340},{""event"":""blur"",""trial"":16,""time"":843014},{""event"":""focus"",""trial"":16,""time"":853195},{""event"":""blur"",""trial"":18,""time"":890155},{""event"":""focus"",""trial"":18,""time"":894035},{""event"":""blur"",""trial"":19,""time"":912834},{""event"":""focus"",""trial"":19,""time"":918481},{""event"":""blur"",""trial"":20,""time"":934851},{""event"":""focus"",""trial"":20,""time"":939618},{""event"":""blur"",""trial"":21,""time"":966849},{""event"":""focus"",""trial"":21,""time"":972072},{""event"":""blur"",""trial"":22,""time"":990003},{""event"":""focus"",""trial"":22,""time"":994134},{""event"":""blur"",""trial"":24,""time"":1020506},{""event"":""focus"",""trial"":24,""time"":1024822},{""event"":""blur"",""trial"":25,""time"":1052623},{""event"":""focus"",""trial"":25,""time"":1056549},{""event"":""blur"",""trial"":26,""time"":1074311},{""event"":""focus"",""trial"":26,""time"":1078499},{""event"":""blur"",""trial"":27,""time"":1101526},{""event"":""focus"",""trial"":27,""time"":1105798},{""event"":""blur"",""trial"":28,""time"":1118444},{""event"":""focus"",""trial"":28,""time"":1122794},{""event"":""blur"",""trial"":30,""time"":1165681},{""event"":""focus"",""trial"":30,""time"":1184495},{""event"":""blur"",""trial"":30,""time"":1205903},{""event"":""focus"",""trial"":30,""time"":1217604},{""event"":""blur"",""trial"":31,""time"":1228368},{""event"":""focus"",""trial"":31,""time"":1231352},{""event"":""blur"",""trial"":32,""time"":1264530},{""event"":""focus"",""trial"":32,""time"":1268895},{""event"":""blur"",""trial"":33,""time"":1326367},{""event"":""focus"",""trial"":33,""time"":1331865},{""event"":""blur"",""trial"":34,""time"":1343633},{""event"":""focus"",""trial"":34,""time"":1347814},{""event"":""blur"",""trial"":36,""time"":1373839},{""event"":""focus"",""trial"":36,""time"":1375811},{""event"":""blur"",""trial"":36,""time"":1380969},{""event"":""focus"",""trial"":36,""time"":1384633},{""event"":""blur"",""trial"":37,""time"":1401952},{""event"":""focus"",""trial"":37,""time"":1406693},{""event"":""blur"",""trial"":38,""time"":1430320},{""event"":""focus"",""trial"":38,""time"":1444453},{""event"":""blur"",""trial"":39,""time"":1465634},{""event"":""focus"",""trial"":39,""time"":1468859},{""event"":""blur"",""trial"":40,""time"":1483780},{""event"":""focus"",""trial"":40,""time"":1487401},{""event"":""blur"",""trial"":42,""time"":1514973},{""event"":""focus"",""trial"":42,""time"":1516353},{""event"":""blur"",""trial"":42,""time"":1518686},{""event"":""focus"",""trial"":42,""time"":1520008},{""event"":""blur"",""trial"":43,""time"":1540984},{""event"":""focus"",""trial"":43,""time"":1566670},{""event"":""blur"",""trial"":43,""time"":1569130},{""event"":""focus"",""trial"":43,""time"":1573762},{""event"":""blur"",""trial"":44,""time"":1592610},{""event"":""focus"",""trial"":44,""time"":1598649},{""event"":""blur"",""trial"":45,""time"":1646079},{""event"":""focus"",""trial"":45,""time"":1650240},{""event"":""blur"",""trial"":46,""time"":1669638},{""event"":""focus"",""trial"":46,""time"":1674991},{""event"":""blur"",""trial"":47,""time"":1709669},{""event"":""focus"",""trial"":47,""time"":1746322},{""event"":""blur"",""trial"":47,""time"":1750609},{""event"":""focus"",""trial"":47,""time"":1763944}]",5,2,1,25,1,0.25,NA,NA,2025-11-21 02:31:26
"5748.899999991059","https://psyc-201.github.io/xiang2023/exp/index1.html?PROLIFIC_PID=REDACTED&STUDY_ID=691f8ca61c6b4dcbb0aeb5f4&SESSION_ID=691fc7b4a78c49f4d5c350f2","html-button-response",49,1789809,"0.0-363.0","X7fER69h008fJVTp3IUE8Ki8phoauz+QcmWdLex+mjG96M7X0y/BrVCaT6UDj30oFo9jvxrIkzwAz0A9rKlpogTwtBkVxHOnKZNLcHLAKMbOnNi3x/t4yQZ5Hzi1gt7CwKNAfdQnyjv3NDv+nU4eqKCDrMq0BYnDrgL09UYJWIxLMGsHweez+B7nSDS/sA8pKWhurEUbOH6JjvmdzU0o2W+xuwTdql3cd6eAKDcOey9jIRHJr/ZrkPX/0Bh5aRnyjhxmf94W5sgAp1OEgdRWQgPB50wZBMYK7sbgAB+VlK5/hNHaQWk4a0X6s5nqhnir2P2q1Y0kVTeS4oaW+a9/dQ==","691f8ca61c6b4dcbb0aeb5f4","691fc7b4a78c49f4d5c350f2","index1","<span style='color:red'>Fail,<span style='color:red'>Fail,<span style='color:green'>Lift,<span style='color:green'>Lift,<span style='color:red'>Fail,<span style='color:red'>Fail,<span style='color:red'>Fail,<span style='color:red'>Fail,<span style='color:green'>Lift,<span style='color:red'>Fail,<span style='color:red'>Fail,<span style='color:green'>Lift","<span style='color:red'>Fail,<span style='color:red'>Fail,<span style='color:green'>Lift,<span style='color:green'>Lift,<span style='color:green'>Lift,<span style='color:green'>Lift,<span style='color:red'>Fail,<span style='color:green'>Lift,<span style='color:green'>Lift,<span style='color:green'>Lift,<span style='color:red'>Fail,<span style='color:green'>Lift","<span style='color:red'>Fail,<span style='color:green'>Lift,<span style='color:green'>Lift,<span style='color:red'>Fail,<span style='color:green'>Lift,<span style='color:green'>Lift","0,0,1,1,0,0,0,0,1,0,0,1","0,0,1,1,1,1,0,1,1,1,0,1","0,1,1,0,1,1",10,20,20,"","","<p> We randomly picked <b>Contest 5, Round 2</b> to calculate your bonus. </p><p> The outcome of Contestant J on that round is <span style='color:green'>Lift</span>. </p><p> The probability you entered was 25. </p><p><b> You won a bonus of $0.25!</b></p><p> IMPORTANT: Please click 'Next' to complete the game.</p>","","","",0,NA,"",NA,NA,NA,NA,NA,NA,NA,NA,NA,NA,NA,NA,NA,NA,NA,NA,NA,NA,NA,NA,NA,NA,NA,NA,NA,NA,NA,NA,NA,NA,NA,NA,NA,NA,NA,NA,NA,NA,NA,"",NA,NA,NA,NA,NA,NA,2,1,2025-11-21 02:31:26
