"rt","url","trial_type","trial_index","time_elapsed","internal_node_id","encryptedProlificId","studyId","sessionId","expIndex","round1_outcomes","round2_outcomes","round3_outcomes","round1_o","round2_o","round3_o","round1_reward","round2_reward","round3_reward","success","view_history","stimulus","key_press","responses","question_order","j","Stage","stage","contest","round","strength_a","strength_b","effort_a","effort_b","outcome_a","outcome_b","reward","r1_strength_a","r1_strength_b","r1_effort_a","r1_effort_b","r1_outcome_a","r1_outcome_b","r1_reward","probability_a","probability_b","r2_prob_a","r2_prob_b","r2_strength_a","r2_strength_b","r2_effort_a","r2_effort_b","r2_outcome_a","r2_outcome_b","r2_reward","r3_prob_a","r3_prob_b","r3_strength_a","r3_strength_b","r3_effort_a","r3_effort_b","r3_outcome_a","r3_outcome_b","r3_reward","attention_check","count","screen","pick_contest","pick_round","pick_side","trial_probability","trial_outcome","bonus","button_pressed","attention_sum","attention","datapipe_meta.attributes.date_modified"
"35552.39999999851","https://psyc-201.github.io/xiang2023/exp/index1.html?PROLIFIC_PID=REDACTED&STUDY_ID=691f8ca61c6b4dcbb0aeb5f4&SESSION_ID=691fad63036a95890bb36fd2","external-html",0,35595,"0.0-0.0","X7LjFnQPQeOjm+ygDEK/z8ZL+rsCWYfh8BWnMwpN+q5YaTeoHUhwRJCiUzNomOh6hg6LL0V8fVtJY2L3uDZui1yNSFq1mP3MWUydqUe07oKUDGKRdkriZ7Q5OzBwzKJTA80TPcQY6INF5poZMgHCTxKfdBDvvyChzBoKxc3UF15qxL69wShl98lGs8kKGdcH+OLWHP6x5dql4y5LPXMh+/o56au1DiiISnjdUoY8w6sxXtSLLupSMcPiG7XSlA0CqZCCklU7wmTWTSZGEdUNgOFJ1NXLBp/imR+5vIVfMVaq/tR5/y1RBxCAca1rxW23ZF6LhSwKAmzndD+RvxEb7A==","691f8ca61c6b4dcbb0aeb5f4","691fad63036a95890bb36fd2","index1","<span style='color:red'>Fail,<span style='color:red'>Fail,<span style='color:green'>Lift,<span style='color:green'>Lift,<span style='color:red'>Fail,<span style='color:red'>Fail,<span style='color:red'>Fail,<span style='color:red'>Fail,<span style='color:red'>Fail,<span style='color:green'>Lift,<span style='color:red'>Fail,<span style='color:green'>Lift","<span style='color:red'>Fail,<span style='color:red'>Fail,<span style='color:green'>Lift,<span style='color:green'>Lift,<span style='color:green'>Lift,<span style='color:green'>Lift,<span style='color:green'>Lift,<span style='color:red'>Fail,<span style='color:green'>Lift,<span style='color:green'>Lift,<span style='color:red'>Fail,<span style='color:green'>Lift","<span style='color:red'>Fail,<span style='color:green'>Lift,<span style='color:green'>Lift,<span style='color:red'>Fail,<span style='color:green'>Lift,<span style='color:green'>Lift","0,0,1,1,0,0,0,0,0,1,0,1","0,0,1,1,1,1,1,0,1,1,0,1","0,1,1,0,1,1",10,20,20,"","","","","","",NA,"",NA,NA,NA,NA,NA,NA,NA,NA,NA,NA,NA,NA,NA,NA,NA,NA,NA,NA,NA,NA,NA,NA,NA,NA,NA,NA,NA,NA,NA,NA,NA,NA,NA,NA,NA,NA,NA,NA,NA,"",NA,NA,NA,NA,NA,NA,NA,NA,NA,2025-11-21 00:26:24
"","https://psyc-201.github.io/xiang2023/exp/index1.html?PROLIFIC_PID=REDACTED&STUDY_ID=691f8ca61c6b4dcbb0aeb5f4&SESSION_ID=691fad63036a95890bb36fd2","fullscreen",1,49689,"0.0-1.0","X7LjFnQPQeOjm+ygDEK/z8ZL+rsCWYfh8BWnMwpN+q5YaTeoHUhwRJCiUzNomOh6hg6LL0V8fVtJY2L3uDZui1yNSFq1mP3MWUydqUe07oKUDGKRdkriZ7Q5OzBwzKJTA80TPcQY6INF5poZMgHCTxKfdBDvvyChzBoKxc3UF15qxL69wShl98lGs8kKGdcH+OLWHP6x5dql4y5LPXMh+/o56au1DiiISnjdUoY8w6sxXtSLLupSMcPiG7XSlA0CqZCCklU7wmTWTSZGEdUNgOFJ1NXLBp/imR+5vIVfMVaq/tR5/y1RBxCAca1rxW23ZF6LhSwKAmzndD+RvxEb7A==","691f8ca61c6b4dcbb0aeb5f4","691fad63036a95890bb36fd2","index1","<span style='color:red'>Fail,<span style='color:red'>Fail,<span style='color:green'>Lift,<span style='color:green'>Lift,<span style='color:red'>Fail,<span style='color:red'>Fail,<span style='color:red'>Fail,<span style='color:red'>Fail,<span style='color:red'>Fail,<span style='color:green'>Lift,<span style='color:red'>Fail,<span style='color:green'>Lift","<span style='color:red'>Fail,<span style='color:red'>Fail,<span style='color:green'>Lift,<span style='color:green'>Lift,<span style='color:green'>Lift,<span style='color:green'>Lift,<span style='color:green'>Lift,<span style='color:red'>Fail,<span style='color:green'>Lift,<span style='color:green'>Lift,<span style='color:red'>Fail,<span style='color:green'>Lift","<span style='color:red'>Fail,<span style='color:green'>Lift,<span style='color:green'>Lift,<span style='color:red'>Fail,<span style='color:green'>Lift,<span style='color:green'>Lift","0,0,1,1,0,0,0,0,0,1,0,1","0,0,1,1,1,1,1,0,1,1,0,1","0,1,1,0,1,1",10,20,20,"true","","","","","",NA,"",NA,NA,NA,NA,NA,NA,NA,NA,NA,NA,NA,NA,NA,NA,NA,NA,NA,NA,NA,NA,NA,NA,NA,NA,NA,NA,NA,NA,NA,NA,NA,NA,NA,NA,NA,NA,NA,NA,NA,"",NA,NA,NA,NA,NA,NA,NA,NA,NA,2025-11-21 00:26:24
"172239.90000000224","https://psyc-201.github.io/xiang2023/exp/index1.html?PROLIFIC_PID=REDACTED&STUDY_ID=691f8ca61c6b4dcbb0aeb5f4&SESSION_ID=691fad63036a95890bb36fd2","instructions",2,221930,"0.0-2.0","X7LjFnQPQeOjm+ygDEK/z8ZL+rsCWYfh8BWnMwpN+q5YaTeoHUhwRJCiUzNomOh6hg6LL0V8fVtJY2L3uDZui1yNSFq1mP3MWUydqUe07oKUDGKRdkriZ7Q5OzBwzKJTA80TPcQY6INF5poZMgHCTxKfdBDvvyChzBoKxc3UF15qxL69wShl98lGs8kKGdcH+OLWHP6x5dql4y5LPXMh+/o56au1DiiISnjdUoY8w6sxXtSLLupSMcPiG7XSlA0CqZCCklU7wmTWTSZGEdUNgOFJ1NXLBp/imR+5vIVfMVaq/tR5/y1RBxCAca1rxW23ZF6LhSwKAmzndD+RvxEb7A==","691f8ca61c6b4dcbb0aeb5f4","691fad63036a95890bb36fd2","index1","<span style='color:red'>Fail,<span style='color:red'>Fail,<span style='color:green'>Lift,<span style='color:green'>Lift,<span style='color:red'>Fail,<span style='color:red'>Fail,<span style='color:red'>Fail,<span style='color:red'>Fail,<span style='color:red'>Fail,<span style='color:green'>Lift,<span style='color:red'>Fail,<span style='color:green'>Lift","<span style='color:red'>Fail,<span style='color:red'>Fail,<span style='color:green'>Lift,<span style='color:green'>Lift,<span style='color:green'>Lift,<span style='color:green'>Lift,<span style='color:green'>Lift,<span style='color:red'>Fail,<span style='color:green'>Lift,<span style='color:green'>Lift,<span style='color:red'>Fail,<span style='color:green'>Lift","<span style='color:red'>Fail,<span style='color:green'>Lift,<span style='color:green'>Lift,<span style='color:red'>Fail,<span style='color:green'>Lift,<span style='color:green'>Lift","0,0,1,1,0,0,0,0,0,1,0,1","0,0,1,1,1,1,1,0,1,1,0,1","0,1,1,0,1,1",10,20,20,"","[{""page_index"":0,""viewing_time"":34545.800000000745},{""page_index"":1,""viewing_time"":21323.39999999851},{""page_index"":2,""viewing_time"":18849.60000000149},{""page_index"":3,""viewing_time"":46664.800000000745},{""page_index"":4,""viewing_time"":15355},{""page_index"":5,""viewing_time"":27549.099999997765},{""page_index"":6,""viewing_time"":7952}]","","","","",NA,"",NA,NA,NA,NA,NA,NA,NA,NA,NA,NA,NA,NA,NA,NA,NA,NA,NA,NA,NA,NA,NA,NA,NA,NA,NA,NA,NA,NA,NA,NA,NA,NA,NA,NA,NA,NA,NA,NA,NA,"",NA,NA,NA,NA,NA,NA,NA,NA,NA,2025-11-21 00:26:24
"null","https://psyc-201.github.io/xiang2023/exp/index1.html?PROLIFIC_PID=REDACTED&STUDY_ID=691f8ca61c6b4dcbb0aeb5f4&SESSION_ID=691fad63036a95890bb36fd2","html-keyboard-response",3,222936,"0.0-3.0","X7LjFnQPQeOjm+ygDEK/z8ZL+rsCWYfh8BWnMwpN+q5YaTeoHUhwRJCiUzNomOh6hg6LL0V8fVtJY2L3uDZui1yNSFq1mP3MWUydqUe07oKUDGKRdkriZ7Q5OzBwzKJTA80TPcQY6INF5poZMgHCTxKfdBDvvyChzBoKxc3UF15qxL69wShl98lGs8kKGdcH+OLWHP6x5dql4y5LPXMh+/o56au1DiiISnjdUoY8w6sxXtSLLupSMcPiG7XSlA0CqZCCklU7wmTWTSZGEdUNgOFJ1NXLBp/imR+5vIVfMVaq/tR5/y1RBxCAca1rxW23ZF6LhSwKAmzndD+RvxEb7A==","691f8ca61c6b4dcbb0aeb5f4","691fad63036a95890bb36fd2","index1","<span style='color:red'>Fail,<span style='color:red'>Fail,<span style='color:green'>Lift,<span style='color:green'>Lift,<span style='color:red'>Fail,<span style='color:red'>Fail,<span style='color:red'>Fail,<span style='color:red'>Fail,<span style='color:red'>Fail,<span style='color:green'>Lift,<span style='color:red'>Fail,<span style='color:green'>Lift","<span style='color:red'>Fail,<span style='color:red'>Fail,<span style='color:green'>Lift,<span style='color:green'>Lift,<span style='color:green'>Lift,<span style='color:green'>Lift,<span style='color:green'>Lift,<span style='color:red'>Fail,<span style='color:green'>Lift,<span style='color:green'>Lift,<span style='color:red'>Fail,<span style='color:green'>Lift","<span style='color:red'>Fail,<span style='color:green'>Lift,<span style='color:green'>Lift,<span style='color:red'>Fail,<span style='color:green'>Lift,<span style='color:green'>Lift","0,0,1,1,0,0,0,0,0,1,0,1","0,0,1,1,1,1,1,0,1,1,0,1","0,1,1,0,1,1",10,20,20,"",""," ","null","","",NA,"",NA,NA,NA,NA,NA,NA,NA,NA,NA,NA,NA,NA,NA,NA,NA,NA,NA,NA,NA,NA,NA,NA,NA,NA,NA,NA,NA,NA,NA,NA,NA,NA,NA,NA,NA,NA,NA,NA,NA,"",NA,NA,NA,NA,NA,NA,NA,NA,NA,2025-11-21 00:26:24
"40508.800000000745","https://psyc-201.github.io/xiang2023/exp/index1.html?PROLIFIC_PID=REDACTED&STUDY_ID=691f8ca61c6b4dcbb0aeb5f4&SESSION_ID=691fad63036a95890bb36fd2","survey-multi-choice",4,263446,"0.0-4.0","X7LjFnQPQeOjm+ygDEK/z8ZL+rsCWYfh8BWnMwpN+q5YaTeoHUhwRJCiUzNomOh6hg6LL0V8fVtJY2L3uDZui1yNSFq1mP3MWUydqUe07oKUDGKRdkriZ7Q5OzBwzKJTA80TPcQY6INF5poZMgHCTxKfdBDvvyChzBoKxc3UF15qxL69wShl98lGs8kKGdcH+OLWHP6x5dql4y5LPXMh+/o56au1DiiISnjdUoY8w6sxXtSLLupSMcPiG7XSlA0CqZCCklU7wmTWTSZGEdUNgOFJ1NXLBp/imR+5vIVfMVaq/tR5/y1RBxCAca1rxW23ZF6LhSwKAmzndD+RvxEb7A==","691f8ca61c6b4dcbb0aeb5f4","691fad63036a95890bb36fd2","index1","<span style='color:red'>Fail,<span style='color:red'>Fail,<span style='color:green'>Lift,<span style='color:green'>Lift,<span style='color:red'>Fail,<span style='color:red'>Fail,<span style='color:red'>Fail,<span style='color:red'>Fail,<span style='color:red'>Fail,<span style='color:green'>Lift,<span style='color:red'>Fail,<span style='color:green'>Lift","<span style='color:red'>Fail,<span style='color:red'>Fail,<span style='color:green'>Lift,<span style='color:green'>Lift,<span style='color:green'>Lift,<span style='color:green'>Lift,<span style='color:green'>Lift,<span style='color:red'>Fail,<span style='color:green'>Lift,<span style='color:green'>Lift,<span style='color:red'>Fail,<span style='color:green'>Lift","<span style='color:red'>Fail,<span style='color:green'>Lift,<span style='color:green'>Lift,<span style='color:red'>Fail,<span style='color:green'>Lift,<span style='color:green'>Lift","0,0,1,1,0,0,0,0,0,1,0,1","0,0,1,1,1,1,1,0,1,1,0,1","0,1,1,0,1,1",10,20,20,"","","","","{""Q0"":""It consists of multiple contests, each contest with three rounds."",""Q1"":""When a new contest begins."",""Q2"":""The box weight always stays the same (equivalent to strength of 5)."",""Q3"":""Each will get $20."",""Q4"":""How close my guesses are to the actual outcome.""}","[0,1,2,3,4]",NA,"",NA,NA,NA,NA,NA,NA,NA,NA,NA,NA,NA,NA,NA,NA,NA,NA,NA,NA,NA,NA,NA,NA,NA,NA,NA,NA,NA,NA,NA,NA,NA,NA,NA,NA,NA,NA,NA,NA,NA,"",NA,NA,NA,NA,NA,NA,NA,NA,NA,2025-11-21 00:26:24
"13793.5","https://psyc-201.github.io/xiang2023/exp/index1.html?PROLIFIC_PID=REDACTED&STUDY_ID=691f8ca61c6b4dcbb0aeb5f4&SESSION_ID=691fad63036a95890bb36fd2","instructions",5,277243,"0.0-305.0","X7LjFnQPQeOjm+ygDEK/z8ZL+rsCWYfh8BWnMwpN+q5YaTeoHUhwRJCiUzNomOh6hg6LL0V8fVtJY2L3uDZui1yNSFq1mP3MWUydqUe07oKUDGKRdkriZ7Q5OzBwzKJTA80TPcQY6INF5poZMgHCTxKfdBDvvyChzBoKxc3UF15qxL69wShl98lGs8kKGdcH+OLWHP6x5dql4y5LPXMh+/o56au1DiiISnjdUoY8w6sxXtSLLupSMcPiG7XSlA0CqZCCklU7wmTWTSZGEdUNgOFJ1NXLBp/imR+5vIVfMVaq/tR5/y1RBxCAca1rxW23ZF6LhSwKAmzndD+RvxEb7A==","691f8ca61c6b4dcbb0aeb5f4","691fad63036a95890bb36fd2","index1","<span style='color:red'>Fail,<span style='color:red'>Fail,<span style='color:green'>Lift,<span style='color:green'>Lift,<span style='color:red'>Fail,<span style='color:red'>Fail,<span style='color:red'>Fail,<span style='color:red'>Fail,<span style='color:red'>Fail,<span style='color:green'>Lift,<span style='color:red'>Fail,<span style='color:green'>Lift","<span style='color:red'>Fail,<span style='color:red'>Fail,<span style='color:green'>Lift,<span style='color:green'>Lift,<span style='color:green'>Lift,<span style='color:green'>Lift,<span style='color:green'>Lift,<span style='color:red'>Fail,<span style='color:green'>Lift,<span style='color:green'>Lift,<span style='color:red'>Fail,<span style='color:green'>Lift","<span style='color:red'>Fail,<span style='color:green'>Lift,<span style='color:green'>Lift,<span style='color:red'>Fail,<span style='color:green'>Lift,<span style='color:green'>Lift","0,0,1,1,0,0,0,0,0,1,0,1","0,0,1,1,1,1,1,0,1,1,0,1","0,1,1,0,1,1",10,20,20,"","[{""page_index"":0,""viewing_time"":7920.60000000149},{""page_index"":1,""viewing_time"":5872.699999999255}]","","","","",NA,"",NA,NA,NA,NA,NA,NA,NA,NA,NA,NA,NA,NA,NA,NA,NA,NA,NA,NA,NA,NA,NA,NA,NA,NA,NA,NA,NA,NA,NA,NA,NA,NA,NA,NA,NA,NA,NA,NA,NA,"",NA,NA,NA,NA,NA,NA,NA,NA,NA,2025-11-21 00:26:24
"null","https://psyc-201.github.io/xiang2023/exp/index1.html?PROLIFIC_PID=REDACTED&STUDY_ID=691f8ca61c6b4dcbb0aeb5f4&SESSION_ID=691fad63036a95890bb36fd2","html-keyboard-response",6,278248,"0.0-306.0","X7LjFnQPQeOjm+ygDEK/z8ZL+rsCWYfh8BWnMwpN+q5YaTeoHUhwRJCiUzNomOh6hg6LL0V8fVtJY2L3uDZui1yNSFq1mP3MWUydqUe07oKUDGKRdkriZ7Q5OzBwzKJTA80TPcQY6INF5poZMgHCTxKfdBDvvyChzBoKxc3UF15qxL69wShl98lGs8kKGdcH+OLWHP6x5dql4y5LPXMh+/o56au1DiiISnjdUoY8w6sxXtSLLupSMcPiG7XSlA0CqZCCklU7wmTWTSZGEdUNgOFJ1NXLBp/imR+5vIVfMVaq/tR5/y1RBxCAca1rxW23ZF6LhSwKAmzndD+RvxEb7A==","691f8ca61c6b4dcbb0aeb5f4","691fad63036a95890bb36fd2","index1","<span style='color:red'>Fail,<span style='color:red'>Fail,<span style='color:green'>Lift,<span style='color:green'>Lift,<span style='color:red'>Fail,<span style='color:red'>Fail,<span style='color:red'>Fail,<span style='color:red'>Fail,<span style='color:red'>Fail,<span style='color:green'>Lift,<span style='color:red'>Fail,<span style='color:green'>Lift","<span style='color:red'>Fail,<span style='color:red'>Fail,<span style='color:green'>Lift,<span style='color:green'>Lift,<span style='color:green'>Lift,<span style='color:green'>Lift,<span style='color:green'>Lift,<span style='color:red'>Fail,<span style='color:green'>Lift,<span style='color:green'>Lift,<span style='color:red'>Fail,<span style='color:green'>Lift","<span style='color:red'>Fail,<span style='color:green'>Lift,<span style='color:green'>Lift,<span style='color:red'>Fail,<span style='color:green'>Lift,<span style='color:green'>Lift","0,0,1,1,0,0,0,0,0,1,0,1","0,0,1,1,1,1,1,0,1,1,0,1","0,1,1,0,1,1",10,20,20,"",""," ","null","","",1,"",NA,NA,NA,NA,NA,NA,NA,NA,NA,NA,NA,NA,NA,NA,NA,NA,NA,NA,NA,NA,NA,NA,NA,NA,NA,NA,NA,NA,NA,NA,NA,NA,NA,NA,NA,NA,NA,NA,NA,"",NA,NA,NA,NA,NA,NA,NA,NA,NA,2025-11-21 00:26:24
"null","https://psyc-201.github.io/xiang2023/exp/index1.html?PROLIFIC_PID=REDACTED&STUDY_ID=691f8ca61c6b4dcbb0aeb5f4&SESSION_ID=691fad63036a95890bb36fd2","html-keyboard-response",7,281251,"0.0-307.0","X7LjFnQPQeOjm+ygDEK/z8ZL+rsCWYfh8BWnMwpN+q5YaTeoHUhwRJCiUzNomOh6hg6LL0V8fVtJY2L3uDZui1yNSFq1mP3MWUydqUe07oKUDGKRdkriZ7Q5OzBwzKJTA80TPcQY6INF5poZMgHCTxKfdBDvvyChzBoKxc3UF15qxL69wShl98lGs8kKGdcH+OLWHP6x5dql4y5LPXMh+/o56au1DiiISnjdUoY8w6sxXtSLLupSMcPiG7XSlA0CqZCCklU7wmTWTSZGEdUNgOFJ1NXLBp/imR+5vIVfMVaq/tR5/y1RBxCAca1rxW23ZF6LhSwKAmzndD+RvxEb7A==","691f8ca61c6b4dcbb0aeb5f4","691fad63036a95890bb36fd2","index1","<span style='color:red'>Fail,<span style='color:red'>Fail,<span style='color:green'>Lift,<span style='color:green'>Lift,<span style='color:red'>Fail,<span style='color:red'>Fail,<span style='color:red'>Fail,<span style='color:red'>Fail,<span style='color:red'>Fail,<span style='color:green'>Lift,<span style='color:red'>Fail,<span style='color:green'>Lift","<span style='color:red'>Fail,<span style='color:red'>Fail,<span style='color:green'>Lift,<span style='color:green'>Lift,<span style='color:green'>Lift,<span style='color:green'>Lift,<span style='color:green'>Lift,<span style='color:red'>Fail,<span style='color:green'>Lift,<span style='color:green'>Lift,<span style='color:red'>Fail,<span style='color:green'>Lift","<span style='color:red'>Fail,<span style='color:green'>Lift,<span style='color:green'>Lift,<span style='color:red'>Fail,<span style='color:green'>Lift,<span style='color:green'>Lift","0,0,1,1,0,0,0,0,0,1,0,1","0,0,1,1,1,1,1,0,1,1,0,1","0,1,1,0,1,1",10,20,20,"","","<p style='font-size:30px'><b> New Contest! </b></p>","null","","",1,"",NA,NA,NA,NA,NA,NA,NA,NA,NA,NA,NA,NA,NA,NA,NA,NA,NA,NA,NA,NA,NA,NA,NA,NA,NA,NA,NA,NA,NA,NA,NA,NA,NA,NA,NA,NA,NA,NA,NA,"",NA,NA,NA,NA,NA,NA,NA,NA,NA,2025-11-21 00:26:24
"45502.300000000745","https://psyc-201.github.io/xiang2023/exp/index1.html?PROLIFIC_PID=REDACTED&STUDY_ID=691f8ca61c6b4dcbb0aeb5f4&SESSION_ID=691fad63036a95890bb36fd2","survey-html-form",8,326754,"0.0-308.0","X7LjFnQPQeOjm+ygDEK/z8ZL+rsCWYfh8BWnMwpN+q5YaTeoHUhwRJCiUzNomOh6hg6LL0V8fVtJY2L3uDZui1yNSFq1mP3MWUydqUe07oKUDGKRdkriZ7Q5OzBwzKJTA80TPcQY6INF5poZMgHCTxKfdBDvvyChzBoKxc3UF15qxL69wShl98lGs8kKGdcH+OLWHP6x5dql4y5LPXMh+/o56au1DiiISnjdUoY8w6sxXtSLLupSMcPiG7XSlA0CqZCCklU7wmTWTSZGEdUNgOFJ1NXLBp/imR+5vIVfMVaq/tR5/y1RBxCAca1rxW23ZF6LhSwKAmzndD+RvxEb7A==","691f8ca61c6b4dcbb0aeb5f4","691fad63036a95890bb36fd2","index1","<span style='color:red'>Fail,<span style='color:red'>Fail,<span style='color:green'>Lift,<span style='color:green'>Lift,<span style='color:red'>Fail,<span style='color:red'>Fail,<span style='color:red'>Fail,<span style='color:red'>Fail,<span style='color:red'>Fail,<span style='color:green'>Lift,<span style='color:red'>Fail,<span style='color:green'>Lift","<span style='color:red'>Fail,<span style='color:red'>Fail,<span style='color:green'>Lift,<span style='color:green'>Lift,<span style='color:green'>Lift,<span style='color:green'>Lift,<span style='color:green'>Lift,<span style='color:red'>Fail,<span style='color:green'>Lift,<span style='color:green'>Lift,<span style='color:red'>Fail,<span style='color:green'>Lift","<span style='color:red'>Fail,<span style='color:green'>Lift,<span style='color:green'>Lift,<span style='color:red'>Fail,<span style='color:green'>Lift,<span style='color:green'>Lift","0,0,1,1,0,0,0,0,0,1,0,1","0,0,1,1,1,1,1,0,1,1,0,1","0,1,1,0,1,1",10,20,20,"","","","","{""box1"":""3"",""box2"":""8"",""box4"":""70""}","",1,"round1_outcome",1,1,1,3,8,NA,70,0,1,10,3,8,NA,70,0,1,10,NA,NA,NA,NA,NA,NA,NA,NA,NA,NA,NA,NA,NA,NA,NA,NA,NA,NA,NA,NA,NA,NA,"",NA,NA,NA,NA,NA,NA,NA,NA,NA,2025-11-21 00:26:24
"26617.5","https://psyc-201.github.io/xiang2023/exp/index1.html?PROLIFIC_PID=REDACTED&STUDY_ID=691f8ca61c6b4dcbb0aeb5f4&SESSION_ID=691fad63036a95890bb36fd2","survey-html-form",9,353373,"0.0-309.0","X7LjFnQPQeOjm+ygDEK/z8ZL+rsCWYfh8BWnMwpN+q5YaTeoHUhwRJCiUzNomOh6hg6LL0V8fVtJY2L3uDZui1yNSFq1mP3MWUydqUe07oKUDGKRdkriZ7Q5OzBwzKJTA80TPcQY6INF5poZMgHCTxKfdBDvvyChzBoKxc3UF15qxL69wShl98lGs8kKGdcH+OLWHP6x5dql4y5LPXMh+/o56au1DiiISnjdUoY8w6sxXtSLLupSMcPiG7XSlA0CqZCCklU7wmTWTSZGEdUNgOFJ1NXLBp/imR+5vIVfMVaq/tR5/y1RBxCAca1rxW23ZF6LhSwKAmzndD+RvxEb7A==","691f8ca61c6b4dcbb0aeb5f4","691fad63036a95890bb36fd2","index1","<span style='color:red'>Fail,<span style='color:red'>Fail,<span style='color:green'>Lift,<span style='color:green'>Lift,<span style='color:red'>Fail,<span style='color:red'>Fail,<span style='color:red'>Fail,<span style='color:red'>Fail,<span style='color:red'>Fail,<span style='color:green'>Lift,<span style='color:red'>Fail,<span style='color:green'>Lift","<span style='color:red'>Fail,<span style='color:red'>Fail,<span style='color:green'>Lift,<span style='color:green'>Lift,<span style='color:green'>Lift,<span style='color:green'>Lift,<span style='color:green'>Lift,<span style='color:red'>Fail,<span style='color:green'>Lift,<span style='color:green'>Lift,<span style='color:red'>Fail,<span style='color:green'>Lift","<span style='color:red'>Fail,<span style='color:green'>Lift,<span style='color:green'>Lift,<span style='color:red'>Fail,<span style='color:green'>Lift,<span style='color:green'>Lift","0,0,1,1,0,0,0,0,0,1,0,1","0,0,1,1,1,1,1,0,1,1,0,1","0,1,1,0,1,1",10,20,20,"","","","","{""box1"":""30"",""box2"":""80""}","",1,"round2_ready",2,1,2,NA,NA,NA,NA,NA,NA,NA,NA,NA,NA,NA,NA,NA,NA,30,80,30,80,NA,NA,NA,NA,NA,NA,NA,NA,NA,NA,NA,NA,NA,NA,NA,NA,NA,NA,"",NA,NA,NA,NA,NA,NA,NA,NA,NA,2025-11-21 00:26:24
"25955.099999997765","https://psyc-201.github.io/xiang2023/exp/index1.html?PROLIFIC_PID=REDACTED&STUDY_ID=691f8ca61c6b4dcbb0aeb5f4&SESSION_ID=691fad63036a95890bb36fd2","survey-html-form",10,379329,"0.0-310.0","X7LjFnQPQeOjm+ygDEK/z8ZL+rsCWYfh8BWnMwpN+q5YaTeoHUhwRJCiUzNomOh6hg6LL0V8fVtJY2L3uDZui1yNSFq1mP3MWUydqUe07oKUDGKRdkriZ7Q5OzBwzKJTA80TPcQY6INF5poZMgHCTxKfdBDvvyChzBoKxc3UF15qxL69wShl98lGs8kKGdcH+OLWHP6x5dql4y5LPXMh+/o56au1DiiISnjdUoY8w6sxXtSLLupSMcPiG7XSlA0CqZCCklU7wmTWTSZGEdUNgOFJ1NXLBp/imR+5vIVfMVaq/tR5/y1RBxCAca1rxW23ZF6LhSwKAmzndD+RvxEb7A==","691f8ca61c6b4dcbb0aeb5f4","691fad63036a95890bb36fd2","index1","<span style='color:red'>Fail,<span style='color:red'>Fail,<span style='color:green'>Lift,<span style='color:green'>Lift,<span style='color:red'>Fail,<span style='color:red'>Fail,<span style='color:red'>Fail,<span style='color:red'>Fail,<span style='color:red'>Fail,<span style='color:green'>Lift,<span style='color:red'>Fail,<span style='color:green'>Lift","<span style='color:red'>Fail,<span style='color:red'>Fail,<span style='color:green'>Lift,<span style='color:green'>Lift,<span style='color:green'>Lift,<span style='color:green'>Lift,<span style='color:green'>Lift,<span style='color:red'>Fail,<span style='color:green'>Lift,<span style='color:green'>Lift,<span style='color:red'>Fail,<span style='color:green'>Lift","<span style='color:red'>Fail,<span style='color:green'>Lift,<span style='color:green'>Lift,<span style='color:red'>Fail,<span style='color:green'>Lift,<span style='color:green'>Lift","0,0,1,1,0,0,0,0,0,1,0,1","0,0,1,1,1,1,1,0,1,1,0,1","0,1,1,0,1,1",10,20,20,"","","","","{""box1"":""3"",""box2"":""8"",""box4"":""70""}","",1,"round2_outcome",3,1,2,3,8,NA,70,0,1,20,NA,NA,NA,NA,NA,NA,NA,NA,NA,NA,NA,3,8,NA,70,0,1,20,NA,NA,NA,NA,NA,NA,NA,NA,NA,NA,NA,"",NA,NA,NA,NA,NA,NA,NA,NA,NA,2025-11-21 00:26:24
"15784.599999997765","https://psyc-201.github.io/xiang2023/exp/index1.html?PROLIFIC_PID=REDACTED&STUDY_ID=691f8ca61c6b4dcbb0aeb5f4&SESSION_ID=691fad63036a95890bb36fd2","survey-html-form",11,395115,"0.0-311.0","X7LjFnQPQeOjm+ygDEK/z8ZL+rsCWYfh8BWnMwpN+q5YaTeoHUhwRJCiUzNomOh6hg6LL0V8fVtJY2L3uDZui1yNSFq1mP3MWUydqUe07oKUDGKRdkriZ7Q5OzBwzKJTA80TPcQY6INF5poZMgHCTxKfdBDvvyChzBoKxc3UF15qxL69wShl98lGs8kKGdcH+OLWHP6x5dql4y5LPXMh+/o56au1DiiISnjdUoY8w6sxXtSLLupSMcPiG7XSlA0CqZCCklU7wmTWTSZGEdUNgOFJ1NXLBp/imR+5vIVfMVaq/tR5/y1RBxCAca1rxW23ZF6LhSwKAmzndD+RvxEb7A==","691f8ca61c6b4dcbb0aeb5f4","691fad63036a95890bb36fd2","index1","<span style='color:red'>Fail,<span style='color:red'>Fail,<span style='color:green'>Lift,<span style='color:green'>Lift,<span style='color:red'>Fail,<span style='color:red'>Fail,<span style='color:red'>Fail,<span style='color:red'>Fail,<span style='color:red'>Fail,<span style='color:green'>Lift,<span style='color:red'>Fail,<span style='color:green'>Lift","<span style='color:red'>Fail,<span style='color:red'>Fail,<span style='color:green'>Lift,<span style='color:green'>Lift,<span style='color:green'>Lift,<span style='color:green'>Lift,<span style='color:green'>Lift,<span style='color:red'>Fail,<span style='color:green'>Lift,<span style='color:green'>Lift,<span style='color:red'>Fail,<span style='color:green'>Lift","<span style='color:red'>Fail,<span style='color:green'>Lift,<span style='color:green'>Lift,<span style='color:red'>Fail,<span style='color:green'>Lift,<span style='color:green'>Lift","0,0,1,1,0,0,0,0,0,1,0,1","0,0,1,1,1,1,1,0,1,1,0,1","0,1,1,0,1,1",10,20,20,"","","","","{""box1"":""70""}","",1,"round3_ready",4,1,3,NA,NA,NA,NA,NA,NA,NA,NA,NA,NA,NA,NA,NA,NA,70,70,NA,NA,NA,NA,NA,NA,NA,NA,NA,70,70,NA,NA,NA,NA,NA,NA,NA,NA,NA,"",NA,NA,NA,NA,NA,NA,NA,NA,NA,2025-11-21 00:26:24
"36243","https://psyc-201.github.io/xiang2023/exp/index1.html?PROLIFIC_PID=REDACTED&STUDY_ID=691f8ca61c6b4dcbb0aeb5f4&SESSION_ID=691fad63036a95890bb36fd2","survey-html-form",12,431359,"0.0-312.0-0.0","X7LjFnQPQeOjm+ygDEK/z8ZL+rsCWYfh8BWnMwpN+q5YaTeoHUhwRJCiUzNomOh6hg6LL0V8fVtJY2L3uDZui1yNSFq1mP3MWUydqUe07oKUDGKRdkriZ7Q5OzBwzKJTA80TPcQY6INF5poZMgHCTxKfdBDvvyChzBoKxc3UF15qxL69wShl98lGs8kKGdcH+OLWHP6x5dql4y5LPXMh+/o56au1DiiISnjdUoY8w6sxXtSLLupSMcPiG7XSlA0CqZCCklU7wmTWTSZGEdUNgOFJ1NXLBp/imR+5vIVfMVaq/tR5/y1RBxCAca1rxW23ZF6LhSwKAmzndD+RvxEb7A==","691f8ca61c6b4dcbb0aeb5f4","691fad63036a95890bb36fd2","index1","<span style='color:red'>Fail,<span style='color:red'>Fail,<span style='color:green'>Lift,<span style='color:green'>Lift,<span style='color:red'>Fail,<span style='color:red'>Fail,<span style='color:red'>Fail,<span style='color:red'>Fail,<span style='color:red'>Fail,<span style='color:green'>Lift,<span style='color:red'>Fail,<span style='color:green'>Lift","<span style='color:red'>Fail,<span style='color:red'>Fail,<span style='color:green'>Lift,<span style='color:green'>Lift,<span style='color:green'>Lift,<span style='color:green'>Lift,<span style='color:green'>Lift,<span style='color:red'>Fail,<span style='color:green'>Lift,<span style='color:green'>Lift,<span style='color:red'>Fail,<span style='color:green'>Lift","<span style='color:red'>Fail,<span style='color:green'>Lift,<span style='color:green'>Lift,<span style='color:red'>Fail,<span style='color:green'>Lift,<span style='color:green'>Lift","0,0,1,1,0,0,0,0,0,1,0,1","0,0,1,1,1,1,1,0,1,1,0,1","0,1,1,0,1,1",10,20,20,"","","","","{""box1"":""3"",""box2"":""8"",""box3"":""80"",""box4"":""70""}","",2,"round3_lift",5,1,3,3,8,80,70,1,1,20,NA,NA,NA,NA,NA,NA,NA,NA,NA,NA,NA,NA,NA,NA,NA,NA,NA,NA,NA,NA,3,8,80,70,1,1,20,NA,NA,"",NA,NA,NA,NA,NA,NA,NA,NA,NA,2025-11-21 00:26:24
"null","https://psyc-201.github.io/xiang2023/exp/index1.html?PROLIFIC_PID=REDACTED&STUDY_ID=691f8ca61c6b4dcbb0aeb5f4&SESSION_ID=691fad63036a95890bb36fd2","html-keyboard-response",13,434373,"0.0-316.0","X7LjFnQPQeOjm+ygDEK/z8ZL+rsCWYfh8BWnMwpN+q5YaTeoHUhwRJCiUzNomOh6hg6LL0V8fVtJY2L3uDZui1yNSFq1mP3MWUydqUe07oKUDGKRdkriZ7Q5OzBwzKJTA80TPcQY6INF5poZMgHCTxKfdBDvvyChzBoKxc3UF15qxL69wShl98lGs8kKGdcH+OLWHP6x5dql4y5LPXMh+/o56au1DiiISnjdUoY8w6sxXtSLLupSMcPiG7XSlA0CqZCCklU7wmTWTSZGEdUNgOFJ1NXLBp/imR+5vIVfMVaq/tR5/y1RBxCAca1rxW23ZF6LhSwKAmzndD+RvxEb7A==","691f8ca61c6b4dcbb0aeb5f4","691fad63036a95890bb36fd2","index1","<span style='color:red'>Fail,<span style='color:red'>Fail,<span style='color:green'>Lift,<span style='color:green'>Lift,<span style='color:red'>Fail,<span style='color:red'>Fail,<span style='color:red'>Fail,<span style='color:red'>Fail,<span style='color:red'>Fail,<span style='color:green'>Lift,<span style='color:red'>Fail,<span style='color:green'>Lift","<span style='color:red'>Fail,<span style='color:red'>Fail,<span style='color:green'>Lift,<span style='color:green'>Lift,<span style='color:green'>Lift,<span style='color:green'>Lift,<span style='color:green'>Lift,<span style='color:red'>Fail,<span style='color:green'>Lift,<span style='color:green'>Lift,<span style='color:red'>Fail,<span style='color:green'>Lift","<span style='color:red'>Fail,<span style='color:green'>Lift,<span style='color:green'>Lift,<span style='color:red'>Fail,<span style='color:green'>Lift,<span style='color:green'>Lift","0,0,1,1,0,0,0,0,0,1,0,1","0,0,1,1,1,1,1,0,1,1,0,1","0,1,1,0,1,1",10,20,20,"","","<p style='font-size:30px'><b> New Contest! </b></p>","null","","",2,"",NA,NA,NA,NA,NA,NA,NA,NA,NA,NA,NA,NA,NA,NA,NA,NA,NA,NA,NA,NA,NA,NA,NA,NA,NA,NA,NA,NA,NA,NA,NA,NA,NA,NA,NA,NA,NA,NA,NA,"",NA,NA,NA,NA,NA,NA,NA,NA,NA,2025-11-21 00:26:24
"38579.89999999851","https://psyc-201.github.io/xiang2023/exp/index1.html?PROLIFIC_PID=REDACTED&STUDY_ID=691f8ca61c6b4dcbb0aeb5f4&SESSION_ID=691fad63036a95890bb36fd2","survey-html-form",14,472954,"0.0-317.0","X7LjFnQPQeOjm+ygDEK/z8ZL+rsCWYfh8BWnMwpN+q5YaTeoHUhwRJCiUzNomOh6hg6LL0V8fVtJY2L3uDZui1yNSFq1mP3MWUydqUe07oKUDGKRdkriZ7Q5OzBwzKJTA80TPcQY6INF5poZMgHCTxKfdBDvvyChzBoKxc3UF15qxL69wShl98lGs8kKGdcH+OLWHP6x5dql4y5LPXMh+/o56au1DiiISnjdUoY8w6sxXtSLLupSMcPiG7XSlA0CqZCCklU7wmTWTSZGEdUNgOFJ1NXLBp/imR+5vIVfMVaq/tR5/y1RBxCAca1rxW23ZF6LhSwKAmzndD+RvxEb7A==","691f8ca61c6b4dcbb0aeb5f4","691fad63036a95890bb36fd2","index1","<span style='color:red'>Fail,<span style='color:red'>Fail,<span style='color:green'>Lift,<span style='color:green'>Lift,<span style='color:red'>Fail,<span style='color:red'>Fail,<span style='color:red'>Fail,<span style='color:red'>Fail,<span style='color:red'>Fail,<span style='color:green'>Lift,<span style='color:red'>Fail,<span style='color:green'>Lift","<span style='color:red'>Fail,<span style='color:red'>Fail,<span style='color:green'>Lift,<span style='color:green'>Lift,<span style='color:green'>Lift,<span style='color:green'>Lift,<span style='color:green'>Lift,<span style='color:red'>Fail,<span style='color:green'>Lift,<span style='color:green'>Lift,<span style='color:red'>Fail,<span style='color:green'>Lift","<span style='color:red'>Fail,<span style='color:green'>Lift,<span style='color:green'>Lift,<span style='color:red'>Fail,<span style='color:green'>Lift,<span style='color:green'>Lift","0,0,1,1,0,0,0,0,0,1,0,1","0,0,1,1,1,1,1,0,1,1,0,1","0,1,1,0,1,1",10,20,20,"","","","","{""box1"":""7"",""box2"":""8"",""box3"":""80"",""box4"":""70""}","",2,"round1_outcome",1,2,1,7,8,80,70,1,1,10,7,8,80,70,1,1,10,NA,NA,NA,NA,NA,NA,NA,NA,NA,NA,NA,NA,NA,NA,NA,NA,NA,NA,NA,NA,NA,NA,"",NA,NA,NA,NA,NA,NA,NA,NA,NA,2025-11-21 00:26:24
"12531.89999999851","https://psyc-201.github.io/xiang2023/exp/index1.html?PROLIFIC_PID=REDACTED&STUDY_ID=691f8ca61c6b4dcbb0aeb5f4&SESSION_ID=691fad63036a95890bb36fd2","survey-html-form",15,485487,"0.0-318.0","X7LjFnQPQeOjm+ygDEK/z8ZL+rsCWYfh8BWnMwpN+q5YaTeoHUhwRJCiUzNomOh6hg6LL0V8fVtJY2L3uDZui1yNSFq1mP3MWUydqUe07oKUDGKRdkriZ7Q5OzBwzKJTA80TPcQY6INF5poZMgHCTxKfdBDvvyChzBoKxc3UF15qxL69wShl98lGs8kKGdcH+OLWHP6x5dql4y5LPXMh+/o56au1DiiISnjdUoY8w6sxXtSLLupSMcPiG7XSlA0CqZCCklU7wmTWTSZGEdUNgOFJ1NXLBp/imR+5vIVfMVaq/tR5/y1RBxCAca1rxW23ZF6LhSwKAmzndD+RvxEb7A==","691f8ca61c6b4dcbb0aeb5f4","691fad63036a95890bb36fd2","index1","<span style='color:red'>Fail,<span style='color:red'>Fail,<span style='color:green'>Lift,<span style='color:green'>Lift,<span style='color:red'>Fail,<span style='color:red'>Fail,<span style='color:red'>Fail,<span style='color:red'>Fail,<span style='color:red'>Fail,<span style='color:green'>Lift,<span style='color:red'>Fail,<span style='color:green'>Lift","<span style='color:red'>Fail,<span style='color:red'>Fail,<span style='color:green'>Lift,<span style='color:green'>Lift,<span style='color:green'>Lift,<span style='color:green'>Lift,<span style='color:green'>Lift,<span style='color:red'>Fail,<span style='color:green'>Lift,<span style='color:green'>Lift,<span style='color:red'>Fail,<span style='color:green'>Lift","<span style='color:red'>Fail,<span style='color:green'>Lift,<span style='color:green'>Lift,<span style='color:red'>Fail,<span style='color:green'>Lift,<span style='color:green'>Lift","0,0,1,1,0,0,0,0,0,1,0,1","0,0,1,1,1,1,1,0,1,1,0,1","0,1,1,0,1,1",10,20,20,"","","","","{""box1"":""70"",""box2"":""80""}","",2,"round2_ready",2,2,2,NA,NA,NA,NA,NA,NA,NA,NA,NA,NA,NA,NA,NA,NA,70,80,70,80,NA,NA,NA,NA,NA,NA,NA,NA,NA,NA,NA,NA,NA,NA,NA,NA,NA,NA,"",NA,NA,NA,NA,NA,NA,NA,NA,NA,2025-11-21 00:26:24
"15686.300000000745","https://psyc-201.github.io/xiang2023/exp/index1.html?PROLIFIC_PID=REDACTED&STUDY_ID=691f8ca61c6b4dcbb0aeb5f4&SESSION_ID=691fad63036a95890bb36fd2","survey-html-form",16,501174,"0.0-319.0","X7LjFnQPQeOjm+ygDEK/z8ZL+rsCWYfh8BWnMwpN+q5YaTeoHUhwRJCiUzNomOh6hg6LL0V8fVtJY2L3uDZui1yNSFq1mP3MWUydqUe07oKUDGKRdkriZ7Q5OzBwzKJTA80TPcQY6INF5poZMgHCTxKfdBDvvyChzBoKxc3UF15qxL69wShl98lGs8kKGdcH+OLWHP6x5dql4y5LPXMh+/o56au1DiiISnjdUoY8w6sxXtSLLupSMcPiG7XSlA0CqZCCklU7wmTWTSZGEdUNgOFJ1NXLBp/imR+5vIVfMVaq/tR5/y1RBxCAca1rxW23ZF6LhSwKAmzndD+RvxEb7A==","691f8ca61c6b4dcbb0aeb5f4","691fad63036a95890bb36fd2","index1","<span style='color:red'>Fail,<span style='color:red'>Fail,<span style='color:green'>Lift,<span style='color:green'>Lift,<span style='color:red'>Fail,<span style='color:red'>Fail,<span style='color:red'>Fail,<span style='color:red'>Fail,<span style='color:red'>Fail,<span style='color:green'>Lift,<span style='color:red'>Fail,<span style='color:green'>Lift","<span style='color:red'>Fail,<span style='color:red'>Fail,<span style='color:green'>Lift,<span style='color:green'>Lift,<span style='color:green'>Lift,<span style='color:green'>Lift,<span style='color:green'>Lift,<span style='color:red'>Fail,<span style='color:green'>Lift,<span style='color:green'>Lift,<span style='color:red'>Fail,<span style='color:green'>Lift","<span style='color:red'>Fail,<span style='color:green'>Lift,<span style='color:green'>Lift,<span style='color:red'>Fail,<span style='color:green'>Lift,<span style='color:green'>Lift","0,0,1,1,0,0,0,0,0,1,0,1","0,0,1,1,1,1,1,0,1,1,0,1","0,1,1,0,1,1",10,20,20,"","","","","{""box1"":""7"",""box2"":""8"",""box3"":""80"",""box4"":""70""}","",2,"round2_outcome",3,2,2,7,8,80,70,1,1,20,NA,NA,NA,NA,NA,NA,NA,NA,NA,NA,NA,7,8,80,70,1,1,20,NA,NA,NA,NA,NA,NA,NA,NA,NA,NA,NA,"",NA,NA,NA,NA,NA,NA,NA,NA,NA,2025-11-21 00:26:24
"8705.400000002235","https://psyc-201.github.io/xiang2023/exp/index1.html?PROLIFIC_PID=REDACTED&STUDY_ID=691f8ca61c6b4dcbb0aeb5f4&SESSION_ID=691fad63036a95890bb36fd2","survey-html-form",17,509880,"0.0-320.0","X7LjFnQPQeOjm+ygDEK/z8ZL+rsCWYfh8BWnMwpN+q5YaTeoHUhwRJCiUzNomOh6hg6LL0V8fVtJY2L3uDZui1yNSFq1mP3MWUydqUe07oKUDGKRdkriZ7Q5OzBwzKJTA80TPcQY6INF5poZMgHCTxKfdBDvvyChzBoKxc3UF15qxL69wShl98lGs8kKGdcH+OLWHP6x5dql4y5LPXMh+/o56au1DiiISnjdUoY8w6sxXtSLLupSMcPiG7XSlA0CqZCCklU7wmTWTSZGEdUNgOFJ1NXLBp/imR+5vIVfMVaq/tR5/y1RBxCAca1rxW23ZF6LhSwKAmzndD+RvxEb7A==","691f8ca61c6b4dcbb0aeb5f4","691fad63036a95890bb36fd2","index1","<span style='color:red'>Fail,<span style='color:red'>Fail,<span style='color:green'>Lift,<span style='color:green'>Lift,<span style='color:red'>Fail,<span style='color:red'>Fail,<span style='color:red'>Fail,<span style='color:red'>Fail,<span style='color:red'>Fail,<span style='color:green'>Lift,<span style='color:red'>Fail,<span style='color:green'>Lift","<span style='color:red'>Fail,<span style='color:red'>Fail,<span style='color:green'>Lift,<span style='color:green'>Lift,<span style='color:green'>Lift,<span style='color:green'>Lift,<span style='color:green'>Lift,<span style='color:red'>Fail,<span style='color:green'>Lift,<span style='color:green'>Lift,<span style='color:red'>Fail,<span style='color:green'>Lift","<span style='color:red'>Fail,<span style='color:green'>Lift,<span style='color:green'>Lift,<span style='color:red'>Fail,<span style='color:green'>Lift,<span style='color:green'>Lift","0,0,1,1,0,0,0,0,0,1,0,1","0,0,1,1,1,1,1,0,1,1,0,1","0,1,1,0,1,1",10,20,20,"","","","","{""box1"":""90""}","",2,"round3_ready",4,2,3,NA,NA,NA,NA,NA,NA,NA,NA,NA,NA,NA,NA,NA,NA,90,90,NA,NA,NA,NA,NA,NA,NA,NA,NA,90,90,NA,NA,NA,NA,NA,NA,NA,NA,NA,"",NA,NA,NA,NA,NA,NA,NA,NA,NA,2025-11-21 00:26:24
"24457.199999999255","https://psyc-201.github.io/xiang2023/exp/index1.html?PROLIFIC_PID=REDACTED&STUDY_ID=691f8ca61c6b4dcbb0aeb5f4&SESSION_ID=691fad63036a95890bb36fd2","survey-html-form",18,534339,"0.0-321.0-0.0","X7LjFnQPQeOjm+ygDEK/z8ZL+rsCWYfh8BWnMwpN+q5YaTeoHUhwRJCiUzNomOh6hg6LL0V8fVtJY2L3uDZui1yNSFq1mP3MWUydqUe07oKUDGKRdkriZ7Q5OzBwzKJTA80TPcQY6INF5poZMgHCTxKfdBDvvyChzBoKxc3UF15qxL69wShl98lGs8kKGdcH+OLWHP6x5dql4y5LPXMh+/o56au1DiiISnjdUoY8w6sxXtSLLupSMcPiG7XSlA0CqZCCklU7wmTWTSZGEdUNgOFJ1NXLBp/imR+5vIVfMVaq/tR5/y1RBxCAca1rxW23ZF6LhSwKAmzndD+RvxEb7A==","691f8ca61c6b4dcbb0aeb5f4","691fad63036a95890bb36fd2","index1","<span style='color:red'>Fail,<span style='color:red'>Fail,<span style='color:green'>Lift,<span style='color:green'>Lift,<span style='color:red'>Fail,<span style='color:red'>Fail,<span style='color:red'>Fail,<span style='color:red'>Fail,<span style='color:red'>Fail,<span style='color:green'>Lift,<span style='color:red'>Fail,<span style='color:green'>Lift","<span style='color:red'>Fail,<span style='color:red'>Fail,<span style='color:green'>Lift,<span style='color:green'>Lift,<span style='color:green'>Lift,<span style='color:green'>Lift,<span style='color:green'>Lift,<span style='color:red'>Fail,<span style='color:green'>Lift,<span style='color:green'>Lift,<span style='color:red'>Fail,<span style='color:green'>Lift","<span style='color:red'>Fail,<span style='color:green'>Lift,<span style='color:green'>Lift,<span style='color:red'>Fail,<span style='color:green'>Lift,<span style='color:green'>Lift","0,0,1,1,0,0,0,0,0,1,0,1","0,0,1,1,1,1,1,0,1,1,0,1","0,1,1,0,1,1",10,20,20,"","","","","{""box1"":""7"",""box2"":""8"",""box3"":""50"",""box4"":""40""}","",3,"round3_lift",5,2,3,7,8,50,40,1,1,20,NA,NA,NA,NA,NA,NA,NA,NA,NA,NA,NA,NA,NA,NA,NA,NA,NA,NA,NA,NA,7,8,50,40,1,1,20,NA,NA,"",NA,NA,NA,NA,NA,NA,NA,NA,NA,2025-11-21 00:26:24
"null","https://psyc-201.github.io/xiang2023/exp/index1.html?PROLIFIC_PID=REDACTED&STUDY_ID=691f8ca61c6b4dcbb0aeb5f4&SESSION_ID=691fad63036a95890bb36fd2","html-keyboard-response",19,537345,"0.0-325.0","X7LjFnQPQeOjm+ygDEK/z8ZL+rsCWYfh8BWnMwpN+q5YaTeoHUhwRJCiUzNomOh6hg6LL0V8fVtJY2L3uDZui1yNSFq1mP3MWUydqUe07oKUDGKRdkriZ7Q5OzBwzKJTA80TPcQY6INF5poZMgHCTxKfdBDvvyChzBoKxc3UF15qxL69wShl98lGs8kKGdcH+OLWHP6x5dql4y5LPXMh+/o56au1DiiISnjdUoY8w6sxXtSLLupSMcPiG7XSlA0CqZCCklU7wmTWTSZGEdUNgOFJ1NXLBp/imR+5vIVfMVaq/tR5/y1RBxCAca1rxW23ZF6LhSwKAmzndD+RvxEb7A==","691f8ca61c6b4dcbb0aeb5f4","691fad63036a95890bb36fd2","index1","<span style='color:red'>Fail,<span style='color:red'>Fail,<span style='color:green'>Lift,<span style='color:green'>Lift,<span style='color:red'>Fail,<span style='color:red'>Fail,<span style='color:red'>Fail,<span style='color:red'>Fail,<span style='color:red'>Fail,<span style='color:green'>Lift,<span style='color:red'>Fail,<span style='color:green'>Lift","<span style='color:red'>Fail,<span style='color:red'>Fail,<span style='color:green'>Lift,<span style='color:green'>Lift,<span style='color:green'>Lift,<span style='color:green'>Lift,<span style='color:green'>Lift,<span style='color:red'>Fail,<span style='color:green'>Lift,<span style='color:green'>Lift,<span style='color:red'>Fail,<span style='color:green'>Lift","<span style='color:red'>Fail,<span style='color:green'>Lift,<span style='color:green'>Lift,<span style='color:red'>Fail,<span style='color:green'>Lift,<span style='color:green'>Lift","0,0,1,1,0,0,0,0,0,1,0,1","0,0,1,1,1,1,1,0,1,1,0,1","0,1,1,0,1,1",10,20,20,"","","<p style='font-size:30px'><b> New Contest! </b></p>","null","","",3,"",NA,NA,NA,NA,NA,NA,NA,NA,NA,NA,NA,NA,NA,NA,NA,NA,NA,NA,NA,NA,NA,NA,NA,NA,NA,NA,NA,NA,NA,NA,NA,NA,NA,NA,NA,NA,NA,NA,NA,"",NA,NA,NA,NA,NA,NA,NA,NA,NA,2025-11-21 00:26:24
"16419.10000000149","https://psyc-201.github.io/xiang2023/exp/index1.html?PROLIFIC_PID=REDACTED&STUDY_ID=691f8ca61c6b4dcbb0aeb5f4&SESSION_ID=691fad63036a95890bb36fd2","survey-html-form",20,553765,"0.0-326.0","X7LjFnQPQeOjm+ygDEK/z8ZL+rsCWYfh8BWnMwpN+q5YaTeoHUhwRJCiUzNomOh6hg6LL0V8fVtJY2L3uDZui1yNSFq1mP3MWUydqUe07oKUDGKRdkriZ7Q5OzBwzKJTA80TPcQY6INF5poZMgHCTxKfdBDvvyChzBoKxc3UF15qxL69wShl98lGs8kKGdcH+OLWHP6x5dql4y5LPXMh+/o56au1DiiISnjdUoY8w6sxXtSLLupSMcPiG7XSlA0CqZCCklU7wmTWTSZGEdUNgOFJ1NXLBp/imR+5vIVfMVaq/tR5/y1RBxCAca1rxW23ZF6LhSwKAmzndD+RvxEb7A==","691f8ca61c6b4dcbb0aeb5f4","691fad63036a95890bb36fd2","index1","<span style='color:red'>Fail,<span style='color:red'>Fail,<span style='color:green'>Lift,<span style='color:green'>Lift,<span style='color:red'>Fail,<span style='color:red'>Fail,<span style='color:red'>Fail,<span style='color:red'>Fail,<span style='color:red'>Fail,<span style='color:green'>Lift,<span style='color:red'>Fail,<span style='color:green'>Lift","<span style='color:red'>Fail,<span style='color:red'>Fail,<span style='color:green'>Lift,<span style='color:green'>Lift,<span style='color:green'>Lift,<span style='color:green'>Lift,<span style='color:green'>Lift,<span style='color:red'>Fail,<span style='color:green'>Lift,<span style='color:green'>Lift,<span style='color:red'>Fail,<span style='color:green'>Lift","<span style='color:red'>Fail,<span style='color:green'>Lift,<span style='color:green'>Lift,<span style='color:red'>Fail,<span style='color:green'>Lift,<span style='color:green'>Lift","0,0,1,1,0,0,0,0,0,1,0,1","0,0,1,1,1,1,1,0,1,1,0,1","0,1,1,0,1,1",10,20,20,"","","","","{""box1"":""3"",""box2"":""4""}","",3,"round1_outcome",1,3,1,3,4,NA,NA,0,0,10,3,4,NA,NA,0,0,10,NA,NA,NA,NA,NA,NA,NA,NA,NA,NA,NA,NA,NA,NA,NA,NA,NA,NA,NA,NA,NA,NA,"",NA,NA,NA,NA,NA,NA,NA,NA,NA,2025-11-21 00:26:24
"10245.900000002235","https://psyc-201.github.io/xiang2023/exp/index1.html?PROLIFIC_PID=REDACTED&STUDY_ID=691f8ca61c6b4dcbb0aeb5f4&SESSION_ID=691fad63036a95890bb36fd2","survey-html-form",21,564011,"0.0-327.0","X7LjFnQPQeOjm+ygDEK/z8ZL+rsCWYfh8BWnMwpN+q5YaTeoHUhwRJCiUzNomOh6hg6LL0V8fVtJY2L3uDZui1yNSFq1mP3MWUydqUe07oKUDGKRdkriZ7Q5OzBwzKJTA80TPcQY6INF5poZMgHCTxKfdBDvvyChzBoKxc3UF15qxL69wShl98lGs8kKGdcH+OLWHP6x5dql4y5LPXMh+/o56au1DiiISnjdUoY8w6sxXtSLLupSMcPiG7XSlA0CqZCCklU7wmTWTSZGEdUNgOFJ1NXLBp/imR+5vIVfMVaq/tR5/y1RBxCAca1rxW23ZF6LhSwKAmzndD+RvxEb7A==","691f8ca61c6b4dcbb0aeb5f4","691fad63036a95890bb36fd2","index1","<span style='color:red'>Fail,<span style='color:red'>Fail,<span style='color:green'>Lift,<span style='color:green'>Lift,<span style='color:red'>Fail,<span style='color:red'>Fail,<span style='color:red'>Fail,<span style='color:red'>Fail,<span style='color:red'>Fail,<span style='color:green'>Lift,<span style='color:red'>Fail,<span style='color:green'>Lift","<span style='color:red'>Fail,<span style='color:red'>Fail,<span style='color:green'>Lift,<span style='color:green'>Lift,<span style='color:green'>Lift,<span style='color:green'>Lift,<span style='color:green'>Lift,<span style='color:red'>Fail,<span style='color:green'>Lift,<span style='color:green'>Lift,<span style='color:red'>Fail,<span style='color:green'>Lift","<span style='color:red'>Fail,<span style='color:green'>Lift,<span style='color:green'>Lift,<span style='color:red'>Fail,<span style='color:green'>Lift,<span style='color:green'>Lift","0,0,1,1,0,0,0,0,0,1,0,1","0,0,1,1,1,1,1,0,1,1,0,1","0,1,1,0,1,1",10,20,20,"","","","","{""box1"":""30"",""box2"":""30""}","",3,"round2_ready",2,3,2,NA,NA,NA,NA,NA,NA,NA,NA,NA,NA,NA,NA,NA,NA,30,30,30,30,NA,NA,NA,NA,NA,NA,NA,NA,NA,NA,NA,NA,NA,NA,NA,NA,NA,NA,"",NA,NA,NA,NA,NA,NA,NA,NA,NA,2025-11-21 00:26:24
"22251","https://psyc-201.github.io/xiang2023/exp/index1.html?PROLIFIC_PID=REDACTED&STUDY_ID=691f8ca61c6b4dcbb0aeb5f4&SESSION_ID=691fad63036a95890bb36fd2","survey-html-form",22,586263,"0.0-328.0","X7LjFnQPQeOjm+ygDEK/z8ZL+rsCWYfh8BWnMwpN+q5YaTeoHUhwRJCiUzNomOh6hg6LL0V8fVtJY2L3uDZui1yNSFq1mP3MWUydqUe07oKUDGKRdkriZ7Q5OzBwzKJTA80TPcQY6INF5poZMgHCTxKfdBDvvyChzBoKxc3UF15qxL69wShl98lGs8kKGdcH+OLWHP6x5dql4y5LPXMh+/o56au1DiiISnjdUoY8w6sxXtSLLupSMcPiG7XSlA0CqZCCklU7wmTWTSZGEdUNgOFJ1NXLBp/imR+5vIVfMVaq/tR5/y1RBxCAca1rxW23ZF6LhSwKAmzndD+RvxEb7A==","691f8ca61c6b4dcbb0aeb5f4","691fad63036a95890bb36fd2","index1","<span style='color:red'>Fail,<span style='color:red'>Fail,<span style='color:green'>Lift,<span style='color:green'>Lift,<span style='color:red'>Fail,<span style='color:red'>Fail,<span style='color:red'>Fail,<span style='color:red'>Fail,<span style='color:red'>Fail,<span style='color:green'>Lift,<span style='color:red'>Fail,<span style='color:green'>Lift","<span style='color:red'>Fail,<span style='color:red'>Fail,<span style='color:green'>Lift,<span style='color:green'>Lift,<span style='color:green'>Lift,<span style='color:green'>Lift,<span style='color:green'>Lift,<span style='color:red'>Fail,<span style='color:green'>Lift,<span style='color:green'>Lift,<span style='color:red'>Fail,<span style='color:green'>Lift","<span style='color:red'>Fail,<span style='color:green'>Lift,<span style='color:green'>Lift,<span style='color:red'>Fail,<span style='color:green'>Lift,<span style='color:green'>Lift","0,0,1,1,0,0,0,0,0,1,0,1","0,0,1,1,1,1,1,0,1,1,0,1","0,1,1,0,1,1",10,20,20,"","","","","{""box1"":""9"",""box2"":""3"",""box3"":""60""}","",3,"round2_outcome",3,3,2,9,3,60,NA,1,0,20,NA,NA,NA,NA,NA,NA,NA,NA,NA,NA,NA,9,3,60,NA,1,0,20,NA,NA,NA,NA,NA,NA,NA,NA,NA,NA,NA,"",NA,NA,NA,NA,NA,NA,NA,NA,NA,2025-11-21 00:26:24
"10656.199999999255","https://psyc-201.github.io/xiang2023/exp/index1.html?PROLIFIC_PID=REDACTED&STUDY_ID=691f8ca61c6b4dcbb0aeb5f4&SESSION_ID=691fad63036a95890bb36fd2","survey-html-form",23,596921,"0.0-329.0","X7LjFnQPQeOjm+ygDEK/z8ZL+rsCWYfh8BWnMwpN+q5YaTeoHUhwRJCiUzNomOh6hg6LL0V8fVtJY2L3uDZui1yNSFq1mP3MWUydqUe07oKUDGKRdkriZ7Q5OzBwzKJTA80TPcQY6INF5poZMgHCTxKfdBDvvyChzBoKxc3UF15qxL69wShl98lGs8kKGdcH+OLWHP6x5dql4y5LPXMh+/o56au1DiiISnjdUoY8w6sxXtSLLupSMcPiG7XSlA0CqZCCklU7wmTWTSZGEdUNgOFJ1NXLBp/imR+5vIVfMVaq/tR5/y1RBxCAca1rxW23ZF6LhSwKAmzndD+RvxEb7A==","691f8ca61c6b4dcbb0aeb5f4","691fad63036a95890bb36fd2","index1","<span style='color:red'>Fail,<span style='color:red'>Fail,<span style='color:green'>Lift,<span style='color:green'>Lift,<span style='color:red'>Fail,<span style='color:red'>Fail,<span style='color:red'>Fail,<span style='color:red'>Fail,<span style='color:red'>Fail,<span style='color:green'>Lift,<span style='color:red'>Fail,<span style='color:green'>Lift","<span style='color:red'>Fail,<span style='color:red'>Fail,<span style='color:green'>Lift,<span style='color:green'>Lift,<span style='color:green'>Lift,<span style='color:green'>Lift,<span style='color:green'>Lift,<span style='color:red'>Fail,<span style='color:green'>Lift,<span style='color:green'>Lift,<span style='color:red'>Fail,<span style='color:green'>Lift","<span style='color:red'>Fail,<span style='color:green'>Lift,<span style='color:green'>Lift,<span style='color:red'>Fail,<span style='color:green'>Lift,<span style='color:green'>Lift","0,0,1,1,0,0,0,0,0,1,0,1","0,0,1,1,1,1,1,0,1,1,0,1","0,1,1,0,1,1",10,20,20,"","","","","{""box1"":""60""}","",3,"round3_ready",4,3,3,NA,NA,NA,NA,NA,NA,NA,NA,NA,NA,NA,NA,NA,NA,60,60,NA,NA,NA,NA,NA,NA,NA,NA,NA,60,60,NA,NA,NA,NA,NA,NA,NA,NA,NA,"",NA,NA,NA,NA,NA,NA,NA,NA,NA,2025-11-21 00:26:24
"27889.900000002235","https://psyc-201.github.io/xiang2023/exp/index1.html?PROLIFIC_PID=REDACTED&STUDY_ID=691f8ca61c6b4dcbb0aeb5f4&SESSION_ID=691fad63036a95890bb36fd2","survey-html-form",24,624812,"0.0-331.0-0.0","X7LjFnQPQeOjm+ygDEK/z8ZL+rsCWYfh8BWnMwpN+q5YaTeoHUhwRJCiUzNomOh6hg6LL0V8fVtJY2L3uDZui1yNSFq1mP3MWUydqUe07oKUDGKRdkriZ7Q5OzBwzKJTA80TPcQY6INF5poZMgHCTxKfdBDvvyChzBoKxc3UF15qxL69wShl98lGs8kKGdcH+OLWHP6x5dql4y5LPXMh+/o56au1DiiISnjdUoY8w6sxXtSLLupSMcPiG7XSlA0CqZCCklU7wmTWTSZGEdUNgOFJ1NXLBp/imR+5vIVfMVaq/tR5/y1RBxCAca1rxW23ZF6LhSwKAmzndD+RvxEb7A==","691f8ca61c6b4dcbb0aeb5f4","691fad63036a95890bb36fd2","index1","<span style='color:red'>Fail,<span style='color:red'>Fail,<span style='color:green'>Lift,<span style='color:green'>Lift,<span style='color:red'>Fail,<span style='color:red'>Fail,<span style='color:red'>Fail,<span style='color:red'>Fail,<span style='color:red'>Fail,<span style='color:green'>Lift,<span style='color:red'>Fail,<span style='color:green'>Lift","<span style='color:red'>Fail,<span style='color:red'>Fail,<span style='color:green'>Lift,<span style='color:green'>Lift,<span style='color:green'>Lift,<span style='color:green'>Lift,<span style='color:green'>Lift,<span style='color:red'>Fail,<span style='color:green'>Lift,<span style='color:green'>Lift,<span style='color:red'>Fail,<span style='color:green'>Lift","<span style='color:red'>Fail,<span style='color:green'>Lift,<span style='color:green'>Lift,<span style='color:red'>Fail,<span style='color:green'>Lift,<span style='color:green'>Lift","0,0,1,1,0,0,0,0,0,1,0,1","0,0,1,1,1,1,1,0,1,1,0,1","0,1,1,0,1,1",10,20,20,"","","","","{""box1"":""6"",""box2"":""2"",""box3"":""999"",""box4"":""999""}","",4,"round3_fail",5,3,3,6,2,NA,NA,0,0,20,NA,NA,NA,NA,NA,NA,NA,NA,NA,NA,NA,NA,NA,NA,NA,NA,NA,NA,NA,NA,6,2,NA,NA,0,0,20,1,1,"",NA,NA,NA,NA,NA,NA,NA,NA,NA,2025-11-21 00:26:24
"null","https://psyc-201.github.io/xiang2023/exp/index1.html?PROLIFIC_PID=REDACTED&STUDY_ID=691f8ca61c6b4dcbb0aeb5f4&SESSION_ID=691fad63036a95890bb36fd2","html-keyboard-response",25,627813,"0.0-334.0","X7LjFnQPQeOjm+ygDEK/z8ZL+rsCWYfh8BWnMwpN+q5YaTeoHUhwRJCiUzNomOh6hg6LL0V8fVtJY2L3uDZui1yNSFq1mP3MWUydqUe07oKUDGKRdkriZ7Q5OzBwzKJTA80TPcQY6INF5poZMgHCTxKfdBDvvyChzBoKxc3UF15qxL69wShl98lGs8kKGdcH+OLWHP6x5dql4y5LPXMh+/o56au1DiiISnjdUoY8w6sxXtSLLupSMcPiG7XSlA0CqZCCklU7wmTWTSZGEdUNgOFJ1NXLBp/imR+5vIVfMVaq/tR5/y1RBxCAca1rxW23ZF6LhSwKAmzndD+RvxEb7A==","691f8ca61c6b4dcbb0aeb5f4","691fad63036a95890bb36fd2","index1","<span style='color:red'>Fail,<span style='color:red'>Fail,<span style='color:green'>Lift,<span style='color:green'>Lift,<span style='color:red'>Fail,<span style='color:red'>Fail,<span style='color:red'>Fail,<span style='color:red'>Fail,<span style='color:red'>Fail,<span style='color:green'>Lift,<span style='color:red'>Fail,<span style='color:green'>Lift","<span style='color:red'>Fail,<span style='color:red'>Fail,<span style='color:green'>Lift,<span style='color:green'>Lift,<span style='color:green'>Lift,<span style='color:green'>Lift,<span style='color:green'>Lift,<span style='color:red'>Fail,<span style='color:green'>Lift,<span style='color:green'>Lift,<span style='color:red'>Fail,<span style='color:green'>Lift","<span style='color:red'>Fail,<span style='color:green'>Lift,<span style='color:green'>Lift,<span style='color:red'>Fail,<span style='color:green'>Lift,<span style='color:green'>Lift","0,0,1,1,0,0,0,0,0,1,0,1","0,0,1,1,1,1,1,0,1,1,0,1","0,1,1,0,1,1",10,20,20,"","","<p style='font-size:30px'><b> New Contest! </b></p>","null","","",4,"",NA,NA,NA,NA,NA,NA,NA,NA,NA,NA,NA,NA,NA,NA,NA,NA,NA,NA,NA,NA,NA,NA,NA,NA,NA,NA,NA,NA,NA,NA,NA,NA,NA,NA,NA,NA,NA,NA,NA,"",NA,NA,NA,NA,NA,NA,NA,NA,NA,2025-11-21 00:26:24
"31738.79999999702","https://psyc-201.github.io/xiang2023/exp/index1.html?PROLIFIC_PID=REDACTED&STUDY_ID=691f8ca61c6b4dcbb0aeb5f4&SESSION_ID=691fad63036a95890bb36fd2","survey-html-form",26,659553,"0.0-335.0","X7LjFnQPQeOjm+ygDEK/z8ZL+rsCWYfh8BWnMwpN+q5YaTeoHUhwRJCiUzNomOh6hg6LL0V8fVtJY2L3uDZui1yNSFq1mP3MWUydqUe07oKUDGKRdkriZ7Q5OzBwzKJTA80TPcQY6INF5poZMgHCTxKfdBDvvyChzBoKxc3UF15qxL69wShl98lGs8kKGdcH+OLWHP6x5dql4y5LPXMh+/o56au1DiiISnjdUoY8w6sxXtSLLupSMcPiG7XSlA0CqZCCklU7wmTWTSZGEdUNgOFJ1NXLBp/imR+5vIVfMVaq/tR5/y1RBxCAca1rxW23ZF6LhSwKAmzndD+RvxEb7A==","691f8ca61c6b4dcbb0aeb5f4","691fad63036a95890bb36fd2","index1","<span style='color:red'>Fail,<span style='color:red'>Fail,<span style='color:green'>Lift,<span style='color:green'>Lift,<span style='color:red'>Fail,<span style='color:red'>Fail,<span style='color:red'>Fail,<span style='color:red'>Fail,<span style='color:red'>Fail,<span style='color:green'>Lift,<span style='color:red'>Fail,<span style='color:green'>Lift","<span style='color:red'>Fail,<span style='color:red'>Fail,<span style='color:green'>Lift,<span style='color:green'>Lift,<span style='color:green'>Lift,<span style='color:green'>Lift,<span style='color:green'>Lift,<span style='color:red'>Fail,<span style='color:green'>Lift,<span style='color:green'>Lift,<span style='color:red'>Fail,<span style='color:green'>Lift","<span style='color:red'>Fail,<span style='color:green'>Lift,<span style='color:green'>Lift,<span style='color:red'>Fail,<span style='color:green'>Lift,<span style='color:green'>Lift","0,0,1,1,0,0,0,0,0,1,0,1","0,0,1,1,1,1,1,0,1,1,0,1","0,1,1,0,1,1",10,20,20,"","","","","{""box1"":""4"",""box2"":""7"",""box4"":""80""}","",4,"round1_outcome",1,4,1,4,7,NA,80,0,1,10,4,7,NA,80,0,1,10,NA,NA,NA,NA,NA,NA,NA,NA,NA,NA,NA,NA,NA,NA,NA,NA,NA,NA,NA,NA,NA,NA,"",NA,NA,NA,NA,NA,NA,NA,NA,NA,2025-11-21 00:26:24
"11167.60000000149","https://psyc-201.github.io/xiang2023/exp/index1.html?PROLIFIC_PID=REDACTED&STUDY_ID=691f8ca61c6b4dcbb0aeb5f4&SESSION_ID=691fad63036a95890bb36fd2","survey-html-form",27,670721,"0.0-336.0","X7LjFnQPQeOjm+ygDEK/z8ZL+rsCWYfh8BWnMwpN+q5YaTeoHUhwRJCiUzNomOh6hg6LL0V8fVtJY2L3uDZui1yNSFq1mP3MWUydqUe07oKUDGKRdkriZ7Q5OzBwzKJTA80TPcQY6INF5poZMgHCTxKfdBDvvyChzBoKxc3UF15qxL69wShl98lGs8kKGdcH+OLWHP6x5dql4y5LPXMh+/o56au1DiiISnjdUoY8w6sxXtSLLupSMcPiG7XSlA0CqZCCklU7wmTWTSZGEdUNgOFJ1NXLBp/imR+5vIVfMVaq/tR5/y1RBxCAca1rxW23ZF6LhSwKAmzndD+RvxEb7A==","691f8ca61c6b4dcbb0aeb5f4","691fad63036a95890bb36fd2","index1","<span style='color:red'>Fail,<span style='color:red'>Fail,<span style='color:green'>Lift,<span style='color:green'>Lift,<span style='color:red'>Fail,<span style='color:red'>Fail,<span style='color:red'>Fail,<span style='color:red'>Fail,<span style='color:red'>Fail,<span style='color:green'>Lift,<span style='color:red'>Fail,<span style='color:green'>Lift","<span style='color:red'>Fail,<span style='color:red'>Fail,<span style='color:green'>Lift,<span style='color:green'>Lift,<span style='color:green'>Lift,<span style='color:green'>Lift,<span style='color:green'>Lift,<span style='color:red'>Fail,<span style='color:green'>Lift,<span style='color:green'>Lift,<span style='color:red'>Fail,<span style='color:green'>Lift","<span style='color:red'>Fail,<span style='color:green'>Lift,<span style='color:green'>Lift,<span style='color:red'>Fail,<span style='color:green'>Lift,<span style='color:green'>Lift","0,0,1,1,0,0,0,0,0,1,0,1","0,0,1,1,1,1,1,0,1,1,0,1","0,1,1,0,1,1",10,20,20,"","","","","{""box1"":""40"",""box2"":""70""}","",4,"round2_ready",2,4,2,NA,NA,NA,NA,NA,NA,NA,NA,NA,NA,NA,NA,NA,NA,40,70,40,70,NA,NA,NA,NA,NA,NA,NA,NA,NA,NA,NA,NA,NA,NA,NA,NA,NA,NA,"",NA,NA,NA,NA,NA,NA,NA,NA,NA,2025-11-21 00:26:24
"25941","https://psyc-201.github.io/xiang2023/exp/index1.html?PROLIFIC_PID=REDACTED&STUDY_ID=691f8ca61c6b4dcbb0aeb5f4&SESSION_ID=691fad63036a95890bb36fd2","survey-html-form",28,696663,"0.0-337.0","X7LjFnQPQeOjm+ygDEK/z8ZL+rsCWYfh8BWnMwpN+q5YaTeoHUhwRJCiUzNomOh6hg6LL0V8fVtJY2L3uDZui1yNSFq1mP3MWUydqUe07oKUDGKRdkriZ7Q5OzBwzKJTA80TPcQY6INF5poZMgHCTxKfdBDvvyChzBoKxc3UF15qxL69wShl98lGs8kKGdcH+OLWHP6x5dql4y5LPXMh+/o56au1DiiISnjdUoY8w6sxXtSLLupSMcPiG7XSlA0CqZCCklU7wmTWTSZGEdUNgOFJ1NXLBp/imR+5vIVfMVaq/tR5/y1RBxCAca1rxW23ZF6LhSwKAmzndD+RvxEb7A==","691f8ca61c6b4dcbb0aeb5f4","691fad63036a95890bb36fd2","index1","<span style='color:red'>Fail,<span style='color:red'>Fail,<span style='color:green'>Lift,<span style='color:green'>Lift,<span style='color:red'>Fail,<span style='color:red'>Fail,<span style='color:red'>Fail,<span style='color:red'>Fail,<span style='color:red'>Fail,<span style='color:green'>Lift,<span style='color:red'>Fail,<span style='color:green'>Lift","<span style='color:red'>Fail,<span style='color:red'>Fail,<span style='color:green'>Lift,<span style='color:green'>Lift,<span style='color:green'>Lift,<span style='color:green'>Lift,<span style='color:green'>Lift,<span style='color:red'>Fail,<span style='color:green'>Lift,<span style='color:green'>Lift,<span style='color:red'>Fail,<span style='color:green'>Lift","<span style='color:red'>Fail,<span style='color:green'>Lift,<span style='color:green'>Lift,<span style='color:red'>Fail,<span style='color:green'>Lift,<span style='color:green'>Lift","0,0,1,1,0,0,0,0,0,1,0,1","0,0,1,1,1,1,1,0,1,1,0,1","0,1,1,0,1,1",10,20,20,"","","","","{""box1"":""7"",""box2"":""7"",""box3"":""80"",""box4"":""80""}","",4,"round2_outcome",3,4,2,7,7,80,80,1,1,20,NA,NA,NA,NA,NA,NA,NA,NA,NA,NA,NA,7,7,80,80,1,1,20,NA,NA,NA,NA,NA,NA,NA,NA,NA,NA,NA,"",NA,NA,NA,NA,NA,NA,NA,NA,NA,2025-11-21 00:26:24
"11507.89999999851","https://psyc-201.github.io/xiang2023/exp/index1.html?PROLIFIC_PID=REDACTED&STUDY_ID=691f8ca61c6b4dcbb0aeb5f4&SESSION_ID=691fad63036a95890bb36fd2","survey-html-form",29,708172,"0.0-338.0","X7LjFnQPQeOjm+ygDEK/z8ZL+rsCWYfh8BWnMwpN+q5YaTeoHUhwRJCiUzNomOh6hg6LL0V8fVtJY2L3uDZui1yNSFq1mP3MWUydqUe07oKUDGKRdkriZ7Q5OzBwzKJTA80TPcQY6INF5poZMgHCTxKfdBDvvyChzBoKxc3UF15qxL69wShl98lGs8kKGdcH+OLWHP6x5dql4y5LPXMh+/o56au1DiiISnjdUoY8w6sxXtSLLupSMcPiG7XSlA0CqZCCklU7wmTWTSZGEdUNgOFJ1NXLBp/imR+5vIVfMVaq/tR5/y1RBxCAca1rxW23ZF6LhSwKAmzndD+RvxEb7A==","691f8ca61c6b4dcbb0aeb5f4","691fad63036a95890bb36fd2","index1","<span style='color:red'>Fail,<span style='color:red'>Fail,<span style='color:green'>Lift,<span style='color:green'>Lift,<span style='color:red'>Fail,<span style='color:red'>Fail,<span style='color:red'>Fail,<span style='color:red'>Fail,<span style='color:red'>Fail,<span style='color:green'>Lift,<span style='color:red'>Fail,<span style='color:green'>Lift","<span style='color:red'>Fail,<span style='color:red'>Fail,<span style='color:green'>Lift,<span style='color:green'>Lift,<span style='color:green'>Lift,<span style='color:green'>Lift,<span style='color:green'>Lift,<span style='color:red'>Fail,<span style='color:green'>Lift,<span style='color:green'>Lift,<span style='color:red'>Fail,<span style='color:green'>Lift","<span style='color:red'>Fail,<span style='color:green'>Lift,<span style='color:green'>Lift,<span style='color:red'>Fail,<span style='color:green'>Lift,<span style='color:green'>Lift","0,0,1,1,0,0,0,0,0,1,0,1","0,0,1,1,1,1,1,0,1,1,0,1","0,1,1,0,1,1",10,20,20,"","","","","{""box1"":""80""}","",4,"round3_ready",4,4,3,NA,NA,NA,NA,NA,NA,NA,NA,NA,NA,NA,NA,NA,NA,80,80,NA,NA,NA,NA,NA,NA,NA,NA,NA,80,80,NA,NA,NA,NA,NA,NA,NA,NA,NA,"",NA,NA,NA,NA,NA,NA,NA,NA,NA,2025-11-21 00:26:24
"19206.300000000745","https://psyc-201.github.io/xiang2023/exp/index1.html?PROLIFIC_PID=REDACTED&STUDY_ID=691f8ca61c6b4dcbb0aeb5f4&SESSION_ID=691fad63036a95890bb36fd2","survey-html-form",30,727380,"0.0-339.0-0.0","X7LjFnQPQeOjm+ygDEK/z8ZL+rsCWYfh8BWnMwpN+q5YaTeoHUhwRJCiUzNomOh6hg6LL0V8fVtJY2L3uDZui1yNSFq1mP3MWUydqUe07oKUDGKRdkriZ7Q5OzBwzKJTA80TPcQY6INF5poZMgHCTxKfdBDvvyChzBoKxc3UF15qxL69wShl98lGs8kKGdcH+OLWHP6x5dql4y5LPXMh+/o56au1DiiISnjdUoY8w6sxXtSLLupSMcPiG7XSlA0CqZCCklU7wmTWTSZGEdUNgOFJ1NXLBp/imR+5vIVfMVaq/tR5/y1RBxCAca1rxW23ZF6LhSwKAmzndD+RvxEb7A==","691f8ca61c6b4dcbb0aeb5f4","691fad63036a95890bb36fd2","index1","<span style='color:red'>Fail,<span style='color:red'>Fail,<span style='color:green'>Lift,<span style='color:green'>Lift,<span style='color:red'>Fail,<span style='color:red'>Fail,<span style='color:red'>Fail,<span style='color:red'>Fail,<span style='color:red'>Fail,<span style='color:green'>Lift,<span style='color:red'>Fail,<span style='color:green'>Lift","<span style='color:red'>Fail,<span style='color:red'>Fail,<span style='color:green'>Lift,<span style='color:green'>Lift,<span style='color:green'>Lift,<span style='color:green'>Lift,<span style='color:green'>Lift,<span style='color:red'>Fail,<span style='color:green'>Lift,<span style='color:green'>Lift,<span style='color:red'>Fail,<span style='color:green'>Lift","<span style='color:red'>Fail,<span style='color:green'>Lift,<span style='color:green'>Lift,<span style='color:red'>Fail,<span style='color:green'>Lift,<span style='color:green'>Lift","0,0,1,1,0,0,0,0,0,1,0,1","0,0,1,1,1,1,1,0,1,1,0,1","0,1,1,0,1,1",10,20,20,"","","","","{""box1"":""7"",""box2"":""7"",""box3"":""40"",""box4"":""40""}","",5,"round3_lift",5,4,3,7,7,40,40,1,1,20,NA,NA,NA,NA,NA,NA,NA,NA,NA,NA,NA,NA,NA,NA,NA,NA,NA,NA,NA,NA,7,7,40,40,1,1,20,NA,NA,"",NA,NA,NA,NA,NA,NA,NA,NA,NA,2025-11-21 00:26:24
"null","https://psyc-201.github.io/xiang2023/exp/index1.html?PROLIFIC_PID=REDACTED&STUDY_ID=691f8ca61c6b4dcbb0aeb5f4&SESSION_ID=691fad63036a95890bb36fd2","html-keyboard-response",31,730391,"0.0-343.0","X7LjFnQPQeOjm+ygDEK/z8ZL+rsCWYfh8BWnMwpN+q5YaTeoHUhwRJCiUzNomOh6hg6LL0V8fVtJY2L3uDZui1yNSFq1mP3MWUydqUe07oKUDGKRdkriZ7Q5OzBwzKJTA80TPcQY6INF5poZMgHCTxKfdBDvvyChzBoKxc3UF15qxL69wShl98lGs8kKGdcH+OLWHP6x5dql4y5LPXMh+/o56au1DiiISnjdUoY8w6sxXtSLLupSMcPiG7XSlA0CqZCCklU7wmTWTSZGEdUNgOFJ1NXLBp/imR+5vIVfMVaq/tR5/y1RBxCAca1rxW23ZF6LhSwKAmzndD+RvxEb7A==","691f8ca61c6b4dcbb0aeb5f4","691fad63036a95890bb36fd2","index1","<span style='color:red'>Fail,<span style='color:red'>Fail,<span style='color:green'>Lift,<span style='color:green'>Lift,<span style='color:red'>Fail,<span style='color:red'>Fail,<span style='color:red'>Fail,<span style='color:red'>Fail,<span style='color:red'>Fail,<span style='color:green'>Lift,<span style='color:red'>Fail,<span style='color:green'>Lift","<span style='color:red'>Fail,<span style='color:red'>Fail,<span style='color:green'>Lift,<span style='color:green'>Lift,<span style='color:green'>Lift,<span style='color:green'>Lift,<span style='color:green'>Lift,<span style='color:red'>Fail,<span style='color:green'>Lift,<span style='color:green'>Lift,<span style='color:red'>Fail,<span style='color:green'>Lift","<span style='color:red'>Fail,<span style='color:green'>Lift,<span style='color:green'>Lift,<span style='color:red'>Fail,<span style='color:green'>Lift,<span style='color:green'>Lift","0,0,1,1,0,0,0,0,0,1,0,1","0,0,1,1,1,1,1,0,1,1,0,1","0,1,1,0,1,1",10,20,20,"","","<p style='font-size:30px'><b> New Contest! </b></p>","null","","",5,"",NA,NA,NA,NA,NA,NA,NA,NA,NA,NA,NA,NA,NA,NA,NA,NA,NA,NA,NA,NA,NA,NA,NA,NA,NA,NA,NA,NA,NA,NA,NA,NA,NA,NA,NA,NA,NA,NA,NA,"",NA,NA,NA,NA,NA,NA,NA,NA,NA,2025-11-21 00:26:24
"26737.300000000745","https://psyc-201.github.io/xiang2023/exp/index1.html?PROLIFIC_PID=REDACTED&STUDY_ID=691f8ca61c6b4dcbb0aeb5f4&SESSION_ID=691fad63036a95890bb36fd2","survey-html-form",32,757129,"0.0-344.0","X7LjFnQPQeOjm+ygDEK/z8ZL+rsCWYfh8BWnMwpN+q5YaTeoHUhwRJCiUzNomOh6hg6LL0V8fVtJY2L3uDZui1yNSFq1mP3MWUydqUe07oKUDGKRdkriZ7Q5OzBwzKJTA80TPcQY6INF5poZMgHCTxKfdBDvvyChzBoKxc3UF15qxL69wShl98lGs8kKGdcH+OLWHP6x5dql4y5LPXMh+/o56au1DiiISnjdUoY8w6sxXtSLLupSMcPiG7XSlA0CqZCCklU7wmTWTSZGEdUNgOFJ1NXLBp/imR+5vIVfMVaq/tR5/y1RBxCAca1rxW23ZF6LhSwKAmzndD+RvxEb7A==","691f8ca61c6b4dcbb0aeb5f4","691fad63036a95890bb36fd2","index1","<span style='color:red'>Fail,<span style='color:red'>Fail,<span style='color:green'>Lift,<span style='color:green'>Lift,<span style='color:red'>Fail,<span style='color:red'>Fail,<span style='color:red'>Fail,<span style='color:red'>Fail,<span style='color:red'>Fail,<span style='color:green'>Lift,<span style='color:red'>Fail,<span style='color:green'>Lift","<span style='color:red'>Fail,<span style='color:red'>Fail,<span style='color:green'>Lift,<span style='color:green'>Lift,<span style='color:green'>Lift,<span style='color:green'>Lift,<span style='color:green'>Lift,<span style='color:red'>Fail,<span style='color:green'>Lift,<span style='color:green'>Lift,<span style='color:red'>Fail,<span style='color:green'>Lift","<span style='color:red'>Fail,<span style='color:green'>Lift,<span style='color:green'>Lift,<span style='color:red'>Fail,<span style='color:green'>Lift,<span style='color:green'>Lift","0,0,1,1,0,0,0,0,0,1,0,1","0,0,1,1,1,1,1,0,1,1,0,1","0,1,1,0,1,1",10,20,20,"","","","","{""box1"":""2"",""box2"":""8""}","",5,"round1_outcome",1,5,1,2,8,NA,NA,0,0,10,2,8,NA,NA,0,0,10,NA,NA,NA,NA,NA,NA,NA,NA,NA,NA,NA,NA,NA,NA,NA,NA,NA,NA,NA,NA,NA,NA,"",NA,NA,NA,NA,NA,NA,NA,NA,NA,2025-11-21 00:26:24
"17030.79999999702","https://psyc-201.github.io/xiang2023/exp/index1.html?PROLIFIC_PID=REDACTED&STUDY_ID=691f8ca61c6b4dcbb0aeb5f4&SESSION_ID=691fad63036a95890bb36fd2","survey-html-form",33,774161,"0.0-345.0","X7LjFnQPQeOjm+ygDEK/z8ZL+rsCWYfh8BWnMwpN+q5YaTeoHUhwRJCiUzNomOh6hg6LL0V8fVtJY2L3uDZui1yNSFq1mP3MWUydqUe07oKUDGKRdkriZ7Q5OzBwzKJTA80TPcQY6INF5poZMgHCTxKfdBDvvyChzBoKxc3UF15qxL69wShl98lGs8kKGdcH+OLWHP6x5dql4y5LPXMh+/o56au1DiiISnjdUoY8w6sxXtSLLupSMcPiG7XSlA0CqZCCklU7wmTWTSZGEdUNgOFJ1NXLBp/imR+5vIVfMVaq/tR5/y1RBxCAca1rxW23ZF6LhSwKAmzndD+RvxEb7A==","691f8ca61c6b4dcbb0aeb5f4","691fad63036a95890bb36fd2","index1","<span style='color:red'>Fail,<span style='color:red'>Fail,<span style='color:green'>Lift,<span style='color:green'>Lift,<span style='color:red'>Fail,<span style='color:red'>Fail,<span style='color:red'>Fail,<span style='color:red'>Fail,<span style='color:red'>Fail,<span style='color:green'>Lift,<span style='color:red'>Fail,<span style='color:green'>Lift","<span style='color:red'>Fail,<span style='color:red'>Fail,<span style='color:green'>Lift,<span style='color:green'>Lift,<span style='color:green'>Lift,<span style='color:green'>Lift,<span style='color:green'>Lift,<span style='color:red'>Fail,<span style='color:green'>Lift,<span style='color:green'>Lift,<span style='color:red'>Fail,<span style='color:green'>Lift","<span style='color:red'>Fail,<span style='color:green'>Lift,<span style='color:green'>Lift,<span style='color:red'>Fail,<span style='color:green'>Lift,<span style='color:green'>Lift","0,0,1,1,0,0,0,0,0,1,0,1","0,0,1,1,1,1,1,0,1,1,0,1","0,1,1,0,1,1",10,20,20,"","","","","{""box1"":""20"",""box2"":""60""}","",5,"round2_ready",2,5,2,NA,NA,NA,NA,NA,NA,NA,NA,NA,NA,NA,NA,NA,NA,20,60,20,60,NA,NA,NA,NA,NA,NA,NA,NA,NA,NA,NA,NA,NA,NA,NA,NA,NA,NA,"",NA,NA,NA,NA,NA,NA,NA,NA,NA,2025-11-21 00:26:24
"21515","https://psyc-201.github.io/xiang2023/exp/index1.html?PROLIFIC_PID=REDACTED&STUDY_ID=691f8ca61c6b4dcbb0aeb5f4&SESSION_ID=691fad63036a95890bb36fd2","survey-html-form",34,795677,"0.0-346.0","X7LjFnQPQeOjm+ygDEK/z8ZL+rsCWYfh8BWnMwpN+q5YaTeoHUhwRJCiUzNomOh6hg6LL0V8fVtJY2L3uDZui1yNSFq1mP3MWUydqUe07oKUDGKRdkriZ7Q5OzBwzKJTA80TPcQY6INF5poZMgHCTxKfdBDvvyChzBoKxc3UF15qxL69wShl98lGs8kKGdcH+OLWHP6x5dql4y5LPXMh+/o56au1DiiISnjdUoY8w6sxXtSLLupSMcPiG7XSlA0CqZCCklU7wmTWTSZGEdUNgOFJ1NXLBp/imR+5vIVfMVaq/tR5/y1RBxCAca1rxW23ZF6LhSwKAmzndD+RvxEb7A==","691f8ca61c6b4dcbb0aeb5f4","691fad63036a95890bb36fd2","index1","<span style='color:red'>Fail,<span style='color:red'>Fail,<span style='color:green'>Lift,<span style='color:green'>Lift,<span style='color:red'>Fail,<span style='color:red'>Fail,<span style='color:red'>Fail,<span style='color:red'>Fail,<span style='color:red'>Fail,<span style='color:green'>Lift,<span style='color:red'>Fail,<span style='color:green'>Lift","<span style='color:red'>Fail,<span style='color:red'>Fail,<span style='color:green'>Lift,<span style='color:green'>Lift,<span style='color:green'>Lift,<span style='color:green'>Lift,<span style='color:green'>Lift,<span style='color:red'>Fail,<span style='color:green'>Lift,<span style='color:green'>Lift,<span style='color:red'>Fail,<span style='color:green'>Lift","<span style='color:red'>Fail,<span style='color:green'>Lift,<span style='color:green'>Lift,<span style='color:red'>Fail,<span style='color:green'>Lift,<span style='color:green'>Lift","0,0,1,1,0,0,0,0,0,1,0,1","0,0,1,1,1,1,1,0,1,1,0,1","0,1,1,0,1,1",10,20,20,"","","","","{""box1"":""8"",""box2"":""8"",""box3"":""70"",""box4"":""70""}","",5,"round2_outcome",3,5,2,8,8,70,70,1,1,20,NA,NA,NA,NA,NA,NA,NA,NA,NA,NA,NA,8,8,70,70,1,1,20,NA,NA,NA,NA,NA,NA,NA,NA,NA,NA,NA,"",NA,NA,NA,NA,NA,NA,NA,NA,NA,2025-11-21 00:26:24
"8576.199999999255","https://psyc-201.github.io/xiang2023/exp/index1.html?PROLIFIC_PID=REDACTED&STUDY_ID=691f8ca61c6b4dcbb0aeb5f4&SESSION_ID=691fad63036a95890bb36fd2","survey-html-form",35,804254,"0.0-347.0","X7LjFnQPQeOjm+ygDEK/z8ZL+rsCWYfh8BWnMwpN+q5YaTeoHUhwRJCiUzNomOh6hg6LL0V8fVtJY2L3uDZui1yNSFq1mP3MWUydqUe07oKUDGKRdkriZ7Q5OzBwzKJTA80TPcQY6INF5poZMgHCTxKfdBDvvyChzBoKxc3UF15qxL69wShl98lGs8kKGdcH+OLWHP6x5dql4y5LPXMh+/o56au1DiiISnjdUoY8w6sxXtSLLupSMcPiG7XSlA0CqZCCklU7wmTWTSZGEdUNgOFJ1NXLBp/imR+5vIVfMVaq/tR5/y1RBxCAca1rxW23ZF6LhSwKAmzndD+RvxEb7A==","691f8ca61c6b4dcbb0aeb5f4","691fad63036a95890bb36fd2","index1","<span style='color:red'>Fail,<span style='color:red'>Fail,<span style='color:green'>Lift,<span style='color:green'>Lift,<span style='color:red'>Fail,<span style='color:red'>Fail,<span style='color:red'>Fail,<span style='color:red'>Fail,<span style='color:red'>Fail,<span style='color:green'>Lift,<span style='color:red'>Fail,<span style='color:green'>Lift","<span style='color:red'>Fail,<span style='color:red'>Fail,<span style='color:green'>Lift,<span style='color:green'>Lift,<span style='color:green'>Lift,<span style='color:green'>Lift,<span style='color:green'>Lift,<span style='color:red'>Fail,<span style='color:green'>Lift,<span style='color:green'>Lift,<span style='color:red'>Fail,<span style='color:green'>Lift","<span style='color:red'>Fail,<span style='color:green'>Lift,<span style='color:green'>Lift,<span style='color:red'>Fail,<span style='color:green'>Lift,<span style='color:green'>Lift","0,0,1,1,0,0,0,0,0,1,0,1","0,0,1,1,1,1,1,0,1,1,0,1","0,1,1,0,1,1",10,20,20,"","","","","{""box1"":""90""}","",5,"round3_ready",4,5,3,NA,NA,NA,NA,NA,NA,NA,NA,NA,NA,NA,NA,NA,NA,90,90,NA,NA,NA,NA,NA,NA,NA,NA,NA,90,90,NA,NA,NA,NA,NA,NA,NA,NA,NA,"",NA,NA,NA,NA,NA,NA,NA,NA,NA,2025-11-21 00:26:24
"19018.79999999702","https://psyc-201.github.io/xiang2023/exp/index1.html?PROLIFIC_PID=REDACTED&STUDY_ID=691f8ca61c6b4dcbb0aeb5f4&SESSION_ID=691fad63036a95890bb36fd2","survey-html-form",36,823274,"0.0-348.0-0.0","X7LjFnQPQeOjm+ygDEK/z8ZL+rsCWYfh8BWnMwpN+q5YaTeoHUhwRJCiUzNomOh6hg6LL0V8fVtJY2L3uDZui1yNSFq1mP3MWUydqUe07oKUDGKRdkriZ7Q5OzBwzKJTA80TPcQY6INF5poZMgHCTxKfdBDvvyChzBoKxc3UF15qxL69wShl98lGs8kKGdcH+OLWHP6x5dql4y5LPXMh+/o56au1DiiISnjdUoY8w6sxXtSLLupSMcPiG7XSlA0CqZCCklU7wmTWTSZGEdUNgOFJ1NXLBp/imR+5vIVfMVaq/tR5/y1RBxCAca1rxW23ZF6LhSwKAmzndD+RvxEb7A==","691f8ca61c6b4dcbb0aeb5f4","691fad63036a95890bb36fd2","index1","<span style='color:red'>Fail,<span style='color:red'>Fail,<span style='color:green'>Lift,<span style='color:green'>Lift,<span style='color:red'>Fail,<span style='color:red'>Fail,<span style='color:red'>Fail,<span style='color:red'>Fail,<span style='color:red'>Fail,<span style='color:green'>Lift,<span style='color:red'>Fail,<span style='color:green'>Lift","<span style='color:red'>Fail,<span style='color:red'>Fail,<span style='color:green'>Lift,<span style='color:green'>Lift,<span style='color:green'>Lift,<span style='color:green'>Lift,<span style='color:green'>Lift,<span style='color:red'>Fail,<span style='color:green'>Lift,<span style='color:green'>Lift,<span style='color:red'>Fail,<span style='color:green'>Lift","<span style='color:red'>Fail,<span style='color:green'>Lift,<span style='color:green'>Lift,<span style='color:red'>Fail,<span style='color:green'>Lift,<span style='color:green'>Lift","0,0,1,1,0,0,0,0,0,1,0,1","0,0,1,1,1,1,1,0,1,1,0,1","0,1,1,0,1,1",10,20,20,"","","","","{""box1"":""8"",""box2"":""8"",""box3"":""35"",""box4"":""35""}","",6,"round3_lift",5,5,3,8,8,35,35,1,1,20,NA,NA,NA,NA,NA,NA,NA,NA,NA,NA,NA,NA,NA,NA,NA,NA,NA,NA,NA,NA,8,8,35,35,1,1,20,NA,NA,"",NA,NA,NA,NA,NA,NA,NA,NA,NA,2025-11-21 00:26:24
"null","https://psyc-201.github.io/xiang2023/exp/index1.html?PROLIFIC_PID=REDACTED&STUDY_ID=691f8ca61c6b4dcbb0aeb5f4&SESSION_ID=691fad63036a95890bb36fd2","html-keyboard-response",37,826280,"0.0-352.0","X7LjFnQPQeOjm+ygDEK/z8ZL+rsCWYfh8BWnMwpN+q5YaTeoHUhwRJCiUzNomOh6hg6LL0V8fVtJY2L3uDZui1yNSFq1mP3MWUydqUe07oKUDGKRdkriZ7Q5OzBwzKJTA80TPcQY6INF5poZMgHCTxKfdBDvvyChzBoKxc3UF15qxL69wShl98lGs8kKGdcH+OLWHP6x5dql4y5LPXMh+/o56au1DiiISnjdUoY8w6sxXtSLLupSMcPiG7XSlA0CqZCCklU7wmTWTSZGEdUNgOFJ1NXLBp/imR+5vIVfMVaq/tR5/y1RBxCAca1rxW23ZF6LhSwKAmzndD+RvxEb7A==","691f8ca61c6b4dcbb0aeb5f4","691fad63036a95890bb36fd2","index1","<span style='color:red'>Fail,<span style='color:red'>Fail,<span style='color:green'>Lift,<span style='color:green'>Lift,<span style='color:red'>Fail,<span style='color:red'>Fail,<span style='color:red'>Fail,<span style='color:red'>Fail,<span style='color:red'>Fail,<span style='color:green'>Lift,<span style='color:red'>Fail,<span style='color:green'>Lift","<span style='color:red'>Fail,<span style='color:red'>Fail,<span style='color:green'>Lift,<span style='color:green'>Lift,<span style='color:green'>Lift,<span style='color:green'>Lift,<span style='color:green'>Lift,<span style='color:red'>Fail,<span style='color:green'>Lift,<span style='color:green'>Lift,<span style='color:red'>Fail,<span style='color:green'>Lift","<span style='color:red'>Fail,<span style='color:green'>Lift,<span style='color:green'>Lift,<span style='color:red'>Fail,<span style='color:green'>Lift,<span style='color:green'>Lift","0,0,1,1,0,0,0,0,0,1,0,1","0,0,1,1,1,1,1,0,1,1,0,1","0,1,1,0,1,1",10,20,20,"","","<p style='font-size:30px'><b> New Contest! </b></p>","null","","",6,"",NA,NA,NA,NA,NA,NA,NA,NA,NA,NA,NA,NA,NA,NA,NA,NA,NA,NA,NA,NA,NA,NA,NA,NA,NA,NA,NA,NA,NA,NA,NA,NA,NA,NA,NA,NA,NA,NA,NA,"",NA,NA,NA,NA,NA,NA,NA,NA,NA,2025-11-21 00:26:24
"8345.10000000149","https://psyc-201.github.io/xiang2023/exp/index1.html?PROLIFIC_PID=REDACTED&STUDY_ID=691f8ca61c6b4dcbb0aeb5f4&SESSION_ID=691fad63036a95890bb36fd2","survey-html-form",38,834626,"0.0-353.0","X7LjFnQPQeOjm+ygDEK/z8ZL+rsCWYfh8BWnMwpN+q5YaTeoHUhwRJCiUzNomOh6hg6LL0V8fVtJY2L3uDZui1yNSFq1mP3MWUydqUe07oKUDGKRdkriZ7Q5OzBwzKJTA80TPcQY6INF5poZMgHCTxKfdBDvvyChzBoKxc3UF15qxL69wShl98lGs8kKGdcH+OLWHP6x5dql4y5LPXMh+/o56au1DiiISnjdUoY8w6sxXtSLLupSMcPiG7XSlA0CqZCCklU7wmTWTSZGEdUNgOFJ1NXLBp/imR+5vIVfMVaq/tR5/y1RBxCAca1rxW23ZF6LhSwKAmzndD+RvxEb7A==","691f8ca61c6b4dcbb0aeb5f4","691fad63036a95890bb36fd2","index1","<span style='color:red'>Fail,<span style='color:red'>Fail,<span style='color:green'>Lift,<span style='color:green'>Lift,<span style='color:red'>Fail,<span style='color:red'>Fail,<span style='color:red'>Fail,<span style='color:red'>Fail,<span style='color:red'>Fail,<span style='color:green'>Lift,<span style='color:red'>Fail,<span style='color:green'>Lift","<span style='color:red'>Fail,<span style='color:red'>Fail,<span style='color:green'>Lift,<span style='color:green'>Lift,<span style='color:green'>Lift,<span style='color:green'>Lift,<span style='color:green'>Lift,<span style='color:red'>Fail,<span style='color:green'>Lift,<span style='color:green'>Lift,<span style='color:red'>Fail,<span style='color:green'>Lift","<span style='color:red'>Fail,<span style='color:green'>Lift,<span style='color:green'>Lift,<span style='color:red'>Fail,<span style='color:green'>Lift,<span style='color:green'>Lift","0,0,1,1,0,0,0,0,0,1,0,1","0,0,1,1,1,1,1,0,1,1,0,1","0,1,1,0,1,1",10,20,20,"","","","","{""box1"":""2"",""box2"":""3""}","",6,"round1_outcome",1,6,1,2,3,NA,NA,0,0,10,2,3,NA,NA,0,0,10,NA,NA,NA,NA,NA,NA,NA,NA,NA,NA,NA,NA,NA,NA,NA,NA,NA,NA,NA,NA,NA,NA,"",NA,NA,NA,NA,NA,NA,NA,NA,NA,2025-11-21 00:26:24
"7384.79999999702","https://psyc-201.github.io/xiang2023/exp/index1.html?PROLIFIC_PID=REDACTED&STUDY_ID=691f8ca61c6b4dcbb0aeb5f4&SESSION_ID=691fad63036a95890bb36fd2","survey-html-form",39,842012,"0.0-354.0","X7LjFnQPQeOjm+ygDEK/z8ZL+rsCWYfh8BWnMwpN+q5YaTeoHUhwRJCiUzNomOh6hg6LL0V8fVtJY2L3uDZui1yNSFq1mP3MWUydqUe07oKUDGKRdkriZ7Q5OzBwzKJTA80TPcQY6INF5poZMgHCTxKfdBDvvyChzBoKxc3UF15qxL69wShl98lGs8kKGdcH+OLWHP6x5dql4y5LPXMh+/o56au1DiiISnjdUoY8w6sxXtSLLupSMcPiG7XSlA0CqZCCklU7wmTWTSZGEdUNgOFJ1NXLBp/imR+5vIVfMVaq/tR5/y1RBxCAca1rxW23ZF6LhSwKAmzndD+RvxEb7A==","691f8ca61c6b4dcbb0aeb5f4","691fad63036a95890bb36fd2","index1","<span style='color:red'>Fail,<span style='color:red'>Fail,<span style='color:green'>Lift,<span style='color:green'>Lift,<span style='color:red'>Fail,<span style='color:red'>Fail,<span style='color:red'>Fail,<span style='color:red'>Fail,<span style='color:red'>Fail,<span style='color:green'>Lift,<span style='color:red'>Fail,<span style='color:green'>Lift","<span style='color:red'>Fail,<span style='color:red'>Fail,<span style='color:green'>Lift,<span style='color:green'>Lift,<span style='color:green'>Lift,<span style='color:green'>Lift,<span style='color:green'>Lift,<span style='color:red'>Fail,<span style='color:green'>Lift,<span style='color:green'>Lift,<span style='color:red'>Fail,<span style='color:green'>Lift","<span style='color:red'>Fail,<span style='color:green'>Lift,<span style='color:green'>Lift,<span style='color:red'>Fail,<span style='color:green'>Lift,<span style='color:green'>Lift","0,0,1,1,0,0,0,0,0,1,0,1","0,0,1,1,1,1,1,0,1,1,0,1","0,1,1,0,1,1",10,20,20,"","","","","{""box1"":""25"",""box2"":""30""}","",6,"round2_ready",2,6,2,NA,NA,NA,NA,NA,NA,NA,NA,NA,NA,NA,NA,NA,NA,25,30,25,30,NA,NA,NA,NA,NA,NA,NA,NA,NA,NA,NA,NA,NA,NA,NA,NA,NA,NA,"",NA,NA,NA,NA,NA,NA,NA,NA,NA,2025-11-21 00:26:24
"9577.099999997765","https://psyc-201.github.io/xiang2023/exp/index1.html?PROLIFIC_PID=REDACTED&STUDY_ID=691f8ca61c6b4dcbb0aeb5f4&SESSION_ID=691fad63036a95890bb36fd2","survey-html-form",40,851590,"0.0-355.0","X7LjFnQPQeOjm+ygDEK/z8ZL+rsCWYfh8BWnMwpN+q5YaTeoHUhwRJCiUzNomOh6hg6LL0V8fVtJY2L3uDZui1yNSFq1mP3MWUydqUe07oKUDGKRdkriZ7Q5OzBwzKJTA80TPcQY6INF5poZMgHCTxKfdBDvvyChzBoKxc3UF15qxL69wShl98lGs8kKGdcH+OLWHP6x5dql4y5LPXMh+/o56au1DiiISnjdUoY8w6sxXtSLLupSMcPiG7XSlA0CqZCCklU7wmTWTSZGEdUNgOFJ1NXLBp/imR+5vIVfMVaq/tR5/y1RBxCAca1rxW23ZF6LhSwKAmzndD+RvxEb7A==","691f8ca61c6b4dcbb0aeb5f4","691fad63036a95890bb36fd2","index1","<span style='color:red'>Fail,<span style='color:red'>Fail,<span style='color:green'>Lift,<span style='color:green'>Lift,<span style='color:red'>Fail,<span style='color:red'>Fail,<span style='color:red'>Fail,<span style='color:red'>Fail,<span style='color:red'>Fail,<span style='color:green'>Lift,<span style='color:red'>Fail,<span style='color:green'>Lift","<span style='color:red'>Fail,<span style='color:red'>Fail,<span style='color:green'>Lift,<span style='color:green'>Lift,<span style='color:green'>Lift,<span style='color:green'>Lift,<span style='color:green'>Lift,<span style='color:red'>Fail,<span style='color:green'>Lift,<span style='color:green'>Lift,<span style='color:red'>Fail,<span style='color:green'>Lift","<span style='color:red'>Fail,<span style='color:green'>Lift,<span style='color:green'>Lift,<span style='color:red'>Fail,<span style='color:green'>Lift,<span style='color:green'>Lift","0,0,1,1,0,0,0,0,0,1,0,1","0,0,1,1,1,1,1,0,1,1,0,1","0,1,1,0,1,1",10,20,20,"","","","","{""box1"":""2"",""box2"":""3""}","",6,"round2_outcome",3,6,2,2,3,NA,NA,0,0,20,NA,NA,NA,NA,NA,NA,NA,NA,NA,NA,NA,2,3,NA,NA,0,0,20,NA,NA,NA,NA,NA,NA,NA,NA,NA,NA,NA,"",NA,NA,NA,NA,NA,NA,NA,NA,NA,2025-11-21 00:26:24
"7727.10000000149","https://psyc-201.github.io/xiang2023/exp/index1.html?PROLIFIC_PID=REDACTED&STUDY_ID=691f8ca61c6b4dcbb0aeb5f4&SESSION_ID=691fad63036a95890bb36fd2","survey-html-form",41,859318,"0.0-356.0","X7LjFnQPQeOjm+ygDEK/z8ZL+rsCWYfh8BWnMwpN+q5YaTeoHUhwRJCiUzNomOh6hg6LL0V8fVtJY2L3uDZui1yNSFq1mP3MWUydqUe07oKUDGKRdkriZ7Q5OzBwzKJTA80TPcQY6INF5poZMgHCTxKfdBDvvyChzBoKxc3UF15qxL69wShl98lGs8kKGdcH+OLWHP6x5dql4y5LPXMh+/o56au1DiiISnjdUoY8w6sxXtSLLupSMcPiG7XSlA0CqZCCklU7wmTWTSZGEdUNgOFJ1NXLBp/imR+5vIVfMVaq/tR5/y1RBxCAca1rxW23ZF6LhSwKAmzndD+RvxEb7A==","691f8ca61c6b4dcbb0aeb5f4","691fad63036a95890bb36fd2","index1","<span style='color:red'>Fail,<span style='color:red'>Fail,<span style='color:green'>Lift,<span style='color:green'>Lift,<span style='color:red'>Fail,<span style='color:red'>Fail,<span style='color:red'>Fail,<span style='color:red'>Fail,<span style='color:red'>Fail,<span style='color:green'>Lift,<span style='color:red'>Fail,<span style='color:green'>Lift","<span style='color:red'>Fail,<span style='color:red'>Fail,<span style='color:green'>Lift,<span style='color:green'>Lift,<span style='color:green'>Lift,<span style='color:green'>Lift,<span style='color:green'>Lift,<span style='color:red'>Fail,<span style='color:green'>Lift,<span style='color:green'>Lift,<span style='color:red'>Fail,<span style='color:green'>Lift","<span style='color:red'>Fail,<span style='color:green'>Lift,<span style='color:green'>Lift,<span style='color:red'>Fail,<span style='color:green'>Lift,<span style='color:green'>Lift","0,0,1,1,0,0,0,0,0,1,0,1","0,0,1,1,1,1,1,0,1,1,0,1","0,1,1,0,1,1",10,20,20,"","","","","{""box1"":""10""}","",6,"round3_ready",4,6,3,NA,NA,NA,NA,NA,NA,NA,NA,NA,NA,NA,NA,NA,NA,10,10,NA,NA,NA,NA,NA,NA,NA,NA,NA,10,10,NA,NA,NA,NA,NA,NA,NA,NA,NA,"",NA,NA,NA,NA,NA,NA,NA,NA,NA,2025-11-21 00:26:24
"13720.89999999851","https://psyc-201.github.io/xiang2023/exp/index1.html?PROLIFIC_PID=REDACTED&STUDY_ID=691f8ca61c6b4dcbb0aeb5f4&SESSION_ID=691fad63036a95890bb36fd2","survey-html-form",42,873040,"0.0-358.0-0.0","X7LjFnQPQeOjm+ygDEK/z8ZL+rsCWYfh8BWnMwpN+q5YaTeoHUhwRJCiUzNomOh6hg6LL0V8fVtJY2L3uDZui1yNSFq1mP3MWUydqUe07oKUDGKRdkriZ7Q5OzBwzKJTA80TPcQY6INF5poZMgHCTxKfdBDvvyChzBoKxc3UF15qxL69wShl98lGs8kKGdcH+OLWHP6x5dql4y5LPXMh+/o56au1DiiISnjdUoY8w6sxXtSLLupSMcPiG7XSlA0CqZCCklU7wmTWTSZGEdUNgOFJ1NXLBp/imR+5vIVfMVaq/tR5/y1RBxCAca1rxW23ZF6LhSwKAmzndD+RvxEb7A==","691f8ca61c6b4dcbb0aeb5f4","691fad63036a95890bb36fd2","index1","<span style='color:red'>Fail,<span style='color:red'>Fail,<span style='color:green'>Lift,<span style='color:green'>Lift,<span style='color:red'>Fail,<span style='color:red'>Fail,<span style='color:red'>Fail,<span style='color:red'>Fail,<span style='color:red'>Fail,<span style='color:green'>Lift,<span style='color:red'>Fail,<span style='color:green'>Lift","<span style='color:red'>Fail,<span style='color:red'>Fail,<span style='color:green'>Lift,<span style='color:green'>Lift,<span style='color:green'>Lift,<span style='color:green'>Lift,<span style='color:green'>Lift,<span style='color:red'>Fail,<span style='color:green'>Lift,<span style='color:green'>Lift,<span style='color:red'>Fail,<span style='color:green'>Lift","<span style='color:red'>Fail,<span style='color:green'>Lift,<span style='color:green'>Lift,<span style='color:red'>Fail,<span style='color:green'>Lift,<span style='color:green'>Lift","0,0,1,1,0,0,0,0,0,1,0,1","0,0,1,1,1,1,1,0,1,1,0,1","0,1,1,0,1,1",10,20,20,"","","","","{""box1"":""2"",""box2"":""3"",""box3"":""999"",""box4"":""999""}","",6,"round3_fail",5,6,3,2,3,NA,NA,0,0,20,NA,NA,NA,NA,NA,NA,NA,NA,NA,NA,NA,NA,NA,NA,NA,NA,NA,NA,NA,NA,2,3,NA,NA,0,0,20,1,1,"",NA,NA,NA,NA,NA,NA,NA,NA,NA,2025-11-21 00:26:24
"158424.90000000224","https://psyc-201.github.io/xiang2023/exp/index1.html?PROLIFIC_PID=REDACTED&STUDY_ID=691f8ca61c6b4dcbb0aeb5f4&SESSION_ID=691fad63036a95890bb36fd2","survey-text",43,1031467,"0.0-361.0","X7LjFnQPQeOjm+ygDEK/z8ZL+rsCWYfh8BWnMwpN+q5YaTeoHUhwRJCiUzNomOh6hg6LL0V8fVtJY2L3uDZui1yNSFq1mP3MWUydqUe07oKUDGKRdkriZ7Q5OzBwzKJTA80TPcQY6INF5poZMgHCTxKfdBDvvyChzBoKxc3UF15qxL69wShl98lGs8kKGdcH+OLWHP6x5dql4y5LPXMh+/o56au1DiiISnjdUoY8w6sxXtSLLupSMcPiG7XSlA0CqZCCklU7wmTWTSZGEdUNgOFJ1NXLBp/imR+5vIVfMVaq/tR5/y1RBxCAca1rxW23ZF6LhSwKAmzndD+RvxEb7A==","691f8ca61c6b4dcbb0aeb5f4","691fad63036a95890bb36fd2","index1","<span style='color:red'>Fail,<span style='color:red'>Fail,<span style='color:green'>Lift,<span style='color:green'>Lift,<span style='color:red'>Fail,<span style='color:red'>Fail,<span style='color:red'>Fail,<span style='color:red'>Fail,<span style='color:red'>Fail,<span style='color:green'>Lift,<span style='color:red'>Fail,<span style='color:green'>Lift","<span style='color:red'>Fail,<span style='color:red'>Fail,<span style='color:green'>Lift,<span style='color:green'>Lift,<span style='color:green'>Lift,<span style='color:green'>Lift,<span style='color:green'>Lift,<span style='color:red'>Fail,<span style='color:green'>Lift,<span style='color:green'>Lift,<span style='color:red'>Fail,<span style='color:green'>Lift","<span style='color:red'>Fail,<span style='color:green'>Lift,<span style='color:green'>Lift,<span style='color:red'>Fail,<span style='color:green'>Lift,<span style='color:green'>Lift","0,0,1,1,0,0,0,0,0,1,0,1","0,0,1,1,1,1,1,0,1,1,0,1","0,1,1,0,1,1",10,20,20,"","","","","{""Q0"":""I was given two people and had to guess their strength level and the chance of them lifting the box. There were 3 rounds and I was shown the result after the first two then I had to predict the chance of them lifting the box together for the final round.""}","",NA,"",NA,NA,NA,NA,NA,NA,NA,NA,NA,NA,NA,NA,NA,NA,NA,NA,NA,NA,NA,NA,NA,NA,NA,NA,NA,NA,NA,NA,NA,NA,NA,NA,NA,NA,NA,NA,NA,NA,NA,"",NA,NA,NA,NA,NA,NA,NA,NA,NA,2025-11-21 00:26:24
"47942.800000000745","https://psyc-201.github.io/xiang2023/exp/index1.html?PROLIFIC_PID=REDACTED&STUDY_ID=691f8ca61c6b4dcbb0aeb5f4&SESSION_ID=691fad63036a95890bb36fd2","survey-text",44,1079411,"0.0-362.0","X7LjFnQPQeOjm+ygDEK/z8ZL+rsCWYfh8BWnMwpN+q5YaTeoHUhwRJCiUzNomOh6hg6LL0V8fVtJY2L3uDZui1yNSFq1mP3MWUydqUe07oKUDGKRdkriZ7Q5OzBwzKJTA80TPcQY6INF5poZMgHCTxKfdBDvvyChzBoKxc3UF15qxL69wShl98lGs8kKGdcH+OLWHP6x5dql4y5LPXMh+/o56au1DiiISnjdUoY8w6sxXtSLLupSMcPiG7XSlA0CqZCCklU7wmTWTSZGEdUNgOFJ1NXLBp/imR+5vIVfMVaq/tR5/y1RBxCAca1rxW23ZF6LhSwKAmzndD+RvxEb7A==","691f8ca61c6b4dcbb0aeb5f4","691fad63036a95890bb36fd2","index1","<span style='color:red'>Fail,<span style='color:red'>Fail,<span style='color:green'>Lift,<span style='color:green'>Lift,<span style='color:red'>Fail,<span style='color:red'>Fail,<span style='color:red'>Fail,<span style='color:red'>Fail,<span style='color:red'>Fail,<span style='color:green'>Lift,<span style='color:red'>Fail,<span style='color:green'>Lift","<span style='color:red'>Fail,<span style='color:red'>Fail,<span style='color:green'>Lift,<span style='color:green'>Lift,<span style='color:green'>Lift,<span style='color:green'>Lift,<span style='color:green'>Lift,<span style='color:red'>Fail,<span style='color:green'>Lift,<span style='color:green'>Lift,<span style='color:red'>Fail,<span style='color:green'>Lift","<span style='color:red'>Fail,<span style='color:green'>Lift,<span style='color:green'>Lift,<span style='color:red'>Fail,<span style='color:green'>Lift,<span style='color:green'>Lift","0,0,1,1,0,0,0,0,0,1,0,1","0,0,1,1,1,1,1,0,1,1,0,1","0,1,1,0,1,1",10,20,20,"","","","","{""Q0"":""Maybe provide a playable demo before the actual game to better understand the instructions""}","",NA,"",NA,NA,NA,NA,NA,NA,NA,NA,NA,NA,NA,NA,NA,NA,NA,NA,NA,NA,NA,NA,NA,NA,NA,NA,NA,NA,NA,NA,NA,NA,NA,NA,NA,NA,NA,NA,NA,NA,NA,"[{""event"":""fullscreenenter"",""trial"":1,""time"":48707}]",1,3,NA,70,1,0.7,NA,NA,NA,2025-11-21 00:26:24
"9909.300000000745","https://psyc-201.github.io/xiang2023/exp/index1.html?PROLIFIC_PID=REDACTED&STUDY_ID=691f8ca61c6b4dcbb0aeb5f4&SESSION_ID=691fad63036a95890bb36fd2","html-button-response",45,1089322,"0.0-363.0","X7LjFnQPQeOjm+ygDEK/z8ZL+rsCWYfh8BWnMwpN+q5YaTeoHUhwRJCiUzNomOh6hg6LL0V8fVtJY2L3uDZui1yNSFq1mP3MWUydqUe07oKUDGKRdkriZ7Q5OzBwzKJTA80TPcQY6INF5poZMgHCTxKfdBDvvyChzBoKxc3UF15qxL69wShl98lGs8kKGdcH+OLWHP6x5dql4y5LPXMh+/o56au1DiiISnjdUoY8w6sxXtSLLupSMcPiG7XSlA0CqZCCklU7wmTWTSZGEdUNgOFJ1NXLBp/imR+5vIVfMVaq/tR5/y1RBxCAca1rxW23ZF6LhSwKAmzndD+RvxEb7A==","691f8ca61c6b4dcbb0aeb5f4","691fad63036a95890bb36fd2","index1","<span style='color:red'>Fail,<span style='color:red'>Fail,<span style='color:green'>Lift,<span style='color:green'>Lift,<span style='color:red'>Fail,<span style='color:red'>Fail,<span style='color:red'>Fail,<span style='color:red'>Fail,<span style='color:red'>Fail,<span style='color:green'>Lift,<span style='color:red'>Fail,<span style='color:green'>Lift","<span style='color:red'>Fail,<span style='color:red'>Fail,<span style='color:green'>Lift,<span style='color:green'>Lift,<span style='color:green'>Lift,<span style='color:green'>Lift,<span style='color:green'>Lift,<span style='color:red'>Fail,<span style='color:green'>Lift,<span style='color:green'>Lift,<span style='color:red'>Fail,<span style='color:green'>Lift","<span style='color:red'>Fail,<span style='color:green'>Lift,<span style='color:green'>Lift,<span style='color:red'>Fail,<span style='color:green'>Lift,<span style='color:green'>Lift","0,0,1,1,0,0,0,0,0,1,0,1","0,0,1,1,1,1,1,0,1,1,0,1","0,1,1,0,1,1",10,20,20,"","","<p> We randomly picked <b>Contest 1, Round 3</b> to calculate your bonus. </p><p> The outcome of Contestant A and B on that round is <span style='color:green'>Lift</span>. </p><p> The probability you entered was 70. </p><p><b> You won a bonus of $0.70!</b></p><p> IMPORTANT: Please click 'Next' to complete the game. </p>","","","",NA,"",NA,NA,NA,NA,NA,NA,NA,NA,NA,NA,NA,NA,NA,NA,NA,NA,NA,NA,NA,NA,NA,NA,NA,NA,NA,NA,NA,NA,NA,NA,NA,NA,NA,NA,NA,NA,NA,NA,NA,"",NA,NA,NA,NA,NA,NA,0,2,1,2025-11-21 00:26:24
