"rt","url","trial_type","trial_index","time_elapsed","internal_node_id","encryptedProlificId","studyId","sessionId","expIndex","round1_outcomes","round2_outcomes","round3_outcomes","round1_o","round2_o","round3_o","round1_reward","round2_reward","round3_reward","success","view_history","stimulus","key_press","responses","question_order","j","Stage","stage","contest","round","strength_a","strength_b","effort_a","effort_b","outcome_a","outcome_b","reward","r1_strength_a","r1_strength_b","r1_effort_a","r1_effort_b","r1_outcome_a","r1_outcome_b","r1_reward","probability_a","probability_b","r2_prob_a","r2_prob_b","r2_strength_a","r2_strength_b","r2_effort_a","r2_effort_b","r2_outcome_a","r2_outcome_b","r2_reward","r3_prob_a","r3_prob_b","attention_check","count","r3_strength_a","r3_strength_b","r3_outcome_a","r3_outcome_b","r3_reward","r3_effort_a","r3_effort_b","screen","pick_contest","pick_round","pick_side","trial_probability","trial_outcome","bonus","button_pressed","attention_sum","attention","datapipe_meta.attributes.date_modified"
"9243.899999976158","https://psyc-201.github.io/xiang2023/exp/index1.html?PROLIFIC_PID=REDACTED&STUDY_ID=691f8ca61c6b4dcbb0aeb5f4&SESSION_ID=691fbc72b93567c443ca7ca3","external-html",0,9332,"0.0-0.0","MMAUNmjXOWwtcLLPHZWMslNI/0Vv8Ra/gx0lqCnwI7cb3klSTHD517uwqWWe7TXboCiXC5+unroVx3TIumrtXLo2N7oHTxkEotyUNfd5ydiQnJtJe8EeGRkqUIwbrc4qVkOErZTWz3CaxSDF07OhGNMT1x4pMC0V3XslszYcdVcisiYfQGy6FxxxAJ58AzFsx6u2hJk9/jFi5AZqnM4GqGcT9lZ8J569i2qjo7dKIZHyRC7sa9+98R9xajcetI6sv8DMM3udOMPdmUKv9dIsubf5twmFIQzTzOLmbRFliEXU22HkWhAYnjkYS4ssdfvMfvIhealaJTsYw9U7Uf+9dw==","691f8ca61c6b4dcbb0aeb5f4","691fbc72b93567c443ca7ca3","index1","<span style='color:red'>Fail,<span style='color:red'>Fail,<span style='color:green'>Lift,<span style='color:green'>Lift,<span style='color:red'>Fail,<span style='color:red'>Fail,<span style='color:red'>Fail,<span style='color:red'>Fail,<span style='color:green'>Lift,<span style='color:red'>Fail,<span style='color:red'>Fail,<span style='color:green'>Lift","<span style='color:red'>Fail,<span style='color:red'>Fail,<span style='color:green'>Lift,<span style='color:green'>Lift,<span style='color:green'>Lift,<span style='color:green'>Lift,<span style='color:red'>Fail,<span style='color:green'>Lift,<span style='color:green'>Lift,<span style='color:green'>Lift,<span style='color:red'>Fail,<span style='color:green'>Lift","<span style='color:red'>Fail,<span style='color:green'>Lift,<span style='color:green'>Lift,<span style='color:red'>Fail,<span style='color:green'>Lift,<span style='color:green'>Lift","0,0,1,1,0,0,0,0,1,0,0,1","0,0,1,1,1,1,0,1,1,1,0,1","0,1,1,0,1,1",10,20,20,"","","","","","",NA,"",NA,NA,NA,NA,NA,NA,NA,NA,NA,NA,NA,NA,NA,NA,NA,NA,NA,NA,NA,NA,NA,NA,NA,NA,NA,NA,NA,NA,NA,NA,NA,NA,NA,NA,NA,NA,NA,NA,NA,"",NA,NA,NA,NA,NA,NA,NA,NA,NA,2025-11-21 01:25:00
"","https://psyc-201.github.io/xiang2023/exp/index1.html?PROLIFIC_PID=REDACTED&STUDY_ID=691f8ca61c6b4dcbb0aeb5f4&SESSION_ID=691fbc72b93567c443ca7ca3","fullscreen",1,15889,"0.0-1.0","MMAUNmjXOWwtcLLPHZWMslNI/0Vv8Ra/gx0lqCnwI7cb3klSTHD517uwqWWe7TXboCiXC5+unroVx3TIumrtXLo2N7oHTxkEotyUNfd5ydiQnJtJe8EeGRkqUIwbrc4qVkOErZTWz3CaxSDF07OhGNMT1x4pMC0V3XslszYcdVcisiYfQGy6FxxxAJ58AzFsx6u2hJk9/jFi5AZqnM4GqGcT9lZ8J569i2qjo7dKIZHyRC7sa9+98R9xajcetI6sv8DMM3udOMPdmUKv9dIsubf5twmFIQzTzOLmbRFliEXU22HkWhAYnjkYS4ssdfvMfvIhealaJTsYw9U7Uf+9dw==","691f8ca61c6b4dcbb0aeb5f4","691fbc72b93567c443ca7ca3","index1","<span style='color:red'>Fail,<span style='color:red'>Fail,<span style='color:green'>Lift,<span style='color:green'>Lift,<span style='color:red'>Fail,<span style='color:red'>Fail,<span style='color:red'>Fail,<span style='color:red'>Fail,<span style='color:green'>Lift,<span style='color:red'>Fail,<span style='color:red'>Fail,<span style='color:green'>Lift","<span style='color:red'>Fail,<span style='color:red'>Fail,<span style='color:green'>Lift,<span style='color:green'>Lift,<span style='color:green'>Lift,<span style='color:green'>Lift,<span style='color:red'>Fail,<span style='color:green'>Lift,<span style='color:green'>Lift,<span style='color:green'>Lift,<span style='color:red'>Fail,<span style='color:green'>Lift","<span style='color:red'>Fail,<span style='color:green'>Lift,<span style='color:green'>Lift,<span style='color:red'>Fail,<span style='color:green'>Lift,<span style='color:green'>Lift","0,0,1,1,0,0,0,0,1,0,0,1","0,0,1,1,1,1,0,1,1,1,0,1","0,1,1,0,1,1",10,20,20,"true","","","","","",NA,"",NA,NA,NA,NA,NA,NA,NA,NA,NA,NA,NA,NA,NA,NA,NA,NA,NA,NA,NA,NA,NA,NA,NA,NA,NA,NA,NA,NA,NA,NA,NA,NA,NA,NA,NA,NA,NA,NA,NA,"",NA,NA,NA,NA,NA,NA,NA,NA,NA,2025-11-21 01:25:00
"105335.80000007153","https://psyc-201.github.io/xiang2023/exp/index1.html?PROLIFIC_PID=REDACTED&STUDY_ID=691f8ca61c6b4dcbb0aeb5f4&SESSION_ID=691fbc72b93567c443ca7ca3","instructions",2,121226,"0.0-2.0","MMAUNmjXOWwtcLLPHZWMslNI/0Vv8Ra/gx0lqCnwI7cb3klSTHD517uwqWWe7TXboCiXC5+unroVx3TIumrtXLo2N7oHTxkEotyUNfd5ydiQnJtJe8EeGRkqUIwbrc4qVkOErZTWz3CaxSDF07OhGNMT1x4pMC0V3XslszYcdVcisiYfQGy6FxxxAJ58AzFsx6u2hJk9/jFi5AZqnM4GqGcT9lZ8J569i2qjo7dKIZHyRC7sa9+98R9xajcetI6sv8DMM3udOMPdmUKv9dIsubf5twmFIQzTzOLmbRFliEXU22HkWhAYnjkYS4ssdfvMfvIhealaJTsYw9U7Uf+9dw==","691f8ca61c6b4dcbb0aeb5f4","691fbc72b93567c443ca7ca3","index1","<span style='color:red'>Fail,<span style='color:red'>Fail,<span style='color:green'>Lift,<span style='color:green'>Lift,<span style='color:red'>Fail,<span style='color:red'>Fail,<span style='color:red'>Fail,<span style='color:red'>Fail,<span style='color:green'>Lift,<span style='color:red'>Fail,<span style='color:red'>Fail,<span style='color:green'>Lift","<span style='color:red'>Fail,<span style='color:red'>Fail,<span style='color:green'>Lift,<span style='color:green'>Lift,<span style='color:green'>Lift,<span style='color:green'>Lift,<span style='color:red'>Fail,<span style='color:green'>Lift,<span style='color:green'>Lift,<span style='color:green'>Lift,<span style='color:red'>Fail,<span style='color:green'>Lift","<span style='color:red'>Fail,<span style='color:green'>Lift,<span style='color:green'>Lift,<span style='color:red'>Fail,<span style='color:green'>Lift,<span style='color:green'>Lift","0,0,1,1,0,0,0,0,1,0,0,1","0,0,1,1,1,1,0,1,1,1,0,1","0,1,1,0,1,1",10,20,20,"","[{""page_index"":0,""viewing_time"":14520.300000071526},{""page_index"":1,""viewing_time"":16533.5},{""page_index"":2,""viewing_time"":8147.899999976158},{""page_index"":3,""viewing_time"":33123.5},{""page_index"":4,""viewing_time"":8195.299999952316},{""page_index"":5,""viewing_time"":13364.700000047684},{""page_index"":6,""viewing_time"":11450.100000023842}]","","","","",NA,"",NA,NA,NA,NA,NA,NA,NA,NA,NA,NA,NA,NA,NA,NA,NA,NA,NA,NA,NA,NA,NA,NA,NA,NA,NA,NA,NA,NA,NA,NA,NA,NA,NA,NA,NA,NA,NA,NA,NA,"",NA,NA,NA,NA,NA,NA,NA,NA,NA,2025-11-21 01:25:00
"null","https://psyc-201.github.io/xiang2023/exp/index1.html?PROLIFIC_PID=REDACTED&STUDY_ID=691f8ca61c6b4dcbb0aeb5f4&SESSION_ID=691fbc72b93567c443ca7ca3","html-keyboard-response",3,122240,"0.0-3.0","MMAUNmjXOWwtcLLPHZWMslNI/0Vv8Ra/gx0lqCnwI7cb3klSTHD517uwqWWe7TXboCiXC5+unroVx3TIumrtXLo2N7oHTxkEotyUNfd5ydiQnJtJe8EeGRkqUIwbrc4qVkOErZTWz3CaxSDF07OhGNMT1x4pMC0V3XslszYcdVcisiYfQGy6FxxxAJ58AzFsx6u2hJk9/jFi5AZqnM4GqGcT9lZ8J569i2qjo7dKIZHyRC7sa9+98R9xajcetI6sv8DMM3udOMPdmUKv9dIsubf5twmFIQzTzOLmbRFliEXU22HkWhAYnjkYS4ssdfvMfvIhealaJTsYw9U7Uf+9dw==","691f8ca61c6b4dcbb0aeb5f4","691fbc72b93567c443ca7ca3","index1","<span style='color:red'>Fail,<span style='color:red'>Fail,<span style='color:green'>Lift,<span style='color:green'>Lift,<span style='color:red'>Fail,<span style='color:red'>Fail,<span style='color:red'>Fail,<span style='color:red'>Fail,<span style='color:green'>Lift,<span style='color:red'>Fail,<span style='color:red'>Fail,<span style='color:green'>Lift","<span style='color:red'>Fail,<span style='color:red'>Fail,<span style='color:green'>Lift,<span style='color:green'>Lift,<span style='color:green'>Lift,<span style='color:green'>Lift,<span style='color:red'>Fail,<span style='color:green'>Lift,<span style='color:green'>Lift,<span style='color:green'>Lift,<span style='color:red'>Fail,<span style='color:green'>Lift","<span style='color:red'>Fail,<span style='color:green'>Lift,<span style='color:green'>Lift,<span style='color:red'>Fail,<span style='color:green'>Lift,<span style='color:green'>Lift","0,0,1,1,0,0,0,0,1,0,0,1","0,0,1,1,1,1,0,1,1,1,0,1","0,1,1,0,1,1",10,20,20,"",""," ","null","","",NA,"",NA,NA,NA,NA,NA,NA,NA,NA,NA,NA,NA,NA,NA,NA,NA,NA,NA,NA,NA,NA,NA,NA,NA,NA,NA,NA,NA,NA,NA,NA,NA,NA,NA,NA,NA,NA,NA,NA,NA,"",NA,NA,NA,NA,NA,NA,NA,NA,NA,2025-11-21 01:25:00
"55566.39999997616","https://psyc-201.github.io/xiang2023/exp/index1.html?PROLIFIC_PID=REDACTED&STUDY_ID=691f8ca61c6b4dcbb0aeb5f4&SESSION_ID=691fbc72b93567c443ca7ca3","survey-multi-choice",4,177810,"0.0-4.0","MMAUNmjXOWwtcLLPHZWMslNI/0Vv8Ra/gx0lqCnwI7cb3klSTHD517uwqWWe7TXboCiXC5+unroVx3TIumrtXLo2N7oHTxkEotyUNfd5ydiQnJtJe8EeGRkqUIwbrc4qVkOErZTWz3CaxSDF07OhGNMT1x4pMC0V3XslszYcdVcisiYfQGy6FxxxAJ58AzFsx6u2hJk9/jFi5AZqnM4GqGcT9lZ8J569i2qjo7dKIZHyRC7sa9+98R9xajcetI6sv8DMM3udOMPdmUKv9dIsubf5twmFIQzTzOLmbRFliEXU22HkWhAYnjkYS4ssdfvMfvIhealaJTsYw9U7Uf+9dw==","691f8ca61c6b4dcbb0aeb5f4","691fbc72b93567c443ca7ca3","index1","<span style='color:red'>Fail,<span style='color:red'>Fail,<span style='color:green'>Lift,<span style='color:green'>Lift,<span style='color:red'>Fail,<span style='color:red'>Fail,<span style='color:red'>Fail,<span style='color:red'>Fail,<span style='color:green'>Lift,<span style='color:red'>Fail,<span style='color:red'>Fail,<span style='color:green'>Lift","<span style='color:red'>Fail,<span style='color:red'>Fail,<span style='color:green'>Lift,<span style='color:green'>Lift,<span style='color:green'>Lift,<span style='color:green'>Lift,<span style='color:red'>Fail,<span style='color:green'>Lift,<span style='color:green'>Lift,<span style='color:green'>Lift,<span style='color:red'>Fail,<span style='color:green'>Lift","<span style='color:red'>Fail,<span style='color:green'>Lift,<span style='color:green'>Lift,<span style='color:red'>Fail,<span style='color:green'>Lift,<span style='color:green'>Lift","0,0,1,1,0,0,0,0,1,0,0,1","0,0,1,1,1,1,0,1,1,1,0,1","0,1,1,0,1,1",10,20,20,"","","","","{""Q0"":""It consists of multiple contests, each contest with three rounds."",""Q1"":""When a new contest begins."",""Q2"":""The box weight always stays the same (equivalent to strength of 5)."",""Q3"":""Each will get $20."",""Q4"":""How close my guesses are to the actual outcome.""}","[0,1,2,3,4]",NA,"",NA,NA,NA,NA,NA,NA,NA,NA,NA,NA,NA,NA,NA,NA,NA,NA,NA,NA,NA,NA,NA,NA,NA,NA,NA,NA,NA,NA,NA,NA,NA,NA,NA,NA,NA,NA,NA,NA,NA,"",NA,NA,NA,NA,NA,NA,NA,NA,NA,2025-11-21 01:25:00
"45036.200000047684","https://psyc-201.github.io/xiang2023/exp/index1.html?PROLIFIC_PID=REDACTED&STUDY_ID=691f8ca61c6b4dcbb0aeb5f4&SESSION_ID=691fbc72b93567c443ca7ca3","instructions",5,222849,"0.0-305.0","MMAUNmjXOWwtcLLPHZWMslNI/0Vv8Ra/gx0lqCnwI7cb3klSTHD517uwqWWe7TXboCiXC5+unroVx3TIumrtXLo2N7oHTxkEotyUNfd5ydiQnJtJe8EeGRkqUIwbrc4qVkOErZTWz3CaxSDF07OhGNMT1x4pMC0V3XslszYcdVcisiYfQGy6FxxxAJ58AzFsx6u2hJk9/jFi5AZqnM4GqGcT9lZ8J569i2qjo7dKIZHyRC7sa9+98R9xajcetI6sv8DMM3udOMPdmUKv9dIsubf5twmFIQzTzOLmbRFliEXU22HkWhAYnjkYS4ssdfvMfvIhealaJTsYw9U7Uf+9dw==","691f8ca61c6b4dcbb0aeb5f4","691fbc72b93567c443ca7ca3","index1","<span style='color:red'>Fail,<span style='color:red'>Fail,<span style='color:green'>Lift,<span style='color:green'>Lift,<span style='color:red'>Fail,<span style='color:red'>Fail,<span style='color:red'>Fail,<span style='color:red'>Fail,<span style='color:green'>Lift,<span style='color:red'>Fail,<span style='color:red'>Fail,<span style='color:green'>Lift","<span style='color:red'>Fail,<span style='color:red'>Fail,<span style='color:green'>Lift,<span style='color:green'>Lift,<span style='color:green'>Lift,<span style='color:green'>Lift,<span style='color:red'>Fail,<span style='color:green'>Lift,<span style='color:green'>Lift,<span style='color:green'>Lift,<span style='color:red'>Fail,<span style='color:green'>Lift","<span style='color:red'>Fail,<span style='color:green'>Lift,<span style='color:green'>Lift,<span style='color:red'>Fail,<span style='color:green'>Lift,<span style='color:green'>Lift","0,0,1,1,0,0,0,0,1,0,0,1","0,0,1,1,1,1,0,1,1,1,0,1","0,1,1,0,1,1",10,20,20,"","[{""page_index"":0,""viewing_time"":41090.200000047684},{""page_index"":1,""viewing_time"":3945.7999999523163}]","","","","",NA,"",NA,NA,NA,NA,NA,NA,NA,NA,NA,NA,NA,NA,NA,NA,NA,NA,NA,NA,NA,NA,NA,NA,NA,NA,NA,NA,NA,NA,NA,NA,NA,NA,NA,NA,NA,NA,NA,NA,NA,"",NA,NA,NA,NA,NA,NA,NA,NA,NA,2025-11-21 01:25:00
"null","https://psyc-201.github.io/xiang2023/exp/index1.html?PROLIFIC_PID=REDACTED&STUDY_ID=691f8ca61c6b4dcbb0aeb5f4&SESSION_ID=691fbc72b93567c443ca7ca3","html-keyboard-response",6,223853,"0.0-306.0","MMAUNmjXOWwtcLLPHZWMslNI/0Vv8Ra/gx0lqCnwI7cb3klSTHD517uwqWWe7TXboCiXC5+unroVx3TIumrtXLo2N7oHTxkEotyUNfd5ydiQnJtJe8EeGRkqUIwbrc4qVkOErZTWz3CaxSDF07OhGNMT1x4pMC0V3XslszYcdVcisiYfQGy6FxxxAJ58AzFsx6u2hJk9/jFi5AZqnM4GqGcT9lZ8J569i2qjo7dKIZHyRC7sa9+98R9xajcetI6sv8DMM3udOMPdmUKv9dIsubf5twmFIQzTzOLmbRFliEXU22HkWhAYnjkYS4ssdfvMfvIhealaJTsYw9U7Uf+9dw==","691f8ca61c6b4dcbb0aeb5f4","691fbc72b93567c443ca7ca3","index1","<span style='color:red'>Fail,<span style='color:red'>Fail,<span style='color:green'>Lift,<span style='color:green'>Lift,<span style='color:red'>Fail,<span style='color:red'>Fail,<span style='color:red'>Fail,<span style='color:red'>Fail,<span style='color:green'>Lift,<span style='color:red'>Fail,<span style='color:red'>Fail,<span style='color:green'>Lift","<span style='color:red'>Fail,<span style='color:red'>Fail,<span style='color:green'>Lift,<span style='color:green'>Lift,<span style='color:green'>Lift,<span style='color:green'>Lift,<span style='color:red'>Fail,<span style='color:green'>Lift,<span style='color:green'>Lift,<span style='color:green'>Lift,<span style='color:red'>Fail,<span style='color:green'>Lift","<span style='color:red'>Fail,<span style='color:green'>Lift,<span style='color:green'>Lift,<span style='color:red'>Fail,<span style='color:green'>Lift,<span style='color:green'>Lift","0,0,1,1,0,0,0,0,1,0,0,1","0,0,1,1,1,1,0,1,1,1,0,1","0,1,1,0,1,1",10,20,20,"",""," ","null","","",1,"",NA,NA,NA,NA,NA,NA,NA,NA,NA,NA,NA,NA,NA,NA,NA,NA,NA,NA,NA,NA,NA,NA,NA,NA,NA,NA,NA,NA,NA,NA,NA,NA,NA,NA,NA,NA,NA,NA,NA,"",NA,NA,NA,NA,NA,NA,NA,NA,NA,2025-11-21 01:25:00
"null","https://psyc-201.github.io/xiang2023/exp/index1.html?PROLIFIC_PID=REDACTED&STUDY_ID=691f8ca61c6b4dcbb0aeb5f4&SESSION_ID=691fbc72b93567c443ca7ca3","html-keyboard-response",7,226862,"0.0-307.0","MMAUNmjXOWwtcLLPHZWMslNI/0Vv8Ra/gx0lqCnwI7cb3klSTHD517uwqWWe7TXboCiXC5+unroVx3TIumrtXLo2N7oHTxkEotyUNfd5ydiQnJtJe8EeGRkqUIwbrc4qVkOErZTWz3CaxSDF07OhGNMT1x4pMC0V3XslszYcdVcisiYfQGy6FxxxAJ58AzFsx6u2hJk9/jFi5AZqnM4GqGcT9lZ8J569i2qjo7dKIZHyRC7sa9+98R9xajcetI6sv8DMM3udOMPdmUKv9dIsubf5twmFIQzTzOLmbRFliEXU22HkWhAYnjkYS4ssdfvMfvIhealaJTsYw9U7Uf+9dw==","691f8ca61c6b4dcbb0aeb5f4","691fbc72b93567c443ca7ca3","index1","<span style='color:red'>Fail,<span style='color:red'>Fail,<span style='color:green'>Lift,<span style='color:green'>Lift,<span style='color:red'>Fail,<span style='color:red'>Fail,<span style='color:red'>Fail,<span style='color:red'>Fail,<span style='color:green'>Lift,<span style='color:red'>Fail,<span style='color:red'>Fail,<span style='color:green'>Lift","<span style='color:red'>Fail,<span style='color:red'>Fail,<span style='color:green'>Lift,<span style='color:green'>Lift,<span style='color:green'>Lift,<span style='color:green'>Lift,<span style='color:red'>Fail,<span style='color:green'>Lift,<span style='color:green'>Lift,<span style='color:green'>Lift,<span style='color:red'>Fail,<span style='color:green'>Lift","<span style='color:red'>Fail,<span style='color:green'>Lift,<span style='color:green'>Lift,<span style='color:red'>Fail,<span style='color:green'>Lift,<span style='color:green'>Lift","0,0,1,1,0,0,0,0,1,0,0,1","0,0,1,1,1,1,0,1,1,1,0,1","0,1,1,0,1,1",10,20,20,"","","<p style='font-size:30px'><b> New Contest! </b></p>","null","","",1,"",NA,NA,NA,NA,NA,NA,NA,NA,NA,NA,NA,NA,NA,NA,NA,NA,NA,NA,NA,NA,NA,NA,NA,NA,NA,NA,NA,NA,NA,NA,NA,NA,NA,NA,NA,NA,NA,NA,NA,"",NA,NA,NA,NA,NA,NA,NA,NA,NA,2025-11-21 01:25:00
"13262.799999952316","https://psyc-201.github.io/xiang2023/exp/index1.html?PROLIFIC_PID=REDACTED&STUDY_ID=691f8ca61c6b4dcbb0aeb5f4&SESSION_ID=691fbc72b93567c443ca7ca3","survey-html-form",8,240132,"0.0-308.0","MMAUNmjXOWwtcLLPHZWMslNI/0Vv8Ra/gx0lqCnwI7cb3klSTHD517uwqWWe7TXboCiXC5+unroVx3TIumrtXLo2N7oHTxkEotyUNfd5ydiQnJtJe8EeGRkqUIwbrc4qVkOErZTWz3CaxSDF07OhGNMT1x4pMC0V3XslszYcdVcisiYfQGy6FxxxAJ58AzFsx6u2hJk9/jFi5AZqnM4GqGcT9lZ8J569i2qjo7dKIZHyRC7sa9+98R9xajcetI6sv8DMM3udOMPdmUKv9dIsubf5twmFIQzTzOLmbRFliEXU22HkWhAYnjkYS4ssdfvMfvIhealaJTsYw9U7Uf+9dw==","691f8ca61c6b4dcbb0aeb5f4","691fbc72b93567c443ca7ca3","index1","<span style='color:red'>Fail,<span style='color:red'>Fail,<span style='color:green'>Lift,<span style='color:green'>Lift,<span style='color:red'>Fail,<span style='color:red'>Fail,<span style='color:red'>Fail,<span style='color:red'>Fail,<span style='color:green'>Lift,<span style='color:red'>Fail,<span style='color:red'>Fail,<span style='color:green'>Lift","<span style='color:red'>Fail,<span style='color:red'>Fail,<span style='color:green'>Lift,<span style='color:green'>Lift,<span style='color:green'>Lift,<span style='color:green'>Lift,<span style='color:red'>Fail,<span style='color:green'>Lift,<span style='color:green'>Lift,<span style='color:green'>Lift,<span style='color:red'>Fail,<span style='color:green'>Lift","<span style='color:red'>Fail,<span style='color:green'>Lift,<span style='color:green'>Lift,<span style='color:red'>Fail,<span style='color:green'>Lift,<span style='color:green'>Lift","0,0,1,1,0,0,0,0,1,0,0,1","0,0,1,1,1,1,0,1,1,1,0,1","0,1,1,0,1,1",10,20,20,"","","","","{""box1"":""5"",""box2"":""5""}","",1,"round1_outcome",1,1,1,5,5,NA,NA,0,0,10,5,5,NA,NA,0,0,10,NA,NA,NA,NA,NA,NA,NA,NA,NA,NA,NA,NA,NA,NA,NA,NA,NA,NA,NA,NA,NA,NA,"",NA,NA,NA,NA,NA,NA,NA,NA,NA,2025-11-21 01:25:00
"16180.699999928474","https://psyc-201.github.io/xiang2023/exp/index1.html?PROLIFIC_PID=REDACTED&STUDY_ID=691f8ca61c6b4dcbb0aeb5f4&SESSION_ID=691fbc72b93567c443ca7ca3","survey-html-form",9,256315,"0.0-309.0","MMAUNmjXOWwtcLLPHZWMslNI/0Vv8Ra/gx0lqCnwI7cb3klSTHD517uwqWWe7TXboCiXC5+unroVx3TIumrtXLo2N7oHTxkEotyUNfd5ydiQnJtJe8EeGRkqUIwbrc4qVkOErZTWz3CaxSDF07OhGNMT1x4pMC0V3XslszYcdVcisiYfQGy6FxxxAJ58AzFsx6u2hJk9/jFi5AZqnM4GqGcT9lZ8J569i2qjo7dKIZHyRC7sa9+98R9xajcetI6sv8DMM3udOMPdmUKv9dIsubf5twmFIQzTzOLmbRFliEXU22HkWhAYnjkYS4ssdfvMfvIhealaJTsYw9U7Uf+9dw==","691f8ca61c6b4dcbb0aeb5f4","691fbc72b93567c443ca7ca3","index1","<span style='color:red'>Fail,<span style='color:red'>Fail,<span style='color:green'>Lift,<span style='color:green'>Lift,<span style='color:red'>Fail,<span style='color:red'>Fail,<span style='color:red'>Fail,<span style='color:red'>Fail,<span style='color:green'>Lift,<span style='color:red'>Fail,<span style='color:red'>Fail,<span style='color:green'>Lift","<span style='color:red'>Fail,<span style='color:red'>Fail,<span style='color:green'>Lift,<span style='color:green'>Lift,<span style='color:green'>Lift,<span style='color:green'>Lift,<span style='color:red'>Fail,<span style='color:green'>Lift,<span style='color:green'>Lift,<span style='color:green'>Lift,<span style='color:red'>Fail,<span style='color:green'>Lift","<span style='color:red'>Fail,<span style='color:green'>Lift,<span style='color:green'>Lift,<span style='color:red'>Fail,<span style='color:green'>Lift,<span style='color:green'>Lift","0,0,1,1,0,0,0,0,1,0,0,1","0,0,1,1,1,1,0,1,1,1,0,1","0,1,1,0,1,1",10,20,20,"","","","","{""box1"":""30"",""box2"":""30""}","",1,"round2_ready",2,1,2,NA,NA,NA,NA,NA,NA,NA,NA,NA,NA,NA,NA,NA,NA,30,30,30,30,NA,NA,NA,NA,NA,NA,NA,NA,NA,NA,NA,NA,NA,NA,NA,NA,NA,NA,"",NA,NA,NA,NA,NA,NA,NA,NA,NA,2025-11-21 01:25:00
"24766.399999976158","https://psyc-201.github.io/xiang2023/exp/index1.html?PROLIFIC_PID=REDACTED&STUDY_ID=691f8ca61c6b4dcbb0aeb5f4&SESSION_ID=691fbc72b93567c443ca7ca3","survey-html-form",10,281084,"0.0-310.0","MMAUNmjXOWwtcLLPHZWMslNI/0Vv8Ra/gx0lqCnwI7cb3klSTHD517uwqWWe7TXboCiXC5+unroVx3TIumrtXLo2N7oHTxkEotyUNfd5ydiQnJtJe8EeGRkqUIwbrc4qVkOErZTWz3CaxSDF07OhGNMT1x4pMC0V3XslszYcdVcisiYfQGy6FxxxAJ58AzFsx6u2hJk9/jFi5AZqnM4GqGcT9lZ8J569i2qjo7dKIZHyRC7sa9+98R9xajcetI6sv8DMM3udOMPdmUKv9dIsubf5twmFIQzTzOLmbRFliEXU22HkWhAYnjkYS4ssdfvMfvIhealaJTsYw9U7Uf+9dw==","691f8ca61c6b4dcbb0aeb5f4","691fbc72b93567c443ca7ca3","index1","<span style='color:red'>Fail,<span style='color:red'>Fail,<span style='color:green'>Lift,<span style='color:green'>Lift,<span style='color:red'>Fail,<span style='color:red'>Fail,<span style='color:red'>Fail,<span style='color:red'>Fail,<span style='color:green'>Lift,<span style='color:red'>Fail,<span style='color:red'>Fail,<span style='color:green'>Lift","<span style='color:red'>Fail,<span style='color:red'>Fail,<span style='color:green'>Lift,<span style='color:green'>Lift,<span style='color:green'>Lift,<span style='color:green'>Lift,<span style='color:red'>Fail,<span style='color:green'>Lift,<span style='color:green'>Lift,<span style='color:green'>Lift,<span style='color:red'>Fail,<span style='color:green'>Lift","<span style='color:red'>Fail,<span style='color:green'>Lift,<span style='color:green'>Lift,<span style='color:red'>Fail,<span style='color:green'>Lift,<span style='color:green'>Lift","0,0,1,1,0,0,0,0,1,0,0,1","0,0,1,1,1,1,0,1,1,1,0,1","0,1,1,0,1,1",10,20,20,"","","","","{""box1"":""5"",""box2"":""5"",""box4"":""5""}","",1,"round2_outcome",3,1,2,5,5,NA,5,0,1,20,NA,NA,NA,NA,NA,NA,NA,NA,NA,NA,NA,5,5,NA,5,0,1,20,NA,NA,NA,NA,NA,NA,NA,NA,NA,NA,NA,"",NA,NA,NA,NA,NA,NA,NA,NA,NA,2025-11-21 01:25:00
"11818.5","https://psyc-201.github.io/xiang2023/exp/index1.html?PROLIFIC_PID=REDACTED&STUDY_ID=691f8ca61c6b4dcbb0aeb5f4&SESSION_ID=691fbc72b93567c443ca7ca3","survey-html-form",11,292905,"0.0-311.0","MMAUNmjXOWwtcLLPHZWMslNI/0Vv8Ra/gx0lqCnwI7cb3klSTHD517uwqWWe7TXboCiXC5+unroVx3TIumrtXLo2N7oHTxkEotyUNfd5ydiQnJtJe8EeGRkqUIwbrc4qVkOErZTWz3CaxSDF07OhGNMT1x4pMC0V3XslszYcdVcisiYfQGy6FxxxAJ58AzFsx6u2hJk9/jFi5AZqnM4GqGcT9lZ8J569i2qjo7dKIZHyRC7sa9+98R9xajcetI6sv8DMM3udOMPdmUKv9dIsubf5twmFIQzTzOLmbRFliEXU22HkWhAYnjkYS4ssdfvMfvIhealaJTsYw9U7Uf+9dw==","691f8ca61c6b4dcbb0aeb5f4","691fbc72b93567c443ca7ca3","index1","<span style='color:red'>Fail,<span style='color:red'>Fail,<span style='color:green'>Lift,<span style='color:green'>Lift,<span style='color:red'>Fail,<span style='color:red'>Fail,<span style='color:red'>Fail,<span style='color:red'>Fail,<span style='color:green'>Lift,<span style='color:red'>Fail,<span style='color:red'>Fail,<span style='color:green'>Lift","<span style='color:red'>Fail,<span style='color:red'>Fail,<span style='color:green'>Lift,<span style='color:green'>Lift,<span style='color:green'>Lift,<span style='color:green'>Lift,<span style='color:red'>Fail,<span style='color:green'>Lift,<span style='color:green'>Lift,<span style='color:green'>Lift,<span style='color:red'>Fail,<span style='color:green'>Lift","<span style='color:red'>Fail,<span style='color:green'>Lift,<span style='color:green'>Lift,<span style='color:red'>Fail,<span style='color:green'>Lift,<span style='color:green'>Lift","0,0,1,1,0,0,0,0,1,0,0,1","0,0,1,1,1,1,0,1,1,1,0,1","0,1,1,0,1,1",10,20,20,"","","","","{""box1"":""50""}","",1,"round3_ready",4,1,3,NA,NA,NA,NA,NA,NA,NA,NA,NA,NA,NA,NA,NA,NA,50,50,NA,NA,NA,NA,NA,NA,NA,NA,NA,50,50,NA,NA,NA,NA,NA,NA,NA,NA,NA,"",NA,NA,NA,NA,NA,NA,NA,NA,NA,2025-11-21 01:25:00
"21356.799999952316","https://psyc-201.github.io/xiang2023/exp/index1.html?PROLIFIC_PID=REDACTED&STUDY_ID=691f8ca61c6b4dcbb0aeb5f4&SESSION_ID=691fbc72b93567c443ca7ca3","survey-html-form",12,314264,"0.0-313.0-0.0","MMAUNmjXOWwtcLLPHZWMslNI/0Vv8Ra/gx0lqCnwI7cb3klSTHD517uwqWWe7TXboCiXC5+unroVx3TIumrtXLo2N7oHTxkEotyUNfd5ydiQnJtJe8EeGRkqUIwbrc4qVkOErZTWz3CaxSDF07OhGNMT1x4pMC0V3XslszYcdVcisiYfQGy6FxxxAJ58AzFsx6u2hJk9/jFi5AZqnM4GqGcT9lZ8J569i2qjo7dKIZHyRC7sa9+98R9xajcetI6sv8DMM3udOMPdmUKv9dIsubf5twmFIQzTzOLmbRFliEXU22HkWhAYnjkYS4ssdfvMfvIhealaJTsYw9U7Uf+9dw==","691f8ca61c6b4dcbb0aeb5f4","691fbc72b93567c443ca7ca3","index1","<span style='color:red'>Fail,<span style='color:red'>Fail,<span style='color:green'>Lift,<span style='color:green'>Lift,<span style='color:red'>Fail,<span style='color:red'>Fail,<span style='color:red'>Fail,<span style='color:red'>Fail,<span style='color:green'>Lift,<span style='color:red'>Fail,<span style='color:red'>Fail,<span style='color:green'>Lift","<span style='color:red'>Fail,<span style='color:red'>Fail,<span style='color:green'>Lift,<span style='color:green'>Lift,<span style='color:green'>Lift,<span style='color:green'>Lift,<span style='color:red'>Fail,<span style='color:green'>Lift,<span style='color:green'>Lift,<span style='color:green'>Lift,<span style='color:red'>Fail,<span style='color:green'>Lift","<span style='color:red'>Fail,<span style='color:green'>Lift,<span style='color:green'>Lift,<span style='color:red'>Fail,<span style='color:green'>Lift,<span style='color:green'>Lift","0,0,1,1,0,0,0,0,1,0,0,1","0,0,1,1,1,1,0,1,1,1,0,1","0,1,1,0,1,1",10,20,20,"","","","","{""box1"":""2"",""box2"":""5"",""box3"":""999"",""box4"":""999""}","",2,"round3_fail",5,1,3,2,5,NA,NA,0,0,20,NA,NA,NA,NA,NA,NA,NA,NA,NA,NA,NA,NA,NA,NA,NA,NA,NA,NA,NA,NA,1,1,2,5,0,0,20,NA,NA,"",NA,NA,NA,NA,NA,NA,NA,NA,NA,2025-11-21 01:25:00
"null","https://psyc-201.github.io/xiang2023/exp/index1.html?PROLIFIC_PID=REDACTED&STUDY_ID=691f8ca61c6b4dcbb0aeb5f4&SESSION_ID=691fbc72b93567c443ca7ca3","html-keyboard-response",13,317270,"0.0-316.0","MMAUNmjXOWwtcLLPHZWMslNI/0Vv8Ra/gx0lqCnwI7cb3klSTHD517uwqWWe7TXboCiXC5+unroVx3TIumrtXLo2N7oHTxkEotyUNfd5ydiQnJtJe8EeGRkqUIwbrc4qVkOErZTWz3CaxSDF07OhGNMT1x4pMC0V3XslszYcdVcisiYfQGy6FxxxAJ58AzFsx6u2hJk9/jFi5AZqnM4GqGcT9lZ8J569i2qjo7dKIZHyRC7sa9+98R9xajcetI6sv8DMM3udOMPdmUKv9dIsubf5twmFIQzTzOLmbRFliEXU22HkWhAYnjkYS4ssdfvMfvIhealaJTsYw9U7Uf+9dw==","691f8ca61c6b4dcbb0aeb5f4","691fbc72b93567c443ca7ca3","index1","<span style='color:red'>Fail,<span style='color:red'>Fail,<span style='color:green'>Lift,<span style='color:green'>Lift,<span style='color:red'>Fail,<span style='color:red'>Fail,<span style='color:red'>Fail,<span style='color:red'>Fail,<span style='color:green'>Lift,<span style='color:red'>Fail,<span style='color:red'>Fail,<span style='color:green'>Lift","<span style='color:red'>Fail,<span style='color:red'>Fail,<span style='color:green'>Lift,<span style='color:green'>Lift,<span style='color:green'>Lift,<span style='color:green'>Lift,<span style='color:red'>Fail,<span style='color:green'>Lift,<span style='color:green'>Lift,<span style='color:green'>Lift,<span style='color:red'>Fail,<span style='color:green'>Lift","<span style='color:red'>Fail,<span style='color:green'>Lift,<span style='color:green'>Lift,<span style='color:red'>Fail,<span style='color:green'>Lift,<span style='color:green'>Lift","0,0,1,1,0,0,0,0,1,0,0,1","0,0,1,1,1,1,0,1,1,1,0,1","0,1,1,0,1,1",10,20,20,"","","<p style='font-size:30px'><b> New Contest! </b></p>","null","","",2,"",NA,NA,NA,NA,NA,NA,NA,NA,NA,NA,NA,NA,NA,NA,NA,NA,NA,NA,NA,NA,NA,NA,NA,NA,NA,NA,NA,NA,NA,NA,NA,NA,NA,NA,NA,NA,NA,NA,NA,"",NA,NA,NA,NA,NA,NA,NA,NA,NA,2025-11-21 01:25:00
"10507","https://psyc-201.github.io/xiang2023/exp/index1.html?PROLIFIC_PID=REDACTED&STUDY_ID=691f8ca61c6b4dcbb0aeb5f4&SESSION_ID=691fbc72b93567c443ca7ca3","survey-html-form",14,327780,"0.0-317.0","MMAUNmjXOWwtcLLPHZWMslNI/0Vv8Ra/gx0lqCnwI7cb3klSTHD517uwqWWe7TXboCiXC5+unroVx3TIumrtXLo2N7oHTxkEotyUNfd5ydiQnJtJe8EeGRkqUIwbrc4qVkOErZTWz3CaxSDF07OhGNMT1x4pMC0V3XslszYcdVcisiYfQGy6FxxxAJ58AzFsx6u2hJk9/jFi5AZqnM4GqGcT9lZ8J569i2qjo7dKIZHyRC7sa9+98R9xajcetI6sv8DMM3udOMPdmUKv9dIsubf5twmFIQzTzOLmbRFliEXU22HkWhAYnjkYS4ssdfvMfvIhealaJTsYw9U7Uf+9dw==","691f8ca61c6b4dcbb0aeb5f4","691fbc72b93567c443ca7ca3","index1","<span style='color:red'>Fail,<span style='color:red'>Fail,<span style='color:green'>Lift,<span style='color:green'>Lift,<span style='color:red'>Fail,<span style='color:red'>Fail,<span style='color:red'>Fail,<span style='color:red'>Fail,<span style='color:green'>Lift,<span style='color:red'>Fail,<span style='color:red'>Fail,<span style='color:green'>Lift","<span style='color:red'>Fail,<span style='color:red'>Fail,<span style='color:green'>Lift,<span style='color:green'>Lift,<span style='color:green'>Lift,<span style='color:green'>Lift,<span style='color:red'>Fail,<span style='color:green'>Lift,<span style='color:green'>Lift,<span style='color:green'>Lift,<span style='color:red'>Fail,<span style='color:green'>Lift","<span style='color:red'>Fail,<span style='color:green'>Lift,<span style='color:green'>Lift,<span style='color:red'>Fail,<span style='color:green'>Lift,<span style='color:green'>Lift","0,0,1,1,0,0,0,0,1,0,0,1","0,0,1,1,1,1,0,1,1,1,0,1","0,1,1,0,1,1",10,20,20,"","","","","{""box1"":""5"",""box2"":""5""}","",2,"round1_outcome",1,2,1,5,5,NA,NA,0,0,10,5,5,NA,NA,0,0,10,NA,NA,NA,NA,NA,NA,NA,NA,NA,NA,NA,NA,NA,NA,NA,NA,NA,NA,NA,NA,NA,NA,"",NA,NA,NA,NA,NA,NA,NA,NA,NA,2025-11-21 01:25:00
"11417.399999976158","https://psyc-201.github.io/xiang2023/exp/index1.html?PROLIFIC_PID=REDACTED&STUDY_ID=691f8ca61c6b4dcbb0aeb5f4&SESSION_ID=691fbc72b93567c443ca7ca3","survey-html-form",15,339200,"0.0-318.0","MMAUNmjXOWwtcLLPHZWMslNI/0Vv8Ra/gx0lqCnwI7cb3klSTHD517uwqWWe7TXboCiXC5+unroVx3TIumrtXLo2N7oHTxkEotyUNfd5ydiQnJtJe8EeGRkqUIwbrc4qVkOErZTWz3CaxSDF07OhGNMT1x4pMC0V3XslszYcdVcisiYfQGy6FxxxAJ58AzFsx6u2hJk9/jFi5AZqnM4GqGcT9lZ8J569i2qjo7dKIZHyRC7sa9+98R9xajcetI6sv8DMM3udOMPdmUKv9dIsubf5twmFIQzTzOLmbRFliEXU22HkWhAYnjkYS4ssdfvMfvIhealaJTsYw9U7Uf+9dw==","691f8ca61c6b4dcbb0aeb5f4","691fbc72b93567c443ca7ca3","index1","<span style='color:red'>Fail,<span style='color:red'>Fail,<span style='color:green'>Lift,<span style='color:green'>Lift,<span style='color:red'>Fail,<span style='color:red'>Fail,<span style='color:red'>Fail,<span style='color:red'>Fail,<span style='color:green'>Lift,<span style='color:red'>Fail,<span style='color:red'>Fail,<span style='color:green'>Lift","<span style='color:red'>Fail,<span style='color:red'>Fail,<span style='color:green'>Lift,<span style='color:green'>Lift,<span style='color:green'>Lift,<span style='color:green'>Lift,<span style='color:red'>Fail,<span style='color:green'>Lift,<span style='color:green'>Lift,<span style='color:green'>Lift,<span style='color:red'>Fail,<span style='color:green'>Lift","<span style='color:red'>Fail,<span style='color:green'>Lift,<span style='color:green'>Lift,<span style='color:red'>Fail,<span style='color:green'>Lift,<span style='color:green'>Lift","0,0,1,1,0,0,0,0,1,0,0,1","0,0,1,1,1,1,0,1,1,1,0,1","0,1,1,0,1,1",10,20,20,"","","","","{""box1"":""45"",""box2"":""55""}","",2,"round2_ready",2,2,2,NA,NA,NA,NA,NA,NA,NA,NA,NA,NA,NA,NA,NA,NA,45,55,45,55,NA,NA,NA,NA,NA,NA,NA,NA,NA,NA,NA,NA,NA,NA,NA,NA,NA,NA,"",NA,NA,NA,NA,NA,NA,NA,NA,NA,2025-11-21 01:25:00
"16055","https://psyc-201.github.io/xiang2023/exp/index1.html?PROLIFIC_PID=REDACTED&STUDY_ID=691f8ca61c6b4dcbb0aeb5f4&SESSION_ID=691fbc72b93567c443ca7ca3","survey-html-form",16,355257,"0.0-319.0","MMAUNmjXOWwtcLLPHZWMslNI/0Vv8Ra/gx0lqCnwI7cb3klSTHD517uwqWWe7TXboCiXC5+unroVx3TIumrtXLo2N7oHTxkEotyUNfd5ydiQnJtJe8EeGRkqUIwbrc4qVkOErZTWz3CaxSDF07OhGNMT1x4pMC0V3XslszYcdVcisiYfQGy6FxxxAJ58AzFsx6u2hJk9/jFi5AZqnM4GqGcT9lZ8J569i2qjo7dKIZHyRC7sa9+98R9xajcetI6sv8DMM3udOMPdmUKv9dIsubf5twmFIQzTzOLmbRFliEXU22HkWhAYnjkYS4ssdfvMfvIhealaJTsYw9U7Uf+9dw==","691f8ca61c6b4dcbb0aeb5f4","691fbc72b93567c443ca7ca3","index1","<span style='color:red'>Fail,<span style='color:red'>Fail,<span style='color:green'>Lift,<span style='color:green'>Lift,<span style='color:red'>Fail,<span style='color:red'>Fail,<span style='color:red'>Fail,<span style='color:red'>Fail,<span style='color:green'>Lift,<span style='color:red'>Fail,<span style='color:red'>Fail,<span style='color:green'>Lift","<span style='color:red'>Fail,<span style='color:red'>Fail,<span style='color:green'>Lift,<span style='color:green'>Lift,<span style='color:green'>Lift,<span style='color:green'>Lift,<span style='color:red'>Fail,<span style='color:green'>Lift,<span style='color:green'>Lift,<span style='color:green'>Lift,<span style='color:red'>Fail,<span style='color:green'>Lift","<span style='color:red'>Fail,<span style='color:green'>Lift,<span style='color:green'>Lift,<span style='color:red'>Fail,<span style='color:green'>Lift,<span style='color:green'>Lift","0,0,1,1,0,0,0,0,1,0,0,1","0,0,1,1,1,1,0,1,1,1,0,1","0,1,1,0,1,1",10,20,20,"","","","","{""box1"":""5"",""box2"":""5"",""box3"":""50"",""box4"":""50""}","",2,"round2_outcome",3,2,2,5,5,50,50,1,1,20,NA,NA,NA,NA,NA,NA,NA,NA,NA,NA,NA,5,5,50,50,1,1,20,NA,NA,NA,NA,NA,NA,NA,NA,NA,NA,NA,"",NA,NA,NA,NA,NA,NA,NA,NA,NA,2025-11-21 01:25:00
"5394.300000071526","https://psyc-201.github.io/xiang2023/exp/index1.html?PROLIFIC_PID=REDACTED&STUDY_ID=691f8ca61c6b4dcbb0aeb5f4&SESSION_ID=691fbc72b93567c443ca7ca3","survey-html-form",17,360653,"0.0-320.0","MMAUNmjXOWwtcLLPHZWMslNI/0Vv8Ra/gx0lqCnwI7cb3klSTHD517uwqWWe7TXboCiXC5+unroVx3TIumrtXLo2N7oHTxkEotyUNfd5ydiQnJtJe8EeGRkqUIwbrc4qVkOErZTWz3CaxSDF07OhGNMT1x4pMC0V3XslszYcdVcisiYfQGy6FxxxAJ58AzFsx6u2hJk9/jFi5AZqnM4GqGcT9lZ8J569i2qjo7dKIZHyRC7sa9+98R9xajcetI6sv8DMM3udOMPdmUKv9dIsubf5twmFIQzTzOLmbRFliEXU22HkWhAYnjkYS4ssdfvMfvIhealaJTsYw9U7Uf+9dw==","691f8ca61c6b4dcbb0aeb5f4","691fbc72b93567c443ca7ca3","index1","<span style='color:red'>Fail,<span style='color:red'>Fail,<span style='color:green'>Lift,<span style='color:green'>Lift,<span style='color:red'>Fail,<span style='color:red'>Fail,<span style='color:red'>Fail,<span style='color:red'>Fail,<span style='color:green'>Lift,<span style='color:red'>Fail,<span style='color:red'>Fail,<span style='color:green'>Lift","<span style='color:red'>Fail,<span style='color:red'>Fail,<span style='color:green'>Lift,<span style='color:green'>Lift,<span style='color:green'>Lift,<span style='color:green'>Lift,<span style='color:red'>Fail,<span style='color:green'>Lift,<span style='color:green'>Lift,<span style='color:green'>Lift,<span style='color:red'>Fail,<span style='color:green'>Lift","<span style='color:red'>Fail,<span style='color:green'>Lift,<span style='color:green'>Lift,<span style='color:red'>Fail,<span style='color:green'>Lift,<span style='color:green'>Lift","0,0,1,1,0,0,0,0,1,0,0,1","0,0,1,1,1,1,0,1,1,1,0,1","0,1,1,0,1,1",10,20,20,"","","","","{""box1"":""90""}","",2,"round3_ready",4,2,3,NA,NA,NA,NA,NA,NA,NA,NA,NA,NA,NA,NA,NA,NA,90,90,NA,NA,NA,NA,NA,NA,NA,NA,NA,90,90,NA,NA,NA,NA,NA,NA,NA,NA,NA,"",NA,NA,NA,NA,NA,NA,NA,NA,NA,2025-11-21 01:25:00
"13505.100000023842","https://psyc-201.github.io/xiang2023/exp/index1.html?PROLIFIC_PID=REDACTED&STUDY_ID=691f8ca61c6b4dcbb0aeb5f4&SESSION_ID=691fbc72b93567c443ca7ca3","survey-html-form",18,374161,"0.0-321.0-0.0","MMAUNmjXOWwtcLLPHZWMslNI/0Vv8Ra/gx0lqCnwI7cb3klSTHD517uwqWWe7TXboCiXC5+unroVx3TIumrtXLo2N7oHTxkEotyUNfd5ydiQnJtJe8EeGRkqUIwbrc4qVkOErZTWz3CaxSDF07OhGNMT1x4pMC0V3XslszYcdVcisiYfQGy6FxxxAJ58AzFsx6u2hJk9/jFi5AZqnM4GqGcT9lZ8J569i2qjo7dKIZHyRC7sa9+98R9xajcetI6sv8DMM3udOMPdmUKv9dIsubf5twmFIQzTzOLmbRFliEXU22HkWhAYnjkYS4ssdfvMfvIhealaJTsYw9U7Uf+9dw==","691f8ca61c6b4dcbb0aeb5f4","691fbc72b93567c443ca7ca3","index1","<span style='color:red'>Fail,<span style='color:red'>Fail,<span style='color:green'>Lift,<span style='color:green'>Lift,<span style='color:red'>Fail,<span style='color:red'>Fail,<span style='color:red'>Fail,<span style='color:red'>Fail,<span style='color:green'>Lift,<span style='color:red'>Fail,<span style='color:red'>Fail,<span style='color:green'>Lift","<span style='color:red'>Fail,<span style='color:red'>Fail,<span style='color:green'>Lift,<span style='color:green'>Lift,<span style='color:green'>Lift,<span style='color:green'>Lift,<span style='color:red'>Fail,<span style='color:green'>Lift,<span style='color:green'>Lift,<span style='color:green'>Lift,<span style='color:red'>Fail,<span style='color:green'>Lift","<span style='color:red'>Fail,<span style='color:green'>Lift,<span style='color:green'>Lift,<span style='color:red'>Fail,<span style='color:green'>Lift,<span style='color:green'>Lift","0,0,1,1,0,0,0,0,1,0,0,1","0,0,1,1,1,1,0,1,1,1,0,1","0,1,1,0,1,1",10,20,20,"","","","","{""box1"":""5"",""box2"":""5"",""box3"":""50"",""box4"":""50""}","",3,"round3_lift",5,2,3,5,5,50,50,1,1,20,NA,NA,NA,NA,NA,NA,NA,NA,NA,NA,NA,NA,NA,NA,NA,NA,NA,NA,NA,NA,NA,NA,5,5,1,1,20,50,50,"",NA,NA,NA,NA,NA,NA,NA,NA,NA,2025-11-21 01:25:00
"null","https://psyc-201.github.io/xiang2023/exp/index1.html?PROLIFIC_PID=REDACTED&STUDY_ID=691f8ca61c6b4dcbb0aeb5f4&SESSION_ID=691fbc72b93567c443ca7ca3","html-keyboard-response",19,377175,"0.0-325.0","MMAUNmjXOWwtcLLPHZWMslNI/0Vv8Ra/gx0lqCnwI7cb3klSTHD517uwqWWe7TXboCiXC5+unroVx3TIumrtXLo2N7oHTxkEotyUNfd5ydiQnJtJe8EeGRkqUIwbrc4qVkOErZTWz3CaxSDF07OhGNMT1x4pMC0V3XslszYcdVcisiYfQGy6FxxxAJ58AzFsx6u2hJk9/jFi5AZqnM4GqGcT9lZ8J569i2qjo7dKIZHyRC7sa9+98R9xajcetI6sv8DMM3udOMPdmUKv9dIsubf5twmFIQzTzOLmbRFliEXU22HkWhAYnjkYS4ssdfvMfvIhealaJTsYw9U7Uf+9dw==","691f8ca61c6b4dcbb0aeb5f4","691fbc72b93567c443ca7ca3","index1","<span style='color:red'>Fail,<span style='color:red'>Fail,<span style='color:green'>Lift,<span style='color:green'>Lift,<span style='color:red'>Fail,<span style='color:red'>Fail,<span style='color:red'>Fail,<span style='color:red'>Fail,<span style='color:green'>Lift,<span style='color:red'>Fail,<span style='color:red'>Fail,<span style='color:green'>Lift","<span style='color:red'>Fail,<span style='color:red'>Fail,<span style='color:green'>Lift,<span style='color:green'>Lift,<span style='color:green'>Lift,<span style='color:green'>Lift,<span style='color:red'>Fail,<span style='color:green'>Lift,<span style='color:green'>Lift,<span style='color:green'>Lift,<span style='color:red'>Fail,<span style='color:green'>Lift","<span style='color:red'>Fail,<span style='color:green'>Lift,<span style='color:green'>Lift,<span style='color:red'>Fail,<span style='color:green'>Lift,<span style='color:green'>Lift","0,0,1,1,0,0,0,0,1,0,0,1","0,0,1,1,1,1,0,1,1,1,0,1","0,1,1,0,1,1",10,20,20,"","","<p style='font-size:30px'><b> New Contest! </b></p>","null","","",3,"",NA,NA,NA,NA,NA,NA,NA,NA,NA,NA,NA,NA,NA,NA,NA,NA,NA,NA,NA,NA,NA,NA,NA,NA,NA,NA,NA,NA,NA,NA,NA,NA,NA,NA,NA,NA,NA,NA,NA,"",NA,NA,NA,NA,NA,NA,NA,NA,NA,2025-11-21 01:25:00
"13983.399999976158","https://psyc-201.github.io/xiang2023/exp/index1.html?PROLIFIC_PID=REDACTED&STUDY_ID=691f8ca61c6b4dcbb0aeb5f4&SESSION_ID=691fbc72b93567c443ca7ca3","survey-html-form",20,391159,"0.0-326.0","MMAUNmjXOWwtcLLPHZWMslNI/0Vv8Ra/gx0lqCnwI7cb3klSTHD517uwqWWe7TXboCiXC5+unroVx3TIumrtXLo2N7oHTxkEotyUNfd5ydiQnJtJe8EeGRkqUIwbrc4qVkOErZTWz3CaxSDF07OhGNMT1x4pMC0V3XslszYcdVcisiYfQGy6FxxxAJ58AzFsx6u2hJk9/jFi5AZqnM4GqGcT9lZ8J569i2qjo7dKIZHyRC7sa9+98R9xajcetI6sv8DMM3udOMPdmUKv9dIsubf5twmFIQzTzOLmbRFliEXU22HkWhAYnjkYS4ssdfvMfvIhealaJTsYw9U7Uf+9dw==","691f8ca61c6b4dcbb0aeb5f4","691fbc72b93567c443ca7ca3","index1","<span style='color:red'>Fail,<span style='color:red'>Fail,<span style='color:green'>Lift,<span style='color:green'>Lift,<span style='color:red'>Fail,<span style='color:red'>Fail,<span style='color:red'>Fail,<span style='color:red'>Fail,<span style='color:green'>Lift,<span style='color:red'>Fail,<span style='color:red'>Fail,<span style='color:green'>Lift","<span style='color:red'>Fail,<span style='color:red'>Fail,<span style='color:green'>Lift,<span style='color:green'>Lift,<span style='color:green'>Lift,<span style='color:green'>Lift,<span style='color:red'>Fail,<span style='color:green'>Lift,<span style='color:green'>Lift,<span style='color:green'>Lift,<span style='color:red'>Fail,<span style='color:green'>Lift","<span style='color:red'>Fail,<span style='color:green'>Lift,<span style='color:green'>Lift,<span style='color:red'>Fail,<span style='color:green'>Lift,<span style='color:green'>Lift","0,0,1,1,0,0,0,0,1,0,0,1","0,0,1,1,1,1,0,1,1,1,0,1","0,1,1,0,1,1",10,20,20,"","","","","{""box1"":""3"",""box2"":""5""}","",3,"round1_outcome",1,3,1,3,5,NA,NA,0,0,10,3,5,NA,NA,0,0,10,NA,NA,NA,NA,NA,NA,NA,NA,NA,NA,NA,NA,NA,NA,NA,NA,NA,NA,NA,NA,NA,NA,"",NA,NA,NA,NA,NA,NA,NA,NA,NA,2025-11-21 01:25:00
"8484.100000023842","https://psyc-201.github.io/xiang2023/exp/index1.html?PROLIFIC_PID=REDACTED&STUDY_ID=691f8ca61c6b4dcbb0aeb5f4&SESSION_ID=691fbc72b93567c443ca7ca3","survey-html-form",21,399645,"0.0-327.0","MMAUNmjXOWwtcLLPHZWMslNI/0Vv8Ra/gx0lqCnwI7cb3klSTHD517uwqWWe7TXboCiXC5+unroVx3TIumrtXLo2N7oHTxkEotyUNfd5ydiQnJtJe8EeGRkqUIwbrc4qVkOErZTWz3CaxSDF07OhGNMT1x4pMC0V3XslszYcdVcisiYfQGy6FxxxAJ58AzFsx6u2hJk9/jFi5AZqnM4GqGcT9lZ8J569i2qjo7dKIZHyRC7sa9+98R9xajcetI6sv8DMM3udOMPdmUKv9dIsubf5twmFIQzTzOLmbRFliEXU22HkWhAYnjkYS4ssdfvMfvIhealaJTsYw9U7Uf+9dw==","691f8ca61c6b4dcbb0aeb5f4","691fbc72b93567c443ca7ca3","index1","<span style='color:red'>Fail,<span style='color:red'>Fail,<span style='color:green'>Lift,<span style='color:green'>Lift,<span style='color:red'>Fail,<span style='color:red'>Fail,<span style='color:red'>Fail,<span style='color:red'>Fail,<span style='color:green'>Lift,<span style='color:red'>Fail,<span style='color:red'>Fail,<span style='color:green'>Lift","<span style='color:red'>Fail,<span style='color:red'>Fail,<span style='color:green'>Lift,<span style='color:green'>Lift,<span style='color:green'>Lift,<span style='color:green'>Lift,<span style='color:red'>Fail,<span style='color:green'>Lift,<span style='color:green'>Lift,<span style='color:green'>Lift,<span style='color:red'>Fail,<span style='color:green'>Lift","<span style='color:red'>Fail,<span style='color:green'>Lift,<span style='color:green'>Lift,<span style='color:red'>Fail,<span style='color:green'>Lift,<span style='color:green'>Lift","0,0,1,1,0,0,0,0,1,0,0,1","0,0,1,1,1,1,0,1,1,1,0,1","0,1,1,0,1,1",10,20,20,"","","","","{""box1"":""30"",""box2"":""50""}","",3,"round2_ready",2,3,2,NA,NA,NA,NA,NA,NA,NA,NA,NA,NA,NA,NA,NA,NA,30,50,30,50,NA,NA,NA,NA,NA,NA,NA,NA,NA,NA,NA,NA,NA,NA,NA,NA,NA,NA,"",NA,NA,NA,NA,NA,NA,NA,NA,NA,2025-11-21 01:25:00
"8310.899999976158","https://psyc-201.github.io/xiang2023/exp/index1.html?PROLIFIC_PID=REDACTED&STUDY_ID=691f8ca61c6b4dcbb0aeb5f4&SESSION_ID=691fbc72b93567c443ca7ca3","survey-html-form",22,407959,"0.0-328.0","MMAUNmjXOWwtcLLPHZWMslNI/0Vv8Ra/gx0lqCnwI7cb3klSTHD517uwqWWe7TXboCiXC5+unroVx3TIumrtXLo2N7oHTxkEotyUNfd5ydiQnJtJe8EeGRkqUIwbrc4qVkOErZTWz3CaxSDF07OhGNMT1x4pMC0V3XslszYcdVcisiYfQGy6FxxxAJ58AzFsx6u2hJk9/jFi5AZqnM4GqGcT9lZ8J569i2qjo7dKIZHyRC7sa9+98R9xajcetI6sv8DMM3udOMPdmUKv9dIsubf5twmFIQzTzOLmbRFliEXU22HkWhAYnjkYS4ssdfvMfvIhealaJTsYw9U7Uf+9dw==","691f8ca61c6b4dcbb0aeb5f4","691fbc72b93567c443ca7ca3","index1","<span style='color:red'>Fail,<span style='color:red'>Fail,<span style='color:green'>Lift,<span style='color:green'>Lift,<span style='color:red'>Fail,<span style='color:red'>Fail,<span style='color:red'>Fail,<span style='color:red'>Fail,<span style='color:green'>Lift,<span style='color:red'>Fail,<span style='color:red'>Fail,<span style='color:green'>Lift","<span style='color:red'>Fail,<span style='color:red'>Fail,<span style='color:green'>Lift,<span style='color:green'>Lift,<span style='color:green'>Lift,<span style='color:green'>Lift,<span style='color:red'>Fail,<span style='color:green'>Lift,<span style='color:green'>Lift,<span style='color:green'>Lift,<span style='color:red'>Fail,<span style='color:green'>Lift","<span style='color:red'>Fail,<span style='color:green'>Lift,<span style='color:green'>Lift,<span style='color:red'>Fail,<span style='color:green'>Lift,<span style='color:green'>Lift","0,0,1,1,0,0,0,0,1,0,0,1","0,0,1,1,1,1,0,1,1,1,0,1","0,1,1,0,1,1",10,20,20,"","","","","{""box1"":""4"",""box2"":""4""}","",3,"round2_outcome",3,3,2,4,4,NA,NA,0,0,20,NA,NA,NA,NA,NA,NA,NA,NA,NA,NA,NA,4,4,NA,NA,0,0,20,NA,NA,NA,NA,NA,NA,NA,NA,NA,NA,NA,"",NA,NA,NA,NA,NA,NA,NA,NA,NA,2025-11-21 01:25:00
"4051.5","https://psyc-201.github.io/xiang2023/exp/index1.html?PROLIFIC_PID=REDACTED&STUDY_ID=691f8ca61c6b4dcbb0aeb5f4&SESSION_ID=691fbc72b93567c443ca7ca3","survey-html-form",23,412014,"0.0-329.0","MMAUNmjXOWwtcLLPHZWMslNI/0Vv8Ra/gx0lqCnwI7cb3klSTHD517uwqWWe7TXboCiXC5+unroVx3TIumrtXLo2N7oHTxkEotyUNfd5ydiQnJtJe8EeGRkqUIwbrc4qVkOErZTWz3CaxSDF07OhGNMT1x4pMC0V3XslszYcdVcisiYfQGy6FxxxAJ58AzFsx6u2hJk9/jFi5AZqnM4GqGcT9lZ8J569i2qjo7dKIZHyRC7sa9+98R9xajcetI6sv8DMM3udOMPdmUKv9dIsubf5twmFIQzTzOLmbRFliEXU22HkWhAYnjkYS4ssdfvMfvIhealaJTsYw9U7Uf+9dw==","691f8ca61c6b4dcbb0aeb5f4","691fbc72b93567c443ca7ca3","index1","<span style='color:red'>Fail,<span style='color:red'>Fail,<span style='color:green'>Lift,<span style='color:green'>Lift,<span style='color:red'>Fail,<span style='color:red'>Fail,<span style='color:red'>Fail,<span style='color:red'>Fail,<span style='color:green'>Lift,<span style='color:red'>Fail,<span style='color:red'>Fail,<span style='color:green'>Lift","<span style='color:red'>Fail,<span style='color:red'>Fail,<span style='color:green'>Lift,<span style='color:green'>Lift,<span style='color:green'>Lift,<span style='color:green'>Lift,<span style='color:red'>Fail,<span style='color:green'>Lift,<span style='color:green'>Lift,<span style='color:green'>Lift,<span style='color:red'>Fail,<span style='color:green'>Lift","<span style='color:red'>Fail,<span style='color:green'>Lift,<span style='color:green'>Lift,<span style='color:red'>Fail,<span style='color:green'>Lift,<span style='color:green'>Lift","0,0,1,1,0,0,0,0,1,0,0,1","0,0,1,1,1,1,0,1,1,1,0,1","0,1,1,0,1,1",10,20,20,"","","","","{""box1"":""20""}","",3,"round3_ready",4,3,3,NA,NA,NA,NA,NA,NA,NA,NA,NA,NA,NA,NA,NA,NA,20,20,NA,NA,NA,NA,NA,NA,NA,NA,NA,20,20,NA,NA,NA,NA,NA,NA,NA,NA,NA,"",NA,NA,NA,NA,NA,NA,NA,NA,NA,2025-11-21 01:25:00
"15509.099999904633","https://psyc-201.github.io/xiang2023/exp/index1.html?PROLIFIC_PID=REDACTED&STUDY_ID=691f8ca61c6b4dcbb0aeb5f4&SESSION_ID=691fbc72b93567c443ca7ca3","survey-html-form",24,427525,"0.0-331.0-0.0","MMAUNmjXOWwtcLLPHZWMslNI/0Vv8Ra/gx0lqCnwI7cb3klSTHD517uwqWWe7TXboCiXC5+unroVx3TIumrtXLo2N7oHTxkEotyUNfd5ydiQnJtJe8EeGRkqUIwbrc4qVkOErZTWz3CaxSDF07OhGNMT1x4pMC0V3XslszYcdVcisiYfQGy6FxxxAJ58AzFsx6u2hJk9/jFi5AZqnM4GqGcT9lZ8J569i2qjo7dKIZHyRC7sa9+98R9xajcetI6sv8DMM3udOMPdmUKv9dIsubf5twmFIQzTzOLmbRFliEXU22HkWhAYnjkYS4ssdfvMfvIhealaJTsYw9U7Uf+9dw==","691f8ca61c6b4dcbb0aeb5f4","691fbc72b93567c443ca7ca3","index1","<span style='color:red'>Fail,<span style='color:red'>Fail,<span style='color:green'>Lift,<span style='color:green'>Lift,<span style='color:red'>Fail,<span style='color:red'>Fail,<span style='color:red'>Fail,<span style='color:red'>Fail,<span style='color:green'>Lift,<span style='color:red'>Fail,<span style='color:red'>Fail,<span style='color:green'>Lift","<span style='color:red'>Fail,<span style='color:red'>Fail,<span style='color:green'>Lift,<span style='color:green'>Lift,<span style='color:green'>Lift,<span style='color:green'>Lift,<span style='color:red'>Fail,<span style='color:green'>Lift,<span style='color:green'>Lift,<span style='color:green'>Lift,<span style='color:red'>Fail,<span style='color:green'>Lift","<span style='color:red'>Fail,<span style='color:green'>Lift,<span style='color:green'>Lift,<span style='color:red'>Fail,<span style='color:green'>Lift,<span style='color:green'>Lift","0,0,1,1,0,0,0,0,1,0,0,1","0,0,1,1,1,1,0,1,1,1,0,1","0,1,1,0,1,1",10,20,20,"","","","","{""box1"":""4"",""box2"":""4"",""box3"":""999"",""box4"":""999""}","",4,"round3_fail",5,3,3,4,4,NA,NA,0,0,20,NA,NA,NA,NA,NA,NA,NA,NA,NA,NA,NA,NA,NA,NA,NA,NA,NA,NA,NA,NA,1,1,4,4,0,0,20,NA,NA,"",NA,NA,NA,NA,NA,NA,NA,NA,NA,2025-11-21 01:25:00
"null","https://psyc-201.github.io/xiang2023/exp/index1.html?PROLIFIC_PID=REDACTED&STUDY_ID=691f8ca61c6b4dcbb0aeb5f4&SESSION_ID=691fbc72b93567c443ca7ca3","html-keyboard-response",25,430527,"0.0-334.0","MMAUNmjXOWwtcLLPHZWMslNI/0Vv8Ra/gx0lqCnwI7cb3klSTHD517uwqWWe7TXboCiXC5+unroVx3TIumrtXLo2N7oHTxkEotyUNfd5ydiQnJtJe8EeGRkqUIwbrc4qVkOErZTWz3CaxSDF07OhGNMT1x4pMC0V3XslszYcdVcisiYfQGy6FxxxAJ58AzFsx6u2hJk9/jFi5AZqnM4GqGcT9lZ8J569i2qjo7dKIZHyRC7sa9+98R9xajcetI6sv8DMM3udOMPdmUKv9dIsubf5twmFIQzTzOLmbRFliEXU22HkWhAYnjkYS4ssdfvMfvIhealaJTsYw9U7Uf+9dw==","691f8ca61c6b4dcbb0aeb5f4","691fbc72b93567c443ca7ca3","index1","<span style='color:red'>Fail,<span style='color:red'>Fail,<span style='color:green'>Lift,<span style='color:green'>Lift,<span style='color:red'>Fail,<span style='color:red'>Fail,<span style='color:red'>Fail,<span style='color:red'>Fail,<span style='color:green'>Lift,<span style='color:red'>Fail,<span style='color:red'>Fail,<span style='color:green'>Lift","<span style='color:red'>Fail,<span style='color:red'>Fail,<span style='color:green'>Lift,<span style='color:green'>Lift,<span style='color:green'>Lift,<span style='color:green'>Lift,<span style='color:red'>Fail,<span style='color:green'>Lift,<span style='color:green'>Lift,<span style='color:green'>Lift,<span style='color:red'>Fail,<span style='color:green'>Lift","<span style='color:red'>Fail,<span style='color:green'>Lift,<span style='color:green'>Lift,<span style='color:red'>Fail,<span style='color:green'>Lift,<span style='color:green'>Lift","0,0,1,1,0,0,0,0,1,0,0,1","0,0,1,1,1,1,0,1,1,1,0,1","0,1,1,0,1,1",10,20,20,"","","<p style='font-size:30px'><b> New Contest! </b></p>","null","","",4,"",NA,NA,NA,NA,NA,NA,NA,NA,NA,NA,NA,NA,NA,NA,NA,NA,NA,NA,NA,NA,NA,NA,NA,NA,NA,NA,NA,NA,NA,NA,NA,NA,NA,NA,NA,NA,NA,NA,NA,"",NA,NA,NA,NA,NA,NA,NA,NA,NA,2025-11-21 01:25:00
"19542.200000047684","https://psyc-201.github.io/xiang2023/exp/index1.html?PROLIFIC_PID=REDACTED&STUDY_ID=691f8ca61c6b4dcbb0aeb5f4&SESSION_ID=691fbc72b93567c443ca7ca3","survey-html-form",26,450071,"0.0-335.0","MMAUNmjXOWwtcLLPHZWMslNI/0Vv8Ra/gx0lqCnwI7cb3klSTHD517uwqWWe7TXboCiXC5+unroVx3TIumrtXLo2N7oHTxkEotyUNfd5ydiQnJtJe8EeGRkqUIwbrc4qVkOErZTWz3CaxSDF07OhGNMT1x4pMC0V3XslszYcdVcisiYfQGy6FxxxAJ58AzFsx6u2hJk9/jFi5AZqnM4GqGcT9lZ8J569i2qjo7dKIZHyRC7sa9+98R9xajcetI6sv8DMM3udOMPdmUKv9dIsubf5twmFIQzTzOLmbRFliEXU22HkWhAYnjkYS4ssdfvMfvIhealaJTsYw9U7Uf+9dw==","691f8ca61c6b4dcbb0aeb5f4","691fbc72b93567c443ca7ca3","index1","<span style='color:red'>Fail,<span style='color:red'>Fail,<span style='color:green'>Lift,<span style='color:green'>Lift,<span style='color:red'>Fail,<span style='color:red'>Fail,<span style='color:red'>Fail,<span style='color:red'>Fail,<span style='color:green'>Lift,<span style='color:red'>Fail,<span style='color:red'>Fail,<span style='color:green'>Lift","<span style='color:red'>Fail,<span style='color:red'>Fail,<span style='color:green'>Lift,<span style='color:green'>Lift,<span style='color:green'>Lift,<span style='color:green'>Lift,<span style='color:red'>Fail,<span style='color:green'>Lift,<span style='color:green'>Lift,<span style='color:green'>Lift,<span style='color:red'>Fail,<span style='color:green'>Lift","<span style='color:red'>Fail,<span style='color:green'>Lift,<span style='color:green'>Lift,<span style='color:red'>Fail,<span style='color:green'>Lift,<span style='color:green'>Lift","0,0,1,1,0,0,0,0,1,0,0,1","0,0,1,1,1,1,0,1,1,1,0,1","0,1,1,0,1,1",10,20,20,"","","","","{""box1"":""7"",""box2"":""7"",""box3"":""50"",""box4"":""50""}","",4,"round1_outcome",1,4,1,7,7,50,50,1,1,10,7,7,50,50,1,1,10,NA,NA,NA,NA,NA,NA,NA,NA,NA,NA,NA,NA,NA,NA,NA,NA,NA,NA,NA,NA,NA,NA,"",NA,NA,NA,NA,NA,NA,NA,NA,NA,2025-11-21 01:25:00
"8666.900000095367","https://psyc-201.github.io/xiang2023/exp/index1.html?PROLIFIC_PID=REDACTED&STUDY_ID=691f8ca61c6b4dcbb0aeb5f4&SESSION_ID=691fbc72b93567c443ca7ca3","survey-html-form",27,458739,"0.0-336.0","MMAUNmjXOWwtcLLPHZWMslNI/0Vv8Ra/gx0lqCnwI7cb3klSTHD517uwqWWe7TXboCiXC5+unroVx3TIumrtXLo2N7oHTxkEotyUNfd5ydiQnJtJe8EeGRkqUIwbrc4qVkOErZTWz3CaxSDF07OhGNMT1x4pMC0V3XslszYcdVcisiYfQGy6FxxxAJ58AzFsx6u2hJk9/jFi5AZqnM4GqGcT9lZ8J569i2qjo7dKIZHyRC7sa9+98R9xajcetI6sv8DMM3udOMPdmUKv9dIsubf5twmFIQzTzOLmbRFliEXU22HkWhAYnjkYS4ssdfvMfvIhealaJTsYw9U7Uf+9dw==","691f8ca61c6b4dcbb0aeb5f4","691fbc72b93567c443ca7ca3","index1","<span style='color:red'>Fail,<span style='color:red'>Fail,<span style='color:green'>Lift,<span style='color:green'>Lift,<span style='color:red'>Fail,<span style='color:red'>Fail,<span style='color:red'>Fail,<span style='color:red'>Fail,<span style='color:green'>Lift,<span style='color:red'>Fail,<span style='color:red'>Fail,<span style='color:green'>Lift","<span style='color:red'>Fail,<span style='color:red'>Fail,<span style='color:green'>Lift,<span style='color:green'>Lift,<span style='color:green'>Lift,<span style='color:green'>Lift,<span style='color:red'>Fail,<span style='color:green'>Lift,<span style='color:green'>Lift,<span style='color:green'>Lift,<span style='color:red'>Fail,<span style='color:green'>Lift","<span style='color:red'>Fail,<span style='color:green'>Lift,<span style='color:green'>Lift,<span style='color:red'>Fail,<span style='color:green'>Lift,<span style='color:green'>Lift","0,0,1,1,0,0,0,0,1,0,0,1","0,0,1,1,1,1,0,1,1,1,0,1","0,1,1,0,1,1",10,20,20,"","","","","{""box1"":""85"",""box2"":""85""}","",4,"round2_ready",2,4,2,NA,NA,NA,NA,NA,NA,NA,NA,NA,NA,NA,NA,NA,NA,85,85,85,85,NA,NA,NA,NA,NA,NA,NA,NA,NA,NA,NA,NA,NA,NA,NA,NA,NA,NA,"",NA,NA,NA,NA,NA,NA,NA,NA,NA,2025-11-21 01:25:00
"16595.5","https://psyc-201.github.io/xiang2023/exp/index1.html?PROLIFIC_PID=REDACTED&STUDY_ID=691f8ca61c6b4dcbb0aeb5f4&SESSION_ID=691fbc72b93567c443ca7ca3","survey-html-form",28,475337,"0.0-337.0","MMAUNmjXOWwtcLLPHZWMslNI/0Vv8Ra/gx0lqCnwI7cb3klSTHD517uwqWWe7TXboCiXC5+unroVx3TIumrtXLo2N7oHTxkEotyUNfd5ydiQnJtJe8EeGRkqUIwbrc4qVkOErZTWz3CaxSDF07OhGNMT1x4pMC0V3XslszYcdVcisiYfQGy6FxxxAJ58AzFsx6u2hJk9/jFi5AZqnM4GqGcT9lZ8J569i2qjo7dKIZHyRC7sa9+98R9xajcetI6sv8DMM3udOMPdmUKv9dIsubf5twmFIQzTzOLmbRFliEXU22HkWhAYnjkYS4ssdfvMfvIhealaJTsYw9U7Uf+9dw==","691f8ca61c6b4dcbb0aeb5f4","691fbc72b93567c443ca7ca3","index1","<span style='color:red'>Fail,<span style='color:red'>Fail,<span style='color:green'>Lift,<span style='color:green'>Lift,<span style='color:red'>Fail,<span style='color:red'>Fail,<span style='color:red'>Fail,<span style='color:red'>Fail,<span style='color:green'>Lift,<span style='color:red'>Fail,<span style='color:red'>Fail,<span style='color:green'>Lift","<span style='color:red'>Fail,<span style='color:red'>Fail,<span style='color:green'>Lift,<span style='color:green'>Lift,<span style='color:green'>Lift,<span style='color:green'>Lift,<span style='color:red'>Fail,<span style='color:green'>Lift,<span style='color:green'>Lift,<span style='color:green'>Lift,<span style='color:red'>Fail,<span style='color:green'>Lift","<span style='color:red'>Fail,<span style='color:green'>Lift,<span style='color:green'>Lift,<span style='color:red'>Fail,<span style='color:green'>Lift,<span style='color:green'>Lift","0,0,1,1,0,0,0,0,1,0,0,1","0,0,1,1,1,1,0,1,1,1,0,1","0,1,1,0,1,1",10,20,20,"","","","","{""box1"":""8"",""box2"":""8"",""box3"":""50"",""box4"":""50""}","",4,"round2_outcome",3,4,2,8,8,50,50,1,1,20,NA,NA,NA,NA,NA,NA,NA,NA,NA,NA,NA,8,8,50,50,1,1,20,NA,NA,NA,NA,NA,NA,NA,NA,NA,NA,NA,"",NA,NA,NA,NA,NA,NA,NA,NA,NA,2025-11-21 01:25:00
"5938","https://psyc-201.github.io/xiang2023/exp/index1.html?PROLIFIC_PID=REDACTED&STUDY_ID=691f8ca61c6b4dcbb0aeb5f4&SESSION_ID=691fbc72b93567c443ca7ca3","survey-html-form",29,481277,"0.0-338.0","MMAUNmjXOWwtcLLPHZWMslNI/0Vv8Ra/gx0lqCnwI7cb3klSTHD517uwqWWe7TXboCiXC5+unroVx3TIumrtXLo2N7oHTxkEotyUNfd5ydiQnJtJe8EeGRkqUIwbrc4qVkOErZTWz3CaxSDF07OhGNMT1x4pMC0V3XslszYcdVcisiYfQGy6FxxxAJ58AzFsx6u2hJk9/jFi5AZqnM4GqGcT9lZ8J569i2qjo7dKIZHyRC7sa9+98R9xajcetI6sv8DMM3udOMPdmUKv9dIsubf5twmFIQzTzOLmbRFliEXU22HkWhAYnjkYS4ssdfvMfvIhealaJTsYw9U7Uf+9dw==","691f8ca61c6b4dcbb0aeb5f4","691fbc72b93567c443ca7ca3","index1","<span style='color:red'>Fail,<span style='color:red'>Fail,<span style='color:green'>Lift,<span style='color:green'>Lift,<span style='color:red'>Fail,<span style='color:red'>Fail,<span style='color:red'>Fail,<span style='color:red'>Fail,<span style='color:green'>Lift,<span style='color:red'>Fail,<span style='color:red'>Fail,<span style='color:green'>Lift","<span style='color:red'>Fail,<span style='color:red'>Fail,<span style='color:green'>Lift,<span style='color:green'>Lift,<span style='color:green'>Lift,<span style='color:green'>Lift,<span style='color:red'>Fail,<span style='color:green'>Lift,<span style='color:green'>Lift,<span style='color:green'>Lift,<span style='color:red'>Fail,<span style='color:green'>Lift","<span style='color:red'>Fail,<span style='color:green'>Lift,<span style='color:green'>Lift,<span style='color:red'>Fail,<span style='color:green'>Lift,<span style='color:green'>Lift","0,0,1,1,0,0,0,0,1,0,0,1","0,0,1,1,1,1,0,1,1,1,0,1","0,1,1,0,1,1",10,20,20,"","","","","{""box1"":""100""}","",4,"round3_ready",4,4,3,NA,NA,NA,NA,NA,NA,NA,NA,NA,NA,NA,NA,NA,NA,100,100,NA,NA,NA,NA,NA,NA,NA,NA,NA,100,100,NA,NA,NA,NA,NA,NA,NA,NA,NA,"",NA,NA,NA,NA,NA,NA,NA,NA,NA,2025-11-21 01:25:00
"16976.799999952316","https://psyc-201.github.io/xiang2023/exp/index1.html?PROLIFIC_PID=REDACTED&STUDY_ID=691f8ca61c6b4dcbb0aeb5f4&SESSION_ID=691fbc72b93567c443ca7ca3","survey-html-form",30,498256,"0.0-339.0-0.0","MMAUNmjXOWwtcLLPHZWMslNI/0Vv8Ra/gx0lqCnwI7cb3klSTHD517uwqWWe7TXboCiXC5+unroVx3TIumrtXLo2N7oHTxkEotyUNfd5ydiQnJtJe8EeGRkqUIwbrc4qVkOErZTWz3CaxSDF07OhGNMT1x4pMC0V3XslszYcdVcisiYfQGy6FxxxAJ58AzFsx6u2hJk9/jFi5AZqnM4GqGcT9lZ8J569i2qjo7dKIZHyRC7sa9+98R9xajcetI6sv8DMM3udOMPdmUKv9dIsubf5twmFIQzTzOLmbRFliEXU22HkWhAYnjkYS4ssdfvMfvIhealaJTsYw9U7Uf+9dw==","691f8ca61c6b4dcbb0aeb5f4","691fbc72b93567c443ca7ca3","index1","<span style='color:red'>Fail,<span style='color:red'>Fail,<span style='color:green'>Lift,<span style='color:green'>Lift,<span style='color:red'>Fail,<span style='color:red'>Fail,<span style='color:red'>Fail,<span style='color:red'>Fail,<span style='color:green'>Lift,<span style='color:red'>Fail,<span style='color:red'>Fail,<span style='color:green'>Lift","<span style='color:red'>Fail,<span style='color:red'>Fail,<span style='color:green'>Lift,<span style='color:green'>Lift,<span style='color:green'>Lift,<span style='color:green'>Lift,<span style='color:red'>Fail,<span style='color:green'>Lift,<span style='color:green'>Lift,<span style='color:green'>Lift,<span style='color:red'>Fail,<span style='color:green'>Lift","<span style='color:red'>Fail,<span style='color:green'>Lift,<span style='color:green'>Lift,<span style='color:red'>Fail,<span style='color:green'>Lift,<span style='color:green'>Lift","0,0,1,1,0,0,0,0,1,0,0,1","0,0,1,1,1,1,0,1,1,1,0,1","0,1,1,0,1,1",10,20,20,"","","","","{""box1"":""8"",""box2"":""8"",""box3"":""50"",""box4"":""50""}","",5,"round3_lift",5,4,3,8,8,50,50,1,1,20,NA,NA,NA,NA,NA,NA,NA,NA,NA,NA,NA,NA,NA,NA,NA,NA,NA,NA,NA,NA,NA,NA,8,8,1,1,20,50,50,"",NA,NA,NA,NA,NA,NA,NA,NA,NA,2025-11-21 01:25:00
"null","https://psyc-201.github.io/xiang2023/exp/index1.html?PROLIFIC_PID=REDACTED&STUDY_ID=691f8ca61c6b4dcbb0aeb5f4&SESSION_ID=691fbc72b93567c443ca7ca3","html-keyboard-response",31,501262,"0.0-343.0","MMAUNmjXOWwtcLLPHZWMslNI/0Vv8Ra/gx0lqCnwI7cb3klSTHD517uwqWWe7TXboCiXC5+unroVx3TIumrtXLo2N7oHTxkEotyUNfd5ydiQnJtJe8EeGRkqUIwbrc4qVkOErZTWz3CaxSDF07OhGNMT1x4pMC0V3XslszYcdVcisiYfQGy6FxxxAJ58AzFsx6u2hJk9/jFi5AZqnM4GqGcT9lZ8J569i2qjo7dKIZHyRC7sa9+98R9xajcetI6sv8DMM3udOMPdmUKv9dIsubf5twmFIQzTzOLmbRFliEXU22HkWhAYnjkYS4ssdfvMfvIhealaJTsYw9U7Uf+9dw==","691f8ca61c6b4dcbb0aeb5f4","691fbc72b93567c443ca7ca3","index1","<span style='color:red'>Fail,<span style='color:red'>Fail,<span style='color:green'>Lift,<span style='color:green'>Lift,<span style='color:red'>Fail,<span style='color:red'>Fail,<span style='color:red'>Fail,<span style='color:red'>Fail,<span style='color:green'>Lift,<span style='color:red'>Fail,<span style='color:red'>Fail,<span style='color:green'>Lift","<span style='color:red'>Fail,<span style='color:red'>Fail,<span style='color:green'>Lift,<span style='color:green'>Lift,<span style='color:green'>Lift,<span style='color:green'>Lift,<span style='color:red'>Fail,<span style='color:green'>Lift,<span style='color:green'>Lift,<span style='color:green'>Lift,<span style='color:red'>Fail,<span style='color:green'>Lift","<span style='color:red'>Fail,<span style='color:green'>Lift,<span style='color:green'>Lift,<span style='color:red'>Fail,<span style='color:green'>Lift,<span style='color:green'>Lift","0,0,1,1,0,0,0,0,1,0,0,1","0,0,1,1,1,1,0,1,1,1,0,1","0,1,1,0,1,1",10,20,20,"","","<p style='font-size:30px'><b> New Contest! </b></p>","null","","",5,"",NA,NA,NA,NA,NA,NA,NA,NA,NA,NA,NA,NA,NA,NA,NA,NA,NA,NA,NA,NA,NA,NA,NA,NA,NA,NA,NA,NA,NA,NA,NA,NA,NA,NA,NA,NA,NA,NA,NA,"",NA,NA,NA,NA,NA,NA,NA,NA,NA,2025-11-21 01:25:00
"23057.899999976158","https://psyc-201.github.io/xiang2023/exp/index1.html?PROLIFIC_PID=REDACTED&STUDY_ID=691f8ca61c6b4dcbb0aeb5f4&SESSION_ID=691fbc72b93567c443ca7ca3","survey-html-form",32,524322,"0.0-344.0","MMAUNmjXOWwtcLLPHZWMslNI/0Vv8Ra/gx0lqCnwI7cb3klSTHD517uwqWWe7TXboCiXC5+unroVx3TIumrtXLo2N7oHTxkEotyUNfd5ydiQnJtJe8EeGRkqUIwbrc4qVkOErZTWz3CaxSDF07OhGNMT1x4pMC0V3XslszYcdVcisiYfQGy6FxxxAJ58AzFsx6u2hJk9/jFi5AZqnM4GqGcT9lZ8J569i2qjo7dKIZHyRC7sa9+98R9xajcetI6sv8DMM3udOMPdmUKv9dIsubf5twmFIQzTzOLmbRFliEXU22HkWhAYnjkYS4ssdfvMfvIhealaJTsYw9U7Uf+9dw==","691f8ca61c6b4dcbb0aeb5f4","691fbc72b93567c443ca7ca3","index1","<span style='color:red'>Fail,<span style='color:red'>Fail,<span style='color:green'>Lift,<span style='color:green'>Lift,<span style='color:red'>Fail,<span style='color:red'>Fail,<span style='color:red'>Fail,<span style='color:red'>Fail,<span style='color:green'>Lift,<span style='color:red'>Fail,<span style='color:red'>Fail,<span style='color:green'>Lift","<span style='color:red'>Fail,<span style='color:red'>Fail,<span style='color:green'>Lift,<span style='color:green'>Lift,<span style='color:green'>Lift,<span style='color:green'>Lift,<span style='color:red'>Fail,<span style='color:green'>Lift,<span style='color:green'>Lift,<span style='color:green'>Lift,<span style='color:red'>Fail,<span style='color:green'>Lift","<span style='color:red'>Fail,<span style='color:green'>Lift,<span style='color:green'>Lift,<span style='color:red'>Fail,<span style='color:green'>Lift,<span style='color:green'>Lift","0,0,1,1,0,0,0,0,1,0,0,1","0,0,1,1,1,1,0,1,1,1,0,1","0,1,1,0,1,1",10,20,20,"","","","","{""box1"":""2"",""box2"":""5"",""box4"":""30""}","",5,"round1_outcome",1,5,1,2,5,NA,30,0,1,10,2,5,NA,30,0,1,10,NA,NA,NA,NA,NA,NA,NA,NA,NA,NA,NA,NA,NA,NA,NA,NA,NA,NA,NA,NA,NA,NA,"",NA,NA,NA,NA,NA,NA,NA,NA,NA,2025-11-21 01:25:00
"9929.600000023842","https://psyc-201.github.io/xiang2023/exp/index1.html?PROLIFIC_PID=REDACTED&STUDY_ID=691f8ca61c6b4dcbb0aeb5f4&SESSION_ID=691fbc72b93567c443ca7ca3","survey-html-form",33,534254,"0.0-345.0","MMAUNmjXOWwtcLLPHZWMslNI/0Vv8Ra/gx0lqCnwI7cb3klSTHD517uwqWWe7TXboCiXC5+unroVx3TIumrtXLo2N7oHTxkEotyUNfd5ydiQnJtJe8EeGRkqUIwbrc4qVkOErZTWz3CaxSDF07OhGNMT1x4pMC0V3XslszYcdVcisiYfQGy6FxxxAJ58AzFsx6u2hJk9/jFi5AZqnM4GqGcT9lZ8J569i2qjo7dKIZHyRC7sa9+98R9xajcetI6sv8DMM3udOMPdmUKv9dIsubf5twmFIQzTzOLmbRFliEXU22HkWhAYnjkYS4ssdfvMfvIhealaJTsYw9U7Uf+9dw==","691f8ca61c6b4dcbb0aeb5f4","691fbc72b93567c443ca7ca3","index1","<span style='color:red'>Fail,<span style='color:red'>Fail,<span style='color:green'>Lift,<span style='color:green'>Lift,<span style='color:red'>Fail,<span style='color:red'>Fail,<span style='color:red'>Fail,<span style='color:red'>Fail,<span style='color:green'>Lift,<span style='color:red'>Fail,<span style='color:red'>Fail,<span style='color:green'>Lift","<span style='color:red'>Fail,<span style='color:red'>Fail,<span style='color:green'>Lift,<span style='color:green'>Lift,<span style='color:green'>Lift,<span style='color:green'>Lift,<span style='color:red'>Fail,<span style='color:green'>Lift,<span style='color:green'>Lift,<span style='color:green'>Lift,<span style='color:red'>Fail,<span style='color:green'>Lift","<span style='color:red'>Fail,<span style='color:green'>Lift,<span style='color:green'>Lift,<span style='color:red'>Fail,<span style='color:green'>Lift,<span style='color:green'>Lift","0,0,1,1,0,0,0,0,1,0,0,1","0,0,1,1,1,1,0,1,1,1,0,1","0,1,1,0,1,1",10,20,20,"","","","","{""box1"":""25"",""box2"":""65""}","",5,"round2_ready",2,5,2,NA,NA,NA,NA,NA,NA,NA,NA,NA,NA,NA,NA,NA,NA,25,65,25,65,NA,NA,NA,NA,NA,NA,NA,NA,NA,NA,NA,NA,NA,NA,NA,NA,NA,NA,"",NA,NA,NA,NA,NA,NA,NA,NA,NA,2025-11-21 01:25:00
"12877","https://psyc-201.github.io/xiang2023/exp/index1.html?PROLIFIC_PID=REDACTED&STUDY_ID=691f8ca61c6b4dcbb0aeb5f4&SESSION_ID=691fbc72b93567c443ca7ca3","survey-html-form",34,547134,"0.0-346.0","MMAUNmjXOWwtcLLPHZWMslNI/0Vv8Ra/gx0lqCnwI7cb3klSTHD517uwqWWe7TXboCiXC5+unroVx3TIumrtXLo2N7oHTxkEotyUNfd5ydiQnJtJe8EeGRkqUIwbrc4qVkOErZTWz3CaxSDF07OhGNMT1x4pMC0V3XslszYcdVcisiYfQGy6FxxxAJ58AzFsx6u2hJk9/jFi5AZqnM4GqGcT9lZ8J569i2qjo7dKIZHyRC7sa9+98R9xajcetI6sv8DMM3udOMPdmUKv9dIsubf5twmFIQzTzOLmbRFliEXU22HkWhAYnjkYS4ssdfvMfvIhealaJTsYw9U7Uf+9dw==","691f8ca61c6b4dcbb0aeb5f4","691fbc72b93567c443ca7ca3","index1","<span style='color:red'>Fail,<span style='color:red'>Fail,<span style='color:green'>Lift,<span style='color:green'>Lift,<span style='color:red'>Fail,<span style='color:red'>Fail,<span style='color:red'>Fail,<span style='color:red'>Fail,<span style='color:green'>Lift,<span style='color:red'>Fail,<span style='color:red'>Fail,<span style='color:green'>Lift","<span style='color:red'>Fail,<span style='color:red'>Fail,<span style='color:green'>Lift,<span style='color:green'>Lift,<span style='color:green'>Lift,<span style='color:green'>Lift,<span style='color:red'>Fail,<span style='color:green'>Lift,<span style='color:green'>Lift,<span style='color:green'>Lift,<span style='color:red'>Fail,<span style='color:green'>Lift","<span style='color:red'>Fail,<span style='color:green'>Lift,<span style='color:green'>Lift,<span style='color:red'>Fail,<span style='color:green'>Lift,<span style='color:green'>Lift","0,0,1,1,0,0,0,0,1,0,0,1","0,0,1,1,1,1,0,1,1,1,0,1","0,1,1,0,1,1",10,20,20,"","","","","{""box1"":""3"",""box2"":""7"",""box4"":""45""}","",5,"round2_outcome",3,5,2,3,7,NA,45,0,1,20,NA,NA,NA,NA,NA,NA,NA,NA,NA,NA,NA,3,7,NA,45,0,1,20,NA,NA,NA,NA,NA,NA,NA,NA,NA,NA,NA,"",NA,NA,NA,NA,NA,NA,NA,NA,NA,2025-11-21 01:25:00
"10370.399999976158","https://psyc-201.github.io/xiang2023/exp/index1.html?PROLIFIC_PID=REDACTED&STUDY_ID=691f8ca61c6b4dcbb0aeb5f4&SESSION_ID=691fbc72b93567c443ca7ca3","survey-html-form",35,557506,"0.0-347.0","MMAUNmjXOWwtcLLPHZWMslNI/0Vv8Ra/gx0lqCnwI7cb3klSTHD517uwqWWe7TXboCiXC5+unroVx3TIumrtXLo2N7oHTxkEotyUNfd5ydiQnJtJe8EeGRkqUIwbrc4qVkOErZTWz3CaxSDF07OhGNMT1x4pMC0V3XslszYcdVcisiYfQGy6FxxxAJ58AzFsx6u2hJk9/jFi5AZqnM4GqGcT9lZ8J569i2qjo7dKIZHyRC7sa9+98R9xajcetI6sv8DMM3udOMPdmUKv9dIsubf5twmFIQzTzOLmbRFliEXU22HkWhAYnjkYS4ssdfvMfvIhealaJTsYw9U7Uf+9dw==","691f8ca61c6b4dcbb0aeb5f4","691fbc72b93567c443ca7ca3","index1","<span style='color:red'>Fail,<span style='color:red'>Fail,<span style='color:green'>Lift,<span style='color:green'>Lift,<span style='color:red'>Fail,<span style='color:red'>Fail,<span style='color:red'>Fail,<span style='color:red'>Fail,<span style='color:green'>Lift,<span style='color:red'>Fail,<span style='color:red'>Fail,<span style='color:green'>Lift","<span style='color:red'>Fail,<span style='color:red'>Fail,<span style='color:green'>Lift,<span style='color:green'>Lift,<span style='color:green'>Lift,<span style='color:green'>Lift,<span style='color:red'>Fail,<span style='color:green'>Lift,<span style='color:green'>Lift,<span style='color:green'>Lift,<span style='color:red'>Fail,<span style='color:green'>Lift","<span style='color:red'>Fail,<span style='color:green'>Lift,<span style='color:green'>Lift,<span style='color:red'>Fail,<span style='color:green'>Lift,<span style='color:green'>Lift","0,0,1,1,0,0,0,0,1,0,0,1","0,0,1,1,1,1,0,1,1,1,0,1","0,1,1,0,1,1",10,20,20,"","","","","{""box1"":""10""}","",5,"round3_ready",4,5,3,NA,NA,NA,NA,NA,NA,NA,NA,NA,NA,NA,NA,NA,NA,10,10,NA,NA,NA,NA,NA,NA,NA,NA,NA,10,10,NA,NA,NA,NA,NA,NA,NA,NA,NA,"",NA,NA,NA,NA,NA,NA,NA,NA,NA,2025-11-21 01:25:00
"20892.700000047684","https://psyc-201.github.io/xiang2023/exp/index1.html?PROLIFIC_PID=REDACTED&STUDY_ID=691f8ca61c6b4dcbb0aeb5f4&SESSION_ID=691fbc72b93567c443ca7ca3","survey-html-form",36,578401,"0.0-348.0-0.0","MMAUNmjXOWwtcLLPHZWMslNI/0Vv8Ra/gx0lqCnwI7cb3klSTHD517uwqWWe7TXboCiXC5+unroVx3TIumrtXLo2N7oHTxkEotyUNfd5ydiQnJtJe8EeGRkqUIwbrc4qVkOErZTWz3CaxSDF07OhGNMT1x4pMC0V3XslszYcdVcisiYfQGy6FxxxAJ58AzFsx6u2hJk9/jFi5AZqnM4GqGcT9lZ8J569i2qjo7dKIZHyRC7sa9+98R9xajcetI6sv8DMM3udOMPdmUKv9dIsubf5twmFIQzTzOLmbRFliEXU22HkWhAYnjkYS4ssdfvMfvIhealaJTsYw9U7Uf+9dw==","691f8ca61c6b4dcbb0aeb5f4","691fbc72b93567c443ca7ca3","index1","<span style='color:red'>Fail,<span style='color:red'>Fail,<span style='color:green'>Lift,<span style='color:green'>Lift,<span style='color:red'>Fail,<span style='color:red'>Fail,<span style='color:red'>Fail,<span style='color:red'>Fail,<span style='color:green'>Lift,<span style='color:red'>Fail,<span style='color:red'>Fail,<span style='color:green'>Lift","<span style='color:red'>Fail,<span style='color:red'>Fail,<span style='color:green'>Lift,<span style='color:green'>Lift,<span style='color:green'>Lift,<span style='color:green'>Lift,<span style='color:red'>Fail,<span style='color:green'>Lift,<span style='color:green'>Lift,<span style='color:green'>Lift,<span style='color:red'>Fail,<span style='color:green'>Lift","<span style='color:red'>Fail,<span style='color:green'>Lift,<span style='color:green'>Lift,<span style='color:red'>Fail,<span style='color:green'>Lift,<span style='color:green'>Lift","0,0,1,1,0,0,0,0,1,0,0,1","0,0,1,1,1,1,0,1,1,1,0,1","0,1,1,0,1,1",10,20,20,"","","","","{""box1"":""4"",""box2"":""8"",""box3"":""70"",""box4"":""50""}","",6,"round3_lift",5,5,3,4,8,70,50,1,1,20,NA,NA,NA,NA,NA,NA,NA,NA,NA,NA,NA,NA,NA,NA,NA,NA,NA,NA,NA,NA,NA,NA,4,8,1,1,20,70,50,"",NA,NA,NA,NA,NA,NA,NA,NA,NA,2025-11-21 01:25:00
"null","https://psyc-201.github.io/xiang2023/exp/index1.html?PROLIFIC_PID=REDACTED&STUDY_ID=691f8ca61c6b4dcbb0aeb5f4&SESSION_ID=691fbc72b93567c443ca7ca3","html-keyboard-response",37,581404,"0.0-352.0","MMAUNmjXOWwtcLLPHZWMslNI/0Vv8Ra/gx0lqCnwI7cb3klSTHD517uwqWWe7TXboCiXC5+unroVx3TIumrtXLo2N7oHTxkEotyUNfd5ydiQnJtJe8EeGRkqUIwbrc4qVkOErZTWz3CaxSDF07OhGNMT1x4pMC0V3XslszYcdVcisiYfQGy6FxxxAJ58AzFsx6u2hJk9/jFi5AZqnM4GqGcT9lZ8J569i2qjo7dKIZHyRC7sa9+98R9xajcetI6sv8DMM3udOMPdmUKv9dIsubf5twmFIQzTzOLmbRFliEXU22HkWhAYnjkYS4ssdfvMfvIhealaJTsYw9U7Uf+9dw==","691f8ca61c6b4dcbb0aeb5f4","691fbc72b93567c443ca7ca3","index1","<span style='color:red'>Fail,<span style='color:red'>Fail,<span style='color:green'>Lift,<span style='color:green'>Lift,<span style='color:red'>Fail,<span style='color:red'>Fail,<span style='color:red'>Fail,<span style='color:red'>Fail,<span style='color:green'>Lift,<span style='color:red'>Fail,<span style='color:red'>Fail,<span style='color:green'>Lift","<span style='color:red'>Fail,<span style='color:red'>Fail,<span style='color:green'>Lift,<span style='color:green'>Lift,<span style='color:green'>Lift,<span style='color:green'>Lift,<span style='color:red'>Fail,<span style='color:green'>Lift,<span style='color:green'>Lift,<span style='color:green'>Lift,<span style='color:red'>Fail,<span style='color:green'>Lift","<span style='color:red'>Fail,<span style='color:green'>Lift,<span style='color:green'>Lift,<span style='color:red'>Fail,<span style='color:green'>Lift,<span style='color:green'>Lift","0,0,1,1,0,0,0,0,1,0,0,1","0,0,1,1,1,1,0,1,1,1,0,1","0,1,1,0,1,1",10,20,20,"","","<p style='font-size:30px'><b> New Contest! </b></p>","null","","",6,"",NA,NA,NA,NA,NA,NA,NA,NA,NA,NA,NA,NA,NA,NA,NA,NA,NA,NA,NA,NA,NA,NA,NA,NA,NA,NA,NA,NA,NA,NA,NA,NA,NA,NA,NA,NA,NA,NA,NA,"",NA,NA,NA,NA,NA,NA,NA,NA,NA,2025-11-21 01:25:00
"18892.700000047684","https://psyc-201.github.io/xiang2023/exp/index1.html?PROLIFIC_PID=REDACTED&STUDY_ID=691f8ca61c6b4dcbb0aeb5f4&SESSION_ID=691fbc72b93567c443ca7ca3","survey-html-form",38,600299,"0.0-353.0","MMAUNmjXOWwtcLLPHZWMslNI/0Vv8Ra/gx0lqCnwI7cb3klSTHD517uwqWWe7TXboCiXC5+unroVx3TIumrtXLo2N7oHTxkEotyUNfd5ydiQnJtJe8EeGRkqUIwbrc4qVkOErZTWz3CaxSDF07OhGNMT1x4pMC0V3XslszYcdVcisiYfQGy6FxxxAJ58AzFsx6u2hJk9/jFi5AZqnM4GqGcT9lZ8J569i2qjo7dKIZHyRC7sa9+98R9xajcetI6sv8DMM3udOMPdmUKv9dIsubf5twmFIQzTzOLmbRFliEXU22HkWhAYnjkYS4ssdfvMfvIhealaJTsYw9U7Uf+9dw==","691f8ca61c6b4dcbb0aeb5f4","691fbc72b93567c443ca7ca3","index1","<span style='color:red'>Fail,<span style='color:red'>Fail,<span style='color:green'>Lift,<span style='color:green'>Lift,<span style='color:red'>Fail,<span style='color:red'>Fail,<span style='color:red'>Fail,<span style='color:red'>Fail,<span style='color:green'>Lift,<span style='color:red'>Fail,<span style='color:red'>Fail,<span style='color:green'>Lift","<span style='color:red'>Fail,<span style='color:red'>Fail,<span style='color:green'>Lift,<span style='color:green'>Lift,<span style='color:green'>Lift,<span style='color:green'>Lift,<span style='color:red'>Fail,<span style='color:green'>Lift,<span style='color:green'>Lift,<span style='color:green'>Lift,<span style='color:red'>Fail,<span style='color:green'>Lift","<span style='color:red'>Fail,<span style='color:green'>Lift,<span style='color:green'>Lift,<span style='color:red'>Fail,<span style='color:green'>Lift,<span style='color:green'>Lift","0,0,1,1,0,0,0,0,1,0,0,1","0,0,1,1,1,1,0,1,1,1,0,1","0,1,1,0,1,1",10,20,20,"","","","","{""box1"":""5"",""box2"":""4"",""box3"":""35""}","",6,"round1_outcome",1,6,1,5,4,35,NA,1,0,10,5,4,35,NA,1,0,10,NA,NA,NA,NA,NA,NA,NA,NA,NA,NA,NA,NA,NA,NA,NA,NA,NA,NA,NA,NA,NA,NA,"",NA,NA,NA,NA,NA,NA,NA,NA,NA,2025-11-21 01:25:00
"8984.600000023842","https://psyc-201.github.io/xiang2023/exp/index1.html?PROLIFIC_PID=REDACTED&STUDY_ID=691f8ca61c6b4dcbb0aeb5f4&SESSION_ID=691fbc72b93567c443ca7ca3","survey-html-form",39,609286,"0.0-354.0","MMAUNmjXOWwtcLLPHZWMslNI/0Vv8Ra/gx0lqCnwI7cb3klSTHD517uwqWWe7TXboCiXC5+unroVx3TIumrtXLo2N7oHTxkEotyUNfd5ydiQnJtJe8EeGRkqUIwbrc4qVkOErZTWz3CaxSDF07OhGNMT1x4pMC0V3XslszYcdVcisiYfQGy6FxxxAJ58AzFsx6u2hJk9/jFi5AZqnM4GqGcT9lZ8J569i2qjo7dKIZHyRC7sa9+98R9xajcetI6sv8DMM3udOMPdmUKv9dIsubf5twmFIQzTzOLmbRFliEXU22HkWhAYnjkYS4ssdfvMfvIhealaJTsYw9U7Uf+9dw==","691f8ca61c6b4dcbb0aeb5f4","691fbc72b93567c443ca7ca3","index1","<span style='color:red'>Fail,<span style='color:red'>Fail,<span style='color:green'>Lift,<span style='color:green'>Lift,<span style='color:red'>Fail,<span style='color:red'>Fail,<span style='color:red'>Fail,<span style='color:red'>Fail,<span style='color:green'>Lift,<span style='color:red'>Fail,<span style='color:red'>Fail,<span style='color:green'>Lift","<span style='color:red'>Fail,<span style='color:red'>Fail,<span style='color:green'>Lift,<span style='color:green'>Lift,<span style='color:green'>Lift,<span style='color:green'>Lift,<span style='color:red'>Fail,<span style='color:green'>Lift,<span style='color:green'>Lift,<span style='color:green'>Lift,<span style='color:red'>Fail,<span style='color:green'>Lift","<span style='color:red'>Fail,<span style='color:green'>Lift,<span style='color:green'>Lift,<span style='color:red'>Fail,<span style='color:green'>Lift,<span style='color:green'>Lift","0,0,1,1,0,0,0,0,1,0,0,1","0,0,1,1,1,1,0,1,1,1,0,1","0,1,1,0,1,1",10,20,20,"","","","","{""box1"":""90"",""box2"":""35""}","",6,"round2_ready",2,6,2,NA,NA,NA,NA,NA,NA,NA,NA,NA,NA,NA,NA,NA,NA,90,35,90,35,NA,NA,NA,NA,NA,NA,NA,NA,NA,NA,NA,NA,NA,NA,NA,NA,NA,NA,"",NA,NA,NA,NA,NA,NA,NA,NA,NA,2025-11-21 01:25:00
"19174.100000023842","https://psyc-201.github.io/xiang2023/exp/index1.html?PROLIFIC_PID=REDACTED&STUDY_ID=691f8ca61c6b4dcbb0aeb5f4&SESSION_ID=691fbc72b93567c443ca7ca3","survey-html-form",40,628463,"0.0-355.0","MMAUNmjXOWwtcLLPHZWMslNI/0Vv8Ra/gx0lqCnwI7cb3klSTHD517uwqWWe7TXboCiXC5+unroVx3TIumrtXLo2N7oHTxkEotyUNfd5ydiQnJtJe8EeGRkqUIwbrc4qVkOErZTWz3CaxSDF07OhGNMT1x4pMC0V3XslszYcdVcisiYfQGy6FxxxAJ58AzFsx6u2hJk9/jFi5AZqnM4GqGcT9lZ8J569i2qjo7dKIZHyRC7sa9+98R9xajcetI6sv8DMM3udOMPdmUKv9dIsubf5twmFIQzTzOLmbRFliEXU22HkWhAYnjkYS4ssdfvMfvIhealaJTsYw9U7Uf+9dw==","691f8ca61c6b4dcbb0aeb5f4","691fbc72b93567c443ca7ca3","index1","<span style='color:red'>Fail,<span style='color:red'>Fail,<span style='color:green'>Lift,<span style='color:green'>Lift,<span style='color:red'>Fail,<span style='color:red'>Fail,<span style='color:red'>Fail,<span style='color:red'>Fail,<span style='color:green'>Lift,<span style='color:red'>Fail,<span style='color:red'>Fail,<span style='color:green'>Lift","<span style='color:red'>Fail,<span style='color:red'>Fail,<span style='color:green'>Lift,<span style='color:green'>Lift,<span style='color:green'>Lift,<span style='color:green'>Lift,<span style='color:red'>Fail,<span style='color:green'>Lift,<span style='color:green'>Lift,<span style='color:green'>Lift,<span style='color:red'>Fail,<span style='color:green'>Lift","<span style='color:red'>Fail,<span style='color:green'>Lift,<span style='color:green'>Lift,<span style='color:red'>Fail,<span style='color:green'>Lift,<span style='color:green'>Lift","0,0,1,1,0,0,0,0,1,0,0,1","0,0,1,1,1,1,0,1,1,1,0,1","0,1,1,0,1,1",10,20,20,"","","","","{""box1"":""7"",""box2"":""6"",""box3"":""45"",""box4"":""65""}","",6,"round2_outcome",3,6,2,7,6,45,65,1,1,20,NA,NA,NA,NA,NA,NA,NA,NA,NA,NA,NA,7,6,45,65,1,1,20,NA,NA,NA,NA,NA,NA,NA,NA,NA,NA,NA,"",NA,NA,NA,NA,NA,NA,NA,NA,NA,2025-11-21 01:25:00
"5070.399999976158","https://psyc-201.github.io/xiang2023/exp/index1.html?PROLIFIC_PID=REDACTED&STUDY_ID=691f8ca61c6b4dcbb0aeb5f4&SESSION_ID=691fbc72b93567c443ca7ca3","survey-html-form",41,633536,"0.0-356.0","MMAUNmjXOWwtcLLPHZWMslNI/0Vv8Ra/gx0lqCnwI7cb3klSTHD517uwqWWe7TXboCiXC5+unroVx3TIumrtXLo2N7oHTxkEotyUNfd5ydiQnJtJe8EeGRkqUIwbrc4qVkOErZTWz3CaxSDF07OhGNMT1x4pMC0V3XslszYcdVcisiYfQGy6FxxxAJ58AzFsx6u2hJk9/jFi5AZqnM4GqGcT9lZ8J569i2qjo7dKIZHyRC7sa9+98R9xajcetI6sv8DMM3udOMPdmUKv9dIsubf5twmFIQzTzOLmbRFliEXU22HkWhAYnjkYS4ssdfvMfvIhealaJTsYw9U7Uf+9dw==","691f8ca61c6b4dcbb0aeb5f4","691fbc72b93567c443ca7ca3","index1","<span style='color:red'>Fail,<span style='color:red'>Fail,<span style='color:green'>Lift,<span style='color:green'>Lift,<span style='color:red'>Fail,<span style='color:red'>Fail,<span style='color:red'>Fail,<span style='color:red'>Fail,<span style='color:green'>Lift,<span style='color:red'>Fail,<span style='color:red'>Fail,<span style='color:green'>Lift","<span style='color:red'>Fail,<span style='color:red'>Fail,<span style='color:green'>Lift,<span style='color:green'>Lift,<span style='color:green'>Lift,<span style='color:green'>Lift,<span style='color:red'>Fail,<span style='color:green'>Lift,<span style='color:green'>Lift,<span style='color:green'>Lift,<span style='color:red'>Fail,<span style='color:green'>Lift","<span style='color:red'>Fail,<span style='color:green'>Lift,<span style='color:green'>Lift,<span style='color:red'>Fail,<span style='color:green'>Lift,<span style='color:green'>Lift","0,0,1,1,0,0,0,0,1,0,0,1","0,0,1,1,1,1,0,1,1,1,0,1","0,1,1,0,1,1",10,20,20,"","","","","{""box1"":""100""}","",6,"round3_ready",4,6,3,NA,NA,NA,NA,NA,NA,NA,NA,NA,NA,NA,NA,NA,NA,100,100,NA,NA,NA,NA,NA,NA,NA,NA,NA,100,100,NA,NA,NA,NA,NA,NA,NA,NA,NA,"",NA,NA,NA,NA,NA,NA,NA,NA,NA,2025-11-21 01:25:00
"25495.5","https://psyc-201.github.io/xiang2023/exp/index1.html?PROLIFIC_PID=REDACTED&STUDY_ID=691f8ca61c6b4dcbb0aeb5f4&SESSION_ID=691fbc72b93567c443ca7ca3","survey-html-form",42,659034,"0.0-357.0-0.0","MMAUNmjXOWwtcLLPHZWMslNI/0Vv8Ra/gx0lqCnwI7cb3klSTHD517uwqWWe7TXboCiXC5+unroVx3TIumrtXLo2N7oHTxkEotyUNfd5ydiQnJtJe8EeGRkqUIwbrc4qVkOErZTWz3CaxSDF07OhGNMT1x4pMC0V3XslszYcdVcisiYfQGy6FxxxAJ58AzFsx6u2hJk9/jFi5AZqnM4GqGcT9lZ8J569i2qjo7dKIZHyRC7sa9+98R9xajcetI6sv8DMM3udOMPdmUKv9dIsubf5twmFIQzTzOLmbRFliEXU22HkWhAYnjkYS4ssdfvMfvIhealaJTsYw9U7Uf+9dw==","691f8ca61c6b4dcbb0aeb5f4","691fbc72b93567c443ca7ca3","index1","<span style='color:red'>Fail,<span style='color:red'>Fail,<span style='color:green'>Lift,<span style='color:green'>Lift,<span style='color:red'>Fail,<span style='color:red'>Fail,<span style='color:red'>Fail,<span style='color:red'>Fail,<span style='color:green'>Lift,<span style='color:red'>Fail,<span style='color:red'>Fail,<span style='color:green'>Lift","<span style='color:red'>Fail,<span style='color:red'>Fail,<span style='color:green'>Lift,<span style='color:green'>Lift,<span style='color:green'>Lift,<span style='color:green'>Lift,<span style='color:red'>Fail,<span style='color:green'>Lift,<span style='color:green'>Lift,<span style='color:green'>Lift,<span style='color:red'>Fail,<span style='color:green'>Lift","<span style='color:red'>Fail,<span style='color:green'>Lift,<span style='color:green'>Lift,<span style='color:red'>Fail,<span style='color:green'>Lift,<span style='color:green'>Lift","0,0,1,1,0,0,0,0,1,0,0,1","0,0,1,1,1,1,0,1,1,1,0,1","0,1,1,0,1,1",10,20,20,"","","","","{""box1"":""8"",""box2"":""5"",""box3"":""40"",""box4"":""65""}","",6,"round3_lift",5,6,3,8,5,40,65,1,1,20,NA,NA,NA,NA,NA,NA,NA,NA,NA,NA,NA,NA,NA,NA,NA,NA,NA,NA,NA,NA,NA,NA,8,5,1,1,20,40,65,"",NA,NA,NA,NA,NA,NA,NA,NA,NA,2025-11-21 01:25:00
"56149.300000071526","https://psyc-201.github.io/xiang2023/exp/index1.html?PROLIFIC_PID=REDACTED&STUDY_ID=691f8ca61c6b4dcbb0aeb5f4&SESSION_ID=691fbc72b93567c443ca7ca3","survey-text",43,715193,"0.0-361.0","MMAUNmjXOWwtcLLPHZWMslNI/0Vv8Ra/gx0lqCnwI7cb3klSTHD517uwqWWe7TXboCiXC5+unroVx3TIumrtXLo2N7oHTxkEotyUNfd5ydiQnJtJe8EeGRkqUIwbrc4qVkOErZTWz3CaxSDF07OhGNMT1x4pMC0V3XslszYcdVcisiYfQGy6FxxxAJ58AzFsx6u2hJk9/jFi5AZqnM4GqGcT9lZ8J569i2qjo7dKIZHyRC7sa9+98R9xajcetI6sv8DMM3udOMPdmUKv9dIsubf5twmFIQzTzOLmbRFliEXU22HkWhAYnjkYS4ssdfvMfvIhealaJTsYw9U7Uf+9dw==","691f8ca61c6b4dcbb0aeb5f4","691fbc72b93567c443ca7ca3","index1","<span style='color:red'>Fail,<span style='color:red'>Fail,<span style='color:green'>Lift,<span style='color:green'>Lift,<span style='color:red'>Fail,<span style='color:red'>Fail,<span style='color:red'>Fail,<span style='color:red'>Fail,<span style='color:green'>Lift,<span style='color:red'>Fail,<span style='color:red'>Fail,<span style='color:green'>Lift","<span style='color:red'>Fail,<span style='color:red'>Fail,<span style='color:green'>Lift,<span style='color:green'>Lift,<span style='color:green'>Lift,<span style='color:green'>Lift,<span style='color:red'>Fail,<span style='color:green'>Lift,<span style='color:green'>Lift,<span style='color:green'>Lift,<span style='color:red'>Fail,<span style='color:green'>Lift","<span style='color:red'>Fail,<span style='color:green'>Lift,<span style='color:green'>Lift,<span style='color:red'>Fail,<span style='color:green'>Lift,<span style='color:green'>Lift","0,0,1,1,0,0,0,0,1,0,0,1","0,0,1,1,1,1,0,1,1,1,0,1","0,1,1,0,1,1",10,20,20,"","","","","{""Q0"":""The task I completed involved estimating different values such as the effort that two contestants would have made to lift a box in the round, and other questions involved estimating/guessing how much effort they put into lifting and the probability of them lifting per round.""}","",NA,"",NA,NA,NA,NA,NA,NA,NA,NA,NA,NA,NA,NA,NA,NA,NA,NA,NA,NA,NA,NA,NA,NA,NA,NA,NA,NA,NA,NA,NA,NA,NA,NA,NA,NA,NA,NA,NA,NA,NA,"",NA,NA,NA,NA,NA,NA,NA,NA,NA,2025-11-21 01:25:00
"6046.200000047684","https://psyc-201.github.io/xiang2023/exp/index1.html?PROLIFIC_PID=REDACTED&STUDY_ID=691f8ca61c6b4dcbb0aeb5f4&SESSION_ID=691fbc72b93567c443ca7ca3","survey-text",44,721242,"0.0-362.0","MMAUNmjXOWwtcLLPHZWMslNI/0Vv8Ra/gx0lqCnwI7cb3klSTHD517uwqWWe7TXboCiXC5+unroVx3TIumrtXLo2N7oHTxkEotyUNfd5ydiQnJtJe8EeGRkqUIwbrc4qVkOErZTWz3CaxSDF07OhGNMT1x4pMC0V3XslszYcdVcisiYfQGy6FxxxAJ58AzFsx6u2hJk9/jFi5AZqnM4GqGcT9lZ8J569i2qjo7dKIZHyRC7sa9+98R9xajcetI6sv8DMM3udOMPdmUKv9dIsubf5twmFIQzTzOLmbRFliEXU22HkWhAYnjkYS4ssdfvMfvIhealaJTsYw9U7Uf+9dw==","691f8ca61c6b4dcbb0aeb5f4","691fbc72b93567c443ca7ca3","index1","<span style='color:red'>Fail,<span style='color:red'>Fail,<span style='color:green'>Lift,<span style='color:green'>Lift,<span style='color:red'>Fail,<span style='color:red'>Fail,<span style='color:red'>Fail,<span style='color:red'>Fail,<span style='color:green'>Lift,<span style='color:red'>Fail,<span style='color:red'>Fail,<span style='color:green'>Lift","<span style='color:red'>Fail,<span style='color:red'>Fail,<span style='color:green'>Lift,<span style='color:green'>Lift,<span style='color:green'>Lift,<span style='color:green'>Lift,<span style='color:red'>Fail,<span style='color:green'>Lift,<span style='color:green'>Lift,<span style='color:green'>Lift,<span style='color:red'>Fail,<span style='color:green'>Lift","<span style='color:red'>Fail,<span style='color:green'>Lift,<span style='color:green'>Lift,<span style='color:red'>Fail,<span style='color:green'>Lift,<span style='color:green'>Lift","0,0,1,1,0,0,0,0,1,0,0,1","0,0,1,1,1,1,0,1,1,1,0,1","0,1,1,0,1,1",10,20,20,"","","","","{""Q0"":""""}","",NA,"",NA,NA,NA,NA,NA,NA,NA,NA,NA,NA,NA,NA,NA,NA,NA,NA,NA,NA,NA,NA,NA,NA,NA,NA,NA,NA,NA,NA,NA,NA,NA,NA,NA,NA,NA,NA,NA,NA,NA,"[{""event"":""fullscreenenter"",""trial"":1,""time"":14915}]",6,2,1,35,1,0.35,NA,NA,NA,2025-11-21 01:25:00
"19465.600000023842","https://psyc-201.github.io/xiang2023/exp/index1.html?PROLIFIC_PID=REDACTED&STUDY_ID=691f8ca61c6b4dcbb0aeb5f4&SESSION_ID=691fbc72b93567c443ca7ca3","html-button-response",45,740712,"0.0-363.0","MMAUNmjXOWwtcLLPHZWMslNI/0Vv8Ra/gx0lqCnwI7cb3klSTHD517uwqWWe7TXboCiXC5+unroVx3TIumrtXLo2N7oHTxkEotyUNfd5ydiQnJtJe8EeGRkqUIwbrc4qVkOErZTWz3CaxSDF07OhGNMT1x4pMC0V3XslszYcdVcisiYfQGy6FxxxAJ58AzFsx6u2hJk9/jFi5AZqnM4GqGcT9lZ8J569i2qjo7dKIZHyRC7sa9+98R9xajcetI6sv8DMM3udOMPdmUKv9dIsubf5twmFIQzTzOLmbRFliEXU22HkWhAYnjkYS4ssdfvMfvIhealaJTsYw9U7Uf+9dw==","691f8ca61c6b4dcbb0aeb5f4","691fbc72b93567c443ca7ca3","index1","<span style='color:red'>Fail,<span style='color:red'>Fail,<span style='color:green'>Lift,<span style='color:green'>Lift,<span style='color:red'>Fail,<span style='color:red'>Fail,<span style='color:red'>Fail,<span style='color:red'>Fail,<span style='color:green'>Lift,<span style='color:red'>Fail,<span style='color:red'>Fail,<span style='color:green'>Lift","<span style='color:red'>Fail,<span style='color:red'>Fail,<span style='color:green'>Lift,<span style='color:green'>Lift,<span style='color:green'>Lift,<span style='color:green'>Lift,<span style='color:red'>Fail,<span style='color:green'>Lift,<span style='color:green'>Lift,<span style='color:green'>Lift,<span style='color:red'>Fail,<span style='color:green'>Lift","<span style='color:red'>Fail,<span style='color:green'>Lift,<span style='color:green'>Lift,<span style='color:red'>Fail,<span style='color:green'>Lift,<span style='color:green'>Lift","0,0,1,1,0,0,0,0,1,0,0,1","0,0,1,1,1,1,0,1,1,1,0,1","0,1,1,0,1,1",10,20,20,"","","<p> We randomly picked <b>Contest 6, Round 2</b> to calculate your bonus. </p><p> The outcome of Contestant L on that round is <span style='color:green'>Lift</span>. </p><p> The probability you entered was 35. </p><p><b> You won a bonus of $0.35!</b></p><p> IMPORTANT: Please click 'Next' to complete the game.</p>","","","",NA,"",NA,NA,NA,NA,NA,NA,NA,NA,NA,NA,NA,NA,NA,NA,NA,NA,NA,NA,NA,NA,NA,NA,NA,NA,NA,NA,NA,NA,NA,NA,NA,NA,NA,NA,NA,NA,NA,NA,NA,"",NA,NA,NA,NA,NA,NA,0,2,1,2025-11-21 01:25:00
