"rt","url","trial_type","trial_index","time_elapsed","internal_node_id","encryptedProlificId","studyId","sessionId","expIndex","round1_outcomes","round2_outcomes","round3_outcomes","round1_o","round2_o","round3_o","round1_reward","round2_reward","round3_reward","success","view_history","stimulus","key_press","responses","question_order","j","Stage","stage","contest","round","strength_a","strength_b","effort_a","effort_b","outcome_a","outcome_b","reward","r1_strength_a","r1_strength_b","r1_effort_a","r1_effort_b","r1_outcome_a","r1_outcome_b","r1_reward","probability_a","probability_b","r2_prob_a","r2_prob_b","r2_strength_a","r2_strength_b","r2_effort_a","r2_effort_b","r2_outcome_a","r2_outcome_b","r2_reward","r3_prob_a","r3_prob_b","attention_check","count","r3_strength_a","r3_strength_b","r3_outcome_a","r3_outcome_b","r3_reward","r3_effort_a","r3_effort_b","screen","pick_contest","pick_round","pick_side","trial_probability","trial_outcome","bonus","button_pressed","attention_sum","attention","datapipe_meta.attributes.date_modified"
"18268.200000047684","https://psyc-201.github.io/xiang2023/exp/index1.html?PROLIFIC_PID=REDACTED&STUDY_ID=69168b21477cff9ada6cb980&SESSION_ID=691bd37934559927267542ab","external-html",0,18308,"0.0-0.0","HIrC+LozZeKxg5akC7XcryIqo2iK5yB55zZrqJs0I0JvlEmCu3XoCEi4vE78E6vNPYmQYZqzLsr3smtK+0qib+A8y3Vp5P4SDUuNqe6v1Vfeo3oymwvlieiWneK6T1ibSTMZg3rTFs6FQYdAzqHPN9N9WwlBe6NwU0DdoKPszh3nVTKdE6H6SYlOJLCPvBE2WuD+mJUNhFzRlthpygh7m1HjQRutxq6YUttizVJLHEYtHhAw0Lisi7Rw4ObjpiF77ff3oeViW06bv06rFXZT0cvOlCWe66Ne2RTddi90/XylMtbSJOPtbL+n5JWqK9y+mkBWpmD5UkqRhVxhrQCIiw==","69168b21477cff9ada6cb980","691bd37934559927267542ab","index1","<span style='color:red'>Fail,<span style='color:red'>Fail,<span style='color:green'>Lift,<span style='color:green'>Lift,<span style='color:red'>Fail,<span style='color:red'>Fail,<span style='color:red'>Fail,<span style='color:red'>Fail,<span style='color:green'>Lift,<span style='color:red'>Fail,<span style='color:green'>Lift,<span style='color:red'>Fail","<span style='color:red'>Fail,<span style='color:red'>Fail,<span style='color:green'>Lift,<span style='color:green'>Lift,<span style='color:green'>Lift,<span style='color:green'>Lift,<span style='color:red'>Fail,<span style='color:green'>Lift,<span style='color:green'>Lift,<span style='color:green'>Lift,<span style='color:green'>Lift,<span style='color:red'>Fail","<span style='color:red'>Fail,<span style='color:green'>Lift,<span style='color:green'>Lift,<span style='color:red'>Fail,<span style='color:green'>Lift,<span style='color:green'>Lift","0,0,1,1,0,0,0,0,1,0,1,0","0,0,1,1,1,1,0,1,1,1,1,0","0,1,1,0,1,1",10,20,20,"","","","","","",NA,"",NA,NA,NA,NA,NA,NA,NA,NA,NA,NA,NA,NA,NA,NA,NA,NA,NA,NA,NA,NA,NA,NA,NA,NA,NA,NA,NA,NA,NA,NA,NA,NA,NA,NA,NA,NA,NA,NA,NA,"",NA,NA,NA,NA,NA,NA,NA,NA,NA,2025-11-18 02:10:07
"","https://psyc-201.github.io/xiang2023/exp/index1.html?PROLIFIC_PID=REDACTED&STUDY_ID=69168b21477cff9ada6cb980&SESSION_ID=691bd37934559927267542ab","fullscreen",1,21543,"0.0-1.0","HIrC+LozZeKxg5akC7XcryIqo2iK5yB55zZrqJs0I0JvlEmCu3XoCEi4vE78E6vNPYmQYZqzLsr3smtK+0qib+A8y3Vp5P4SDUuNqe6v1Vfeo3oymwvlieiWneK6T1ibSTMZg3rTFs6FQYdAzqHPN9N9WwlBe6NwU0DdoKPszh3nVTKdE6H6SYlOJLCPvBE2WuD+mJUNhFzRlthpygh7m1HjQRutxq6YUttizVJLHEYtHhAw0Lisi7Rw4ObjpiF77ff3oeViW06bv06rFXZT0cvOlCWe66Ne2RTddi90/XylMtbSJOPtbL+n5JWqK9y+mkBWpmD5UkqRhVxhrQCIiw==","69168b21477cff9ada6cb980","691bd37934559927267542ab","index1","<span style='color:red'>Fail,<span style='color:red'>Fail,<span style='color:green'>Lift,<span style='color:green'>Lift,<span style='color:red'>Fail,<span style='color:red'>Fail,<span style='color:red'>Fail,<span style='color:red'>Fail,<span style='color:green'>Lift,<span style='color:red'>Fail,<span style='color:green'>Lift,<span style='color:red'>Fail","<span style='color:red'>Fail,<span style='color:red'>Fail,<span style='color:green'>Lift,<span style='color:green'>Lift,<span style='color:green'>Lift,<span style='color:green'>Lift,<span style='color:red'>Fail,<span style='color:green'>Lift,<span style='color:green'>Lift,<span style='color:green'>Lift,<span style='color:green'>Lift,<span style='color:red'>Fail","<span style='color:red'>Fail,<span style='color:green'>Lift,<span style='color:green'>Lift,<span style='color:red'>Fail,<span style='color:green'>Lift,<span style='color:green'>Lift","0,0,1,1,0,0,0,0,1,0,1,0","0,0,1,1,1,1,0,1,1,1,1,0","0,1,1,0,1,1",10,20,20,"true","","","","","",NA,"",NA,NA,NA,NA,NA,NA,NA,NA,NA,NA,NA,NA,NA,NA,NA,NA,NA,NA,NA,NA,NA,NA,NA,NA,NA,NA,NA,NA,NA,NA,NA,NA,NA,NA,NA,NA,NA,NA,NA,"",NA,NA,NA,NA,NA,NA,NA,NA,NA,2025-11-18 02:10:07
"122346.59999990463","https://psyc-201.github.io/xiang2023/exp/index1.html?PROLIFIC_PID=REDACTED&STUDY_ID=69168b21477cff9ada6cb980&SESSION_ID=691bd37934559927267542ab","instructions",2,143893,"0.0-2.0","HIrC+LozZeKxg5akC7XcryIqo2iK5yB55zZrqJs0I0JvlEmCu3XoCEi4vE78E6vNPYmQYZqzLsr3smtK+0qib+A8y3Vp5P4SDUuNqe6v1Vfeo3oymwvlieiWneK6T1ibSTMZg3rTFs6FQYdAzqHPN9N9WwlBe6NwU0DdoKPszh3nVTKdE6H6SYlOJLCPvBE2WuD+mJUNhFzRlthpygh7m1HjQRutxq6YUttizVJLHEYtHhAw0Lisi7Rw4ObjpiF77ff3oeViW06bv06rFXZT0cvOlCWe66Ne2RTddi90/XylMtbSJOPtbL+n5JWqK9y+mkBWpmD5UkqRhVxhrQCIiw==","69168b21477cff9ada6cb980","691bd37934559927267542ab","index1","<span style='color:red'>Fail,<span style='color:red'>Fail,<span style='color:green'>Lift,<span style='color:green'>Lift,<span style='color:red'>Fail,<span style='color:red'>Fail,<span style='color:red'>Fail,<span style='color:red'>Fail,<span style='color:green'>Lift,<span style='color:red'>Fail,<span style='color:green'>Lift,<span style='color:red'>Fail","<span style='color:red'>Fail,<span style='color:red'>Fail,<span style='color:green'>Lift,<span style='color:green'>Lift,<span style='color:green'>Lift,<span style='color:green'>Lift,<span style='color:red'>Fail,<span style='color:green'>Lift,<span style='color:green'>Lift,<span style='color:green'>Lift,<span style='color:green'>Lift,<span style='color:red'>Fail","<span style='color:red'>Fail,<span style='color:green'>Lift,<span style='color:green'>Lift,<span style='color:red'>Fail,<span style='color:green'>Lift,<span style='color:green'>Lift","0,0,1,1,0,0,0,0,1,0,1,0","0,0,1,1,1,1,0,1,1,1,1,0","0,1,1,0,1,1",10,20,20,"","[{""page_index"":0,""viewing_time"":18379},{""page_index"":1,""viewing_time"":4683.200000047684},{""page_index"":2,""viewing_time"":3249.5},{""page_index"":3,""viewing_time"":2833.0999999046326},{""page_index"":4,""viewing_time"":1249.2999999523163},{""page_index"":5,""viewing_time"":1550.7999999523163},{""page_index"":6,""viewing_time"":2650.4000000953674},{""page_index"":5,""viewing_time"":749.5},{""page_index"":4,""viewing_time"":483.40000009536743},{""page_index"":3,""viewing_time"":1667},{""page_index"":2,""viewing_time"":1132},{""page_index"":1,""viewing_time"":833.1999998092651},{""page_index"":0,""viewing_time"":19652},{""page_index"":1,""viewing_time"":8083.700000047684},{""page_index"":2,""viewing_time"":8798.5},{""page_index"":3,""viewing_time"":12433.900000095367},{""page_index"":4,""viewing_time"":11300.200000047684},{""page_index"":5,""viewing_time"":10617},{""page_index"":6,""viewing_time"":11999.699999809265}]","","","","",NA,"",NA,NA,NA,NA,NA,NA,NA,NA,NA,NA,NA,NA,NA,NA,NA,NA,NA,NA,NA,NA,NA,NA,NA,NA,NA,NA,NA,NA,NA,NA,NA,NA,NA,NA,NA,NA,NA,NA,NA,"",NA,NA,NA,NA,NA,NA,NA,NA,NA,2025-11-18 02:10:07
"null","https://psyc-201.github.io/xiang2023/exp/index1.html?PROLIFIC_PID=REDACTED&STUDY_ID=69168b21477cff9ada6cb980&SESSION_ID=691bd37934559927267542ab","html-keyboard-response",3,144896,"0.0-3.0","HIrC+LozZeKxg5akC7XcryIqo2iK5yB55zZrqJs0I0JvlEmCu3XoCEi4vE78E6vNPYmQYZqzLsr3smtK+0qib+A8y3Vp5P4SDUuNqe6v1Vfeo3oymwvlieiWneK6T1ibSTMZg3rTFs6FQYdAzqHPN9N9WwlBe6NwU0DdoKPszh3nVTKdE6H6SYlOJLCPvBE2WuD+mJUNhFzRlthpygh7m1HjQRutxq6YUttizVJLHEYtHhAw0Lisi7Rw4ObjpiF77ff3oeViW06bv06rFXZT0cvOlCWe66Ne2RTddi90/XylMtbSJOPtbL+n5JWqK9y+mkBWpmD5UkqRhVxhrQCIiw==","69168b21477cff9ada6cb980","691bd37934559927267542ab","index1","<span style='color:red'>Fail,<span style='color:red'>Fail,<span style='color:green'>Lift,<span style='color:green'>Lift,<span style='color:red'>Fail,<span style='color:red'>Fail,<span style='color:red'>Fail,<span style='color:red'>Fail,<span style='color:green'>Lift,<span style='color:red'>Fail,<span style='color:green'>Lift,<span style='color:red'>Fail","<span style='color:red'>Fail,<span style='color:red'>Fail,<span style='color:green'>Lift,<span style='color:green'>Lift,<span style='color:green'>Lift,<span style='color:green'>Lift,<span style='color:red'>Fail,<span style='color:green'>Lift,<span style='color:green'>Lift,<span style='color:green'>Lift,<span style='color:green'>Lift,<span style='color:red'>Fail","<span style='color:red'>Fail,<span style='color:green'>Lift,<span style='color:green'>Lift,<span style='color:red'>Fail,<span style='color:green'>Lift,<span style='color:green'>Lift","0,0,1,1,0,0,0,0,1,0,1,0","0,0,1,1,1,1,0,1,1,1,1,0","0,1,1,0,1,1",10,20,20,"",""," ","null","","",NA,"",NA,NA,NA,NA,NA,NA,NA,NA,NA,NA,NA,NA,NA,NA,NA,NA,NA,NA,NA,NA,NA,NA,NA,NA,NA,NA,NA,NA,NA,NA,NA,NA,NA,NA,NA,NA,NA,NA,NA,"",NA,NA,NA,NA,NA,NA,NA,NA,NA,2025-11-18 02:10:07
"21846.099999904633","https://psyc-201.github.io/xiang2023/exp/index1.html?PROLIFIC_PID=REDACTED&STUDY_ID=69168b21477cff9ada6cb980&SESSION_ID=691bd37934559927267542ab","survey-multi-choice",4,166749,"0.0-4.0","HIrC+LozZeKxg5akC7XcryIqo2iK5yB55zZrqJs0I0JvlEmCu3XoCEi4vE78E6vNPYmQYZqzLsr3smtK+0qib+A8y3Vp5P4SDUuNqe6v1Vfeo3oymwvlieiWneK6T1ibSTMZg3rTFs6FQYdAzqHPN9N9WwlBe6NwU0DdoKPszh3nVTKdE6H6SYlOJLCPvBE2WuD+mJUNhFzRlthpygh7m1HjQRutxq6YUttizVJLHEYtHhAw0Lisi7Rw4ObjpiF77ff3oeViW06bv06rFXZT0cvOlCWe66Ne2RTddi90/XylMtbSJOPtbL+n5JWqK9y+mkBWpmD5UkqRhVxhrQCIiw==","69168b21477cff9ada6cb980","691bd37934559927267542ab","index1","<span style='color:red'>Fail,<span style='color:red'>Fail,<span style='color:green'>Lift,<span style='color:green'>Lift,<span style='color:red'>Fail,<span style='color:red'>Fail,<span style='color:red'>Fail,<span style='color:red'>Fail,<span style='color:green'>Lift,<span style='color:red'>Fail,<span style='color:green'>Lift,<span style='color:red'>Fail","<span style='color:red'>Fail,<span style='color:red'>Fail,<span style='color:green'>Lift,<span style='color:green'>Lift,<span style='color:green'>Lift,<span style='color:green'>Lift,<span style='color:red'>Fail,<span style='color:green'>Lift,<span style='color:green'>Lift,<span style='color:green'>Lift,<span style='color:green'>Lift,<span style='color:red'>Fail","<span style='color:red'>Fail,<span style='color:green'>Lift,<span style='color:green'>Lift,<span style='color:red'>Fail,<span style='color:green'>Lift,<span style='color:green'>Lift","0,0,1,1,0,0,0,0,1,0,1,0","0,0,1,1,1,1,0,1,1,1,1,0","0,1,1,0,1,1",10,20,20,"","","","","{""Q0"":""It consists of multiple contests, each contest with three rounds."",""Q1"":""When a new contest begins."",""Q2"":""The box weight always stays the same (equivalent to strength of 5)."",""Q3"":""Each will get $20."",""Q4"":""How close my guesses are to the actual outcome.""}","[0,1,2,3,4]",NA,"",NA,NA,NA,NA,NA,NA,NA,NA,NA,NA,NA,NA,NA,NA,NA,NA,NA,NA,NA,NA,NA,NA,NA,NA,NA,NA,NA,NA,NA,NA,NA,NA,NA,NA,NA,NA,NA,NA,NA,"",NA,NA,NA,NA,NA,NA,NA,NA,NA,2025-11-18 02:10:07
"14816.700000047684","https://psyc-201.github.io/xiang2023/exp/index1.html?PROLIFIC_PID=REDACTED&STUDY_ID=69168b21477cff9ada6cb980&SESSION_ID=691bd37934559927267542ab","instructions",5,181576,"0.0-305.0","HIrC+LozZeKxg5akC7XcryIqo2iK5yB55zZrqJs0I0JvlEmCu3XoCEi4vE78E6vNPYmQYZqzLsr3smtK+0qib+A8y3Vp5P4SDUuNqe6v1Vfeo3oymwvlieiWneK6T1ibSTMZg3rTFs6FQYdAzqHPN9N9WwlBe6NwU0DdoKPszh3nVTKdE6H6SYlOJLCPvBE2WuD+mJUNhFzRlthpygh7m1HjQRutxq6YUttizVJLHEYtHhAw0Lisi7Rw4ObjpiF77ff3oeViW06bv06rFXZT0cvOlCWe66Ne2RTddi90/XylMtbSJOPtbL+n5JWqK9y+mkBWpmD5UkqRhVxhrQCIiw==","69168b21477cff9ada6cb980","691bd37934559927267542ab","index1","<span style='color:red'>Fail,<span style='color:red'>Fail,<span style='color:green'>Lift,<span style='color:green'>Lift,<span style='color:red'>Fail,<span style='color:red'>Fail,<span style='color:red'>Fail,<span style='color:red'>Fail,<span style='color:green'>Lift,<span style='color:red'>Fail,<span style='color:green'>Lift,<span style='color:red'>Fail","<span style='color:red'>Fail,<span style='color:red'>Fail,<span style='color:green'>Lift,<span style='color:green'>Lift,<span style='color:green'>Lift,<span style='color:green'>Lift,<span style='color:red'>Fail,<span style='color:green'>Lift,<span style='color:green'>Lift,<span style='color:green'>Lift,<span style='color:green'>Lift,<span style='color:red'>Fail","<span style='color:red'>Fail,<span style='color:green'>Lift,<span style='color:green'>Lift,<span style='color:red'>Fail,<span style='color:green'>Lift,<span style='color:green'>Lift","0,0,1,1,0,0,0,0,1,0,1,0","0,0,1,1,1,1,0,1,1,1,1,0","0,1,1,0,1,1",10,20,20,"","[{""page_index"":0,""viewing_time"":11966},{""page_index"":1,""viewing_time"":2850.300000190735}]","","","","",NA,"",NA,NA,NA,NA,NA,NA,NA,NA,NA,NA,NA,NA,NA,NA,NA,NA,NA,NA,NA,NA,NA,NA,NA,NA,NA,NA,NA,NA,NA,NA,NA,NA,NA,NA,NA,NA,NA,NA,NA,"",NA,NA,NA,NA,NA,NA,NA,NA,NA,2025-11-18 02:10:07
"null","https://psyc-201.github.io/xiang2023/exp/index1.html?PROLIFIC_PID=REDACTED&STUDY_ID=69168b21477cff9ada6cb980&SESSION_ID=691bd37934559927267542ab","html-keyboard-response",6,182580,"0.0-306.0","HIrC+LozZeKxg5akC7XcryIqo2iK5yB55zZrqJs0I0JvlEmCu3XoCEi4vE78E6vNPYmQYZqzLsr3smtK+0qib+A8y3Vp5P4SDUuNqe6v1Vfeo3oymwvlieiWneK6T1ibSTMZg3rTFs6FQYdAzqHPN9N9WwlBe6NwU0DdoKPszh3nVTKdE6H6SYlOJLCPvBE2WuD+mJUNhFzRlthpygh7m1HjQRutxq6YUttizVJLHEYtHhAw0Lisi7Rw4ObjpiF77ff3oeViW06bv06rFXZT0cvOlCWe66Ne2RTddi90/XylMtbSJOPtbL+n5JWqK9y+mkBWpmD5UkqRhVxhrQCIiw==","69168b21477cff9ada6cb980","691bd37934559927267542ab","index1","<span style='color:red'>Fail,<span style='color:red'>Fail,<span style='color:green'>Lift,<span style='color:green'>Lift,<span style='color:red'>Fail,<span style='color:red'>Fail,<span style='color:red'>Fail,<span style='color:red'>Fail,<span style='color:green'>Lift,<span style='color:red'>Fail,<span style='color:green'>Lift,<span style='color:red'>Fail","<span style='color:red'>Fail,<span style='color:red'>Fail,<span style='color:green'>Lift,<span style='color:green'>Lift,<span style='color:green'>Lift,<span style='color:green'>Lift,<span style='color:red'>Fail,<span style='color:green'>Lift,<span style='color:green'>Lift,<span style='color:green'>Lift,<span style='color:green'>Lift,<span style='color:red'>Fail","<span style='color:red'>Fail,<span style='color:green'>Lift,<span style='color:green'>Lift,<span style='color:red'>Fail,<span style='color:green'>Lift,<span style='color:green'>Lift","0,0,1,1,0,0,0,0,1,0,1,0","0,0,1,1,1,1,0,1,1,1,1,0","0,1,1,0,1,1",10,20,20,"",""," ","null","","",1,"",NA,NA,NA,NA,NA,NA,NA,NA,NA,NA,NA,NA,NA,NA,NA,NA,NA,NA,NA,NA,NA,NA,NA,NA,NA,NA,NA,NA,NA,NA,NA,NA,NA,NA,NA,NA,NA,NA,NA,"",NA,NA,NA,NA,NA,NA,NA,NA,NA,2025-11-18 02:10:07
"null","https://psyc-201.github.io/xiang2023/exp/index1.html?PROLIFIC_PID=REDACTED&STUDY_ID=69168b21477cff9ada6cb980&SESSION_ID=691bd37934559927267542ab","html-keyboard-response",7,185583,"0.0-307.0","HIrC+LozZeKxg5akC7XcryIqo2iK5yB55zZrqJs0I0JvlEmCu3XoCEi4vE78E6vNPYmQYZqzLsr3smtK+0qib+A8y3Vp5P4SDUuNqe6v1Vfeo3oymwvlieiWneK6T1ibSTMZg3rTFs6FQYdAzqHPN9N9WwlBe6NwU0DdoKPszh3nVTKdE6H6SYlOJLCPvBE2WuD+mJUNhFzRlthpygh7m1HjQRutxq6YUttizVJLHEYtHhAw0Lisi7Rw4ObjpiF77ff3oeViW06bv06rFXZT0cvOlCWe66Ne2RTddi90/XylMtbSJOPtbL+n5JWqK9y+mkBWpmD5UkqRhVxhrQCIiw==","69168b21477cff9ada6cb980","691bd37934559927267542ab","index1","<span style='color:red'>Fail,<span style='color:red'>Fail,<span style='color:green'>Lift,<span style='color:green'>Lift,<span style='color:red'>Fail,<span style='color:red'>Fail,<span style='color:red'>Fail,<span style='color:red'>Fail,<span style='color:green'>Lift,<span style='color:red'>Fail,<span style='color:green'>Lift,<span style='color:red'>Fail","<span style='color:red'>Fail,<span style='color:red'>Fail,<span style='color:green'>Lift,<span style='color:green'>Lift,<span style='color:green'>Lift,<span style='color:green'>Lift,<span style='color:red'>Fail,<span style='color:green'>Lift,<span style='color:green'>Lift,<span style='color:green'>Lift,<span style='color:green'>Lift,<span style='color:red'>Fail","<span style='color:red'>Fail,<span style='color:green'>Lift,<span style='color:green'>Lift,<span style='color:red'>Fail,<span style='color:green'>Lift,<span style='color:green'>Lift","0,0,1,1,0,0,0,0,1,0,1,0","0,0,1,1,1,1,0,1,1,1,1,0","0,1,1,0,1,1",10,20,20,"","","<p style='font-size:30px'><b> New Contest! </b></p>","null","","",1,"",NA,NA,NA,NA,NA,NA,NA,NA,NA,NA,NA,NA,NA,NA,NA,NA,NA,NA,NA,NA,NA,NA,NA,NA,NA,NA,NA,NA,NA,NA,NA,NA,NA,NA,NA,NA,NA,NA,NA,"",NA,NA,NA,NA,NA,NA,NA,NA,NA,2025-11-18 02:10:07
"7085.299999952316","https://psyc-201.github.io/xiang2023/exp/index1.html?PROLIFIC_PID=REDACTED&STUDY_ID=69168b21477cff9ada6cb980&SESSION_ID=691bd37934559927267542ab","survey-html-form",8,192675,"0.0-308.0","HIrC+LozZeKxg5akC7XcryIqo2iK5yB55zZrqJs0I0JvlEmCu3XoCEi4vE78E6vNPYmQYZqzLsr3smtK+0qib+A8y3Vp5P4SDUuNqe6v1Vfeo3oymwvlieiWneK6T1ibSTMZg3rTFs6FQYdAzqHPN9N9WwlBe6NwU0DdoKPszh3nVTKdE6H6SYlOJLCPvBE2WuD+mJUNhFzRlthpygh7m1HjQRutxq6YUttizVJLHEYtHhAw0Lisi7Rw4ObjpiF77ff3oeViW06bv06rFXZT0cvOlCWe66Ne2RTddi90/XylMtbSJOPtbL+n5JWqK9y+mkBWpmD5UkqRhVxhrQCIiw==","69168b21477cff9ada6cb980","691bd37934559927267542ab","index1","<span style='color:red'>Fail,<span style='color:red'>Fail,<span style='color:green'>Lift,<span style='color:green'>Lift,<span style='color:red'>Fail,<span style='color:red'>Fail,<span style='color:red'>Fail,<span style='color:red'>Fail,<span style='color:green'>Lift,<span style='color:red'>Fail,<span style='color:green'>Lift,<span style='color:red'>Fail","<span style='color:red'>Fail,<span style='color:red'>Fail,<span style='color:green'>Lift,<span style='color:green'>Lift,<span style='color:green'>Lift,<span style='color:green'>Lift,<span style='color:red'>Fail,<span style='color:green'>Lift,<span style='color:green'>Lift,<span style='color:green'>Lift,<span style='color:green'>Lift,<span style='color:red'>Fail","<span style='color:red'>Fail,<span style='color:green'>Lift,<span style='color:green'>Lift,<span style='color:red'>Fail,<span style='color:green'>Lift,<span style='color:green'>Lift","0,0,1,1,0,0,0,0,1,0,1,0","0,0,1,1,1,1,0,1,1,1,1,0","0,1,1,0,1,1",10,20,20,"","","","","{""box1"":""5"",""box2"":""5""}","",1,"round1_outcome",1,1,1,5,5,NA,NA,0,0,10,5,5,NA,NA,0,0,10,NA,NA,NA,NA,NA,NA,NA,NA,NA,NA,NA,NA,NA,NA,NA,NA,NA,NA,NA,NA,NA,NA,"",NA,NA,NA,NA,NA,NA,NA,NA,NA,2025-11-18 02:10:07
"8232.199999809265","https://psyc-201.github.io/xiang2023/exp/index1.html?PROLIFIC_PID=REDACTED&STUDY_ID=69168b21477cff9ada6cb980&SESSION_ID=691bd37934559927267542ab","survey-html-form",9,200910,"0.0-309.0","HIrC+LozZeKxg5akC7XcryIqo2iK5yB55zZrqJs0I0JvlEmCu3XoCEi4vE78E6vNPYmQYZqzLsr3smtK+0qib+A8y3Vp5P4SDUuNqe6v1Vfeo3oymwvlieiWneK6T1ibSTMZg3rTFs6FQYdAzqHPN9N9WwlBe6NwU0DdoKPszh3nVTKdE6H6SYlOJLCPvBE2WuD+mJUNhFzRlthpygh7m1HjQRutxq6YUttizVJLHEYtHhAw0Lisi7Rw4ObjpiF77ff3oeViW06bv06rFXZT0cvOlCWe66Ne2RTddi90/XylMtbSJOPtbL+n5JWqK9y+mkBWpmD5UkqRhVxhrQCIiw==","69168b21477cff9ada6cb980","691bd37934559927267542ab","index1","<span style='color:red'>Fail,<span style='color:red'>Fail,<span style='color:green'>Lift,<span style='color:green'>Lift,<span style='color:red'>Fail,<span style='color:red'>Fail,<span style='color:red'>Fail,<span style='color:red'>Fail,<span style='color:green'>Lift,<span style='color:red'>Fail,<span style='color:green'>Lift,<span style='color:red'>Fail","<span style='color:red'>Fail,<span style='color:red'>Fail,<span style='color:green'>Lift,<span style='color:green'>Lift,<span style='color:green'>Lift,<span style='color:green'>Lift,<span style='color:red'>Fail,<span style='color:green'>Lift,<span style='color:green'>Lift,<span style='color:green'>Lift,<span style='color:green'>Lift,<span style='color:red'>Fail","<span style='color:red'>Fail,<span style='color:green'>Lift,<span style='color:green'>Lift,<span style='color:red'>Fail,<span style='color:green'>Lift,<span style='color:green'>Lift","0,0,1,1,0,0,0,0,1,0,1,0","0,0,1,1,1,1,0,1,1,1,1,0","0,1,1,0,1,1",10,20,20,"","","","","{""box1"":""50"",""box2"":""50""}","",1,"round2_ready",2,1,2,NA,NA,NA,NA,NA,NA,NA,NA,NA,NA,NA,NA,NA,NA,50,50,50,50,NA,NA,NA,NA,NA,NA,NA,NA,NA,NA,NA,NA,NA,NA,NA,NA,NA,NA,"",NA,NA,NA,NA,NA,NA,NA,NA,NA,2025-11-18 02:10:07
"9196","https://psyc-201.github.io/xiang2023/exp/index1.html?PROLIFIC_PID=REDACTED&STUDY_ID=69168b21477cff9ada6cb980&SESSION_ID=691bd37934559927267542ab","survey-html-form",10,210110,"0.0-310.0","HIrC+LozZeKxg5akC7XcryIqo2iK5yB55zZrqJs0I0JvlEmCu3XoCEi4vE78E6vNPYmQYZqzLsr3smtK+0qib+A8y3Vp5P4SDUuNqe6v1Vfeo3oymwvlieiWneK6T1ibSTMZg3rTFs6FQYdAzqHPN9N9WwlBe6NwU0DdoKPszh3nVTKdE6H6SYlOJLCPvBE2WuD+mJUNhFzRlthpygh7m1HjQRutxq6YUttizVJLHEYtHhAw0Lisi7Rw4ObjpiF77ff3oeViW06bv06rFXZT0cvOlCWe66Ne2RTddi90/XylMtbSJOPtbL+n5JWqK9y+mkBWpmD5UkqRhVxhrQCIiw==","69168b21477cff9ada6cb980","691bd37934559927267542ab","index1","<span style='color:red'>Fail,<span style='color:red'>Fail,<span style='color:green'>Lift,<span style='color:green'>Lift,<span style='color:red'>Fail,<span style='color:red'>Fail,<span style='color:red'>Fail,<span style='color:red'>Fail,<span style='color:green'>Lift,<span style='color:red'>Fail,<span style='color:green'>Lift,<span style='color:red'>Fail","<span style='color:red'>Fail,<span style='color:red'>Fail,<span style='color:green'>Lift,<span style='color:green'>Lift,<span style='color:green'>Lift,<span style='color:green'>Lift,<span style='color:red'>Fail,<span style='color:green'>Lift,<span style='color:green'>Lift,<span style='color:green'>Lift,<span style='color:green'>Lift,<span style='color:red'>Fail","<span style='color:red'>Fail,<span style='color:green'>Lift,<span style='color:green'>Lift,<span style='color:red'>Fail,<span style='color:green'>Lift,<span style='color:green'>Lift","0,0,1,1,0,0,0,0,1,0,1,0","0,0,1,1,1,1,0,1,1,1,1,0","0,1,1,0,1,1",10,20,20,"","","","","{""box1"":""5"",""box2"":""5""}","",1,"round2_outcome",3,1,2,5,5,NA,NA,0,0,20,NA,NA,NA,NA,NA,NA,NA,NA,NA,NA,NA,5,5,NA,NA,0,0,20,NA,NA,NA,NA,NA,NA,NA,NA,NA,NA,NA,"",NA,NA,NA,NA,NA,NA,NA,NA,NA,2025-11-18 02:10:07
"10596.099999904633","https://psyc-201.github.io/xiang2023/exp/index1.html?PROLIFIC_PID=REDACTED&STUDY_ID=69168b21477cff9ada6cb980&SESSION_ID=691bd37934559927267542ab","survey-html-form",11,220711,"0.0-311.0","HIrC+LozZeKxg5akC7XcryIqo2iK5yB55zZrqJs0I0JvlEmCu3XoCEi4vE78E6vNPYmQYZqzLsr3smtK+0qib+A8y3Vp5P4SDUuNqe6v1Vfeo3oymwvlieiWneK6T1ibSTMZg3rTFs6FQYdAzqHPN9N9WwlBe6NwU0DdoKPszh3nVTKdE6H6SYlOJLCPvBE2WuD+mJUNhFzRlthpygh7m1HjQRutxq6YUttizVJLHEYtHhAw0Lisi7Rw4ObjpiF77ff3oeViW06bv06rFXZT0cvOlCWe66Ne2RTddi90/XylMtbSJOPtbL+n5JWqK9y+mkBWpmD5UkqRhVxhrQCIiw==","69168b21477cff9ada6cb980","691bd37934559927267542ab","index1","<span style='color:red'>Fail,<span style='color:red'>Fail,<span style='color:green'>Lift,<span style='color:green'>Lift,<span style='color:red'>Fail,<span style='color:red'>Fail,<span style='color:red'>Fail,<span style='color:red'>Fail,<span style='color:green'>Lift,<span style='color:red'>Fail,<span style='color:green'>Lift,<span style='color:red'>Fail","<span style='color:red'>Fail,<span style='color:red'>Fail,<span style='color:green'>Lift,<span style='color:green'>Lift,<span style='color:green'>Lift,<span style='color:green'>Lift,<span style='color:red'>Fail,<span style='color:green'>Lift,<span style='color:green'>Lift,<span style='color:green'>Lift,<span style='color:green'>Lift,<span style='color:red'>Fail","<span style='color:red'>Fail,<span style='color:green'>Lift,<span style='color:green'>Lift,<span style='color:red'>Fail,<span style='color:green'>Lift,<span style='color:green'>Lift","0,0,1,1,0,0,0,0,1,0,1,0","0,0,1,1,1,1,0,1,1,1,1,0","0,1,1,0,1,1",10,20,20,"","","","","{""box1"":""25""}","",1,"round3_ready",4,1,3,NA,NA,NA,NA,NA,NA,NA,NA,NA,NA,NA,NA,NA,NA,25,25,NA,NA,NA,NA,NA,NA,NA,NA,NA,25,25,NA,NA,NA,NA,NA,NA,NA,NA,NA,"",NA,NA,NA,NA,NA,NA,NA,NA,NA,2025-11-18 02:10:07
"64877.699999809265","https://psyc-201.github.io/xiang2023/exp/index1.html?PROLIFIC_PID=REDACTED&STUDY_ID=69168b21477cff9ada6cb980&SESSION_ID=691bd37934559927267542ab","survey-html-form",12,285593,"0.0-313.0-0.0","HIrC+LozZeKxg5akC7XcryIqo2iK5yB55zZrqJs0I0JvlEmCu3XoCEi4vE78E6vNPYmQYZqzLsr3smtK+0qib+A8y3Vp5P4SDUuNqe6v1Vfeo3oymwvlieiWneK6T1ibSTMZg3rTFs6FQYdAzqHPN9N9WwlBe6NwU0DdoKPszh3nVTKdE6H6SYlOJLCPvBE2WuD+mJUNhFzRlthpygh7m1HjQRutxq6YUttizVJLHEYtHhAw0Lisi7Rw4ObjpiF77ff3oeViW06bv06rFXZT0cvOlCWe66Ne2RTddi90/XylMtbSJOPtbL+n5JWqK9y+mkBWpmD5UkqRhVxhrQCIiw==","69168b21477cff9ada6cb980","691bd37934559927267542ab","index1","<span style='color:red'>Fail,<span style='color:red'>Fail,<span style='color:green'>Lift,<span style='color:green'>Lift,<span style='color:red'>Fail,<span style='color:red'>Fail,<span style='color:red'>Fail,<span style='color:red'>Fail,<span style='color:green'>Lift,<span style='color:red'>Fail,<span style='color:green'>Lift,<span style='color:red'>Fail","<span style='color:red'>Fail,<span style='color:red'>Fail,<span style='color:green'>Lift,<span style='color:green'>Lift,<span style='color:green'>Lift,<span style='color:green'>Lift,<span style='color:red'>Fail,<span style='color:green'>Lift,<span style='color:green'>Lift,<span style='color:green'>Lift,<span style='color:green'>Lift,<span style='color:red'>Fail","<span style='color:red'>Fail,<span style='color:green'>Lift,<span style='color:green'>Lift,<span style='color:red'>Fail,<span style='color:green'>Lift,<span style='color:green'>Lift","0,0,1,1,0,0,0,0,1,0,1,0","0,0,1,1,1,1,0,1,1,1,1,0","0,1,1,0,1,1",10,20,20,"","","","","{""box1"":""1"",""box2"":""1"",""box3"":""999"",""box4"":""999""}","",2,"round3_fail",5,1,3,1,1,NA,NA,0,0,20,NA,NA,NA,NA,NA,NA,NA,NA,NA,NA,NA,NA,NA,NA,NA,NA,NA,NA,NA,NA,1,1,1,1,0,0,20,NA,NA,"",NA,NA,NA,NA,NA,NA,NA,NA,NA,2025-11-18 02:10:07
"null","https://psyc-201.github.io/xiang2023/exp/index1.html?PROLIFIC_PID=REDACTED&STUDY_ID=69168b21477cff9ada6cb980&SESSION_ID=691bd37934559927267542ab","html-keyboard-response",13,288596,"0.0-316.0","HIrC+LozZeKxg5akC7XcryIqo2iK5yB55zZrqJs0I0JvlEmCu3XoCEi4vE78E6vNPYmQYZqzLsr3smtK+0qib+A8y3Vp5P4SDUuNqe6v1Vfeo3oymwvlieiWneK6T1ibSTMZg3rTFs6FQYdAzqHPN9N9WwlBe6NwU0DdoKPszh3nVTKdE6H6SYlOJLCPvBE2WuD+mJUNhFzRlthpygh7m1HjQRutxq6YUttizVJLHEYtHhAw0Lisi7Rw4ObjpiF77ff3oeViW06bv06rFXZT0cvOlCWe66Ne2RTddi90/XylMtbSJOPtbL+n5JWqK9y+mkBWpmD5UkqRhVxhrQCIiw==","69168b21477cff9ada6cb980","691bd37934559927267542ab","index1","<span style='color:red'>Fail,<span style='color:red'>Fail,<span style='color:green'>Lift,<span style='color:green'>Lift,<span style='color:red'>Fail,<span style='color:red'>Fail,<span style='color:red'>Fail,<span style='color:red'>Fail,<span style='color:green'>Lift,<span style='color:red'>Fail,<span style='color:green'>Lift,<span style='color:red'>Fail","<span style='color:red'>Fail,<span style='color:red'>Fail,<span style='color:green'>Lift,<span style='color:green'>Lift,<span style='color:green'>Lift,<span style='color:green'>Lift,<span style='color:red'>Fail,<span style='color:green'>Lift,<span style='color:green'>Lift,<span style='color:green'>Lift,<span style='color:green'>Lift,<span style='color:red'>Fail","<span style='color:red'>Fail,<span style='color:green'>Lift,<span style='color:green'>Lift,<span style='color:red'>Fail,<span style='color:green'>Lift,<span style='color:green'>Lift","0,0,1,1,0,0,0,0,1,0,1,0","0,0,1,1,1,1,0,1,1,1,1,0","0,1,1,0,1,1",10,20,20,"","","<p style='font-size:30px'><b> New Contest! </b></p>","null","","",2,"",NA,NA,NA,NA,NA,NA,NA,NA,NA,NA,NA,NA,NA,NA,NA,NA,NA,NA,NA,NA,NA,NA,NA,NA,NA,NA,NA,NA,NA,NA,NA,NA,NA,NA,NA,NA,NA,NA,NA,"",NA,NA,NA,NA,NA,NA,NA,NA,NA,2025-11-18 02:10:07
"4843.900000095367","https://psyc-201.github.io/xiang2023/exp/index1.html?PROLIFIC_PID=REDACTED&STUDY_ID=69168b21477cff9ada6cb980&SESSION_ID=691bd37934559927267542ab","survey-html-form",14,293444,"0.0-317.0","HIrC+LozZeKxg5akC7XcryIqo2iK5yB55zZrqJs0I0JvlEmCu3XoCEi4vE78E6vNPYmQYZqzLsr3smtK+0qib+A8y3Vp5P4SDUuNqe6v1Vfeo3oymwvlieiWneK6T1ibSTMZg3rTFs6FQYdAzqHPN9N9WwlBe6NwU0DdoKPszh3nVTKdE6H6SYlOJLCPvBE2WuD+mJUNhFzRlthpygh7m1HjQRutxq6YUttizVJLHEYtHhAw0Lisi7Rw4ObjpiF77ff3oeViW06bv06rFXZT0cvOlCWe66Ne2RTddi90/XylMtbSJOPtbL+n5JWqK9y+mkBWpmD5UkqRhVxhrQCIiw==","69168b21477cff9ada6cb980","691bd37934559927267542ab","index1","<span style='color:red'>Fail,<span style='color:red'>Fail,<span style='color:green'>Lift,<span style='color:green'>Lift,<span style='color:red'>Fail,<span style='color:red'>Fail,<span style='color:red'>Fail,<span style='color:red'>Fail,<span style='color:green'>Lift,<span style='color:red'>Fail,<span style='color:green'>Lift,<span style='color:red'>Fail","<span style='color:red'>Fail,<span style='color:red'>Fail,<span style='color:green'>Lift,<span style='color:green'>Lift,<span style='color:green'>Lift,<span style='color:green'>Lift,<span style='color:red'>Fail,<span style='color:green'>Lift,<span style='color:green'>Lift,<span style='color:green'>Lift,<span style='color:green'>Lift,<span style='color:red'>Fail","<span style='color:red'>Fail,<span style='color:green'>Lift,<span style='color:green'>Lift,<span style='color:red'>Fail,<span style='color:green'>Lift,<span style='color:green'>Lift","0,0,1,1,0,0,0,0,1,0,1,0","0,0,1,1,1,1,0,1,1,1,1,0","0,1,1,0,1,1",10,20,20,"","","","","{""box1"":""5"",""box2"":""5""}","",2,"round1_outcome",1,2,1,5,5,NA,NA,0,0,10,5,5,NA,NA,0,0,10,NA,NA,NA,NA,NA,NA,NA,NA,NA,NA,NA,NA,NA,NA,NA,NA,NA,NA,NA,NA,NA,NA,"",NA,NA,NA,NA,NA,NA,NA,NA,NA,2025-11-18 02:10:07
"7264.799999952316","https://psyc-201.github.io/xiang2023/exp/index1.html?PROLIFIC_PID=REDACTED&STUDY_ID=69168b21477cff9ada6cb980&SESSION_ID=691bd37934559927267542ab","survey-html-form",15,300712,"0.0-318.0","HIrC+LozZeKxg5akC7XcryIqo2iK5yB55zZrqJs0I0JvlEmCu3XoCEi4vE78E6vNPYmQYZqzLsr3smtK+0qib+A8y3Vp5P4SDUuNqe6v1Vfeo3oymwvlieiWneK6T1ibSTMZg3rTFs6FQYdAzqHPN9N9WwlBe6NwU0DdoKPszh3nVTKdE6H6SYlOJLCPvBE2WuD+mJUNhFzRlthpygh7m1HjQRutxq6YUttizVJLHEYtHhAw0Lisi7Rw4ObjpiF77ff3oeViW06bv06rFXZT0cvOlCWe66Ne2RTddi90/XylMtbSJOPtbL+n5JWqK9y+mkBWpmD5UkqRhVxhrQCIiw==","69168b21477cff9ada6cb980","691bd37934559927267542ab","index1","<span style='color:red'>Fail,<span style='color:red'>Fail,<span style='color:green'>Lift,<span style='color:green'>Lift,<span style='color:red'>Fail,<span style='color:red'>Fail,<span style='color:red'>Fail,<span style='color:red'>Fail,<span style='color:green'>Lift,<span style='color:red'>Fail,<span style='color:green'>Lift,<span style='color:red'>Fail","<span style='color:red'>Fail,<span style='color:red'>Fail,<span style='color:green'>Lift,<span style='color:green'>Lift,<span style='color:green'>Lift,<span style='color:green'>Lift,<span style='color:red'>Fail,<span style='color:green'>Lift,<span style='color:green'>Lift,<span style='color:green'>Lift,<span style='color:green'>Lift,<span style='color:red'>Fail","<span style='color:red'>Fail,<span style='color:green'>Lift,<span style='color:green'>Lift,<span style='color:red'>Fail,<span style='color:green'>Lift,<span style='color:green'>Lift","0,0,1,1,0,0,0,0,1,0,1,0","0,0,1,1,1,1,0,1,1,1,1,0","0,1,1,0,1,1",10,20,20,"","","","","{""box1"":""0"",""box2"":""0""}","",2,"round2_ready",2,2,2,NA,NA,NA,NA,NA,NA,NA,NA,NA,NA,NA,NA,NA,NA,0,0,0,0,NA,NA,NA,NA,NA,NA,NA,NA,NA,NA,NA,NA,NA,NA,NA,NA,NA,NA,"",NA,NA,NA,NA,NA,NA,NA,NA,NA,2025-11-18 02:10:07
"8795.099999904633","https://psyc-201.github.io/xiang2023/exp/index1.html?PROLIFIC_PID=REDACTED&STUDY_ID=69168b21477cff9ada6cb980&SESSION_ID=691bd37934559927267542ab","survey-html-form",16,309510,"0.0-319.0","HIrC+LozZeKxg5akC7XcryIqo2iK5yB55zZrqJs0I0JvlEmCu3XoCEi4vE78E6vNPYmQYZqzLsr3smtK+0qib+A8y3Vp5P4SDUuNqe6v1Vfeo3oymwvlieiWneK6T1ibSTMZg3rTFs6FQYdAzqHPN9N9WwlBe6NwU0DdoKPszh3nVTKdE6H6SYlOJLCPvBE2WuD+mJUNhFzRlthpygh7m1HjQRutxq6YUttizVJLHEYtHhAw0Lisi7Rw4ObjpiF77ff3oeViW06bv06rFXZT0cvOlCWe66Ne2RTddi90/XylMtbSJOPtbL+n5JWqK9y+mkBWpmD5UkqRhVxhrQCIiw==","69168b21477cff9ada6cb980","691bd37934559927267542ab","index1","<span style='color:red'>Fail,<span style='color:red'>Fail,<span style='color:green'>Lift,<span style='color:green'>Lift,<span style='color:red'>Fail,<span style='color:red'>Fail,<span style='color:red'>Fail,<span style='color:red'>Fail,<span style='color:green'>Lift,<span style='color:red'>Fail,<span style='color:green'>Lift,<span style='color:red'>Fail","<span style='color:red'>Fail,<span style='color:red'>Fail,<span style='color:green'>Lift,<span style='color:green'>Lift,<span style='color:green'>Lift,<span style='color:green'>Lift,<span style='color:red'>Fail,<span style='color:green'>Lift,<span style='color:green'>Lift,<span style='color:green'>Lift,<span style='color:green'>Lift,<span style='color:red'>Fail","<span style='color:red'>Fail,<span style='color:green'>Lift,<span style='color:green'>Lift,<span style='color:red'>Fail,<span style='color:green'>Lift,<span style='color:green'>Lift","0,0,1,1,0,0,0,0,1,0,1,0","0,0,1,1,1,1,0,1,1,1,1,0","0,1,1,0,1,1",10,20,20,"","","","","{""box1"":""5"",""box2"":""5"",""box3"":""100"",""box4"":""100""}","",2,"round2_outcome",3,2,2,5,5,100,100,1,1,20,NA,NA,NA,NA,NA,NA,NA,NA,NA,NA,NA,5,5,100,100,1,1,20,NA,NA,NA,NA,NA,NA,NA,NA,NA,NA,NA,"",NA,NA,NA,NA,NA,NA,NA,NA,NA,2025-11-18 02:10:07
"3519.5","https://psyc-201.github.io/xiang2023/exp/index1.html?PROLIFIC_PID=REDACTED&STUDY_ID=69168b21477cff9ada6cb980&SESSION_ID=691bd37934559927267542ab","survey-html-form",17,313031,"0.0-320.0","HIrC+LozZeKxg5akC7XcryIqo2iK5yB55zZrqJs0I0JvlEmCu3XoCEi4vE78E6vNPYmQYZqzLsr3smtK+0qib+A8y3Vp5P4SDUuNqe6v1Vfeo3oymwvlieiWneK6T1ibSTMZg3rTFs6FQYdAzqHPN9N9WwlBe6NwU0DdoKPszh3nVTKdE6H6SYlOJLCPvBE2WuD+mJUNhFzRlthpygh7m1HjQRutxq6YUttizVJLHEYtHhAw0Lisi7Rw4ObjpiF77ff3oeViW06bv06rFXZT0cvOlCWe66Ne2RTddi90/XylMtbSJOPtbL+n5JWqK9y+mkBWpmD5UkqRhVxhrQCIiw==","69168b21477cff9ada6cb980","691bd37934559927267542ab","index1","<span style='color:red'>Fail,<span style='color:red'>Fail,<span style='color:green'>Lift,<span style='color:green'>Lift,<span style='color:red'>Fail,<span style='color:red'>Fail,<span style='color:red'>Fail,<span style='color:red'>Fail,<span style='color:green'>Lift,<span style='color:red'>Fail,<span style='color:green'>Lift,<span style='color:red'>Fail","<span style='color:red'>Fail,<span style='color:red'>Fail,<span style='color:green'>Lift,<span style='color:green'>Lift,<span style='color:green'>Lift,<span style='color:green'>Lift,<span style='color:red'>Fail,<span style='color:green'>Lift,<span style='color:green'>Lift,<span style='color:green'>Lift,<span style='color:green'>Lift,<span style='color:red'>Fail","<span style='color:red'>Fail,<span style='color:green'>Lift,<span style='color:green'>Lift,<span style='color:red'>Fail,<span style='color:green'>Lift,<span style='color:green'>Lift","0,0,1,1,0,0,0,0,1,0,1,0","0,0,1,1,1,1,0,1,1,1,1,0","0,1,1,0,1,1",10,20,20,"","","","","{""box1"":""100""}","",2,"round3_ready",4,2,3,NA,NA,NA,NA,NA,NA,NA,NA,NA,NA,NA,NA,NA,NA,100,100,NA,NA,NA,NA,NA,NA,NA,NA,NA,100,100,NA,NA,NA,NA,NA,NA,NA,NA,NA,"",NA,NA,NA,NA,NA,NA,NA,NA,NA,2025-11-18 02:10:07
"5593","https://psyc-201.github.io/xiang2023/exp/index1.html?PROLIFIC_PID=REDACTED&STUDY_ID=69168b21477cff9ada6cb980&SESSION_ID=691bd37934559927267542ab","survey-html-form",18,318627,"0.0-321.0-0.0","HIrC+LozZeKxg5akC7XcryIqo2iK5yB55zZrqJs0I0JvlEmCu3XoCEi4vE78E6vNPYmQYZqzLsr3smtK+0qib+A8y3Vp5P4SDUuNqe6v1Vfeo3oymwvlieiWneK6T1ibSTMZg3rTFs6FQYdAzqHPN9N9WwlBe6NwU0DdoKPszh3nVTKdE6H6SYlOJLCPvBE2WuD+mJUNhFzRlthpygh7m1HjQRutxq6YUttizVJLHEYtHhAw0Lisi7Rw4ObjpiF77ff3oeViW06bv06rFXZT0cvOlCWe66Ne2RTddi90/XylMtbSJOPtbL+n5JWqK9y+mkBWpmD5UkqRhVxhrQCIiw==","69168b21477cff9ada6cb980","691bd37934559927267542ab","index1","<span style='color:red'>Fail,<span style='color:red'>Fail,<span style='color:green'>Lift,<span style='color:green'>Lift,<span style='color:red'>Fail,<span style='color:red'>Fail,<span style='color:red'>Fail,<span style='color:red'>Fail,<span style='color:green'>Lift,<span style='color:red'>Fail,<span style='color:green'>Lift,<span style='color:red'>Fail","<span style='color:red'>Fail,<span style='color:red'>Fail,<span style='color:green'>Lift,<span style='color:green'>Lift,<span style='color:green'>Lift,<span style='color:green'>Lift,<span style='color:red'>Fail,<span style='color:green'>Lift,<span style='color:green'>Lift,<span style='color:green'>Lift,<span style='color:green'>Lift,<span style='color:red'>Fail","<span style='color:red'>Fail,<span style='color:green'>Lift,<span style='color:green'>Lift,<span style='color:red'>Fail,<span style='color:green'>Lift,<span style='color:green'>Lift","0,0,1,1,0,0,0,0,1,0,1,0","0,0,1,1,1,1,0,1,1,1,1,0","0,1,1,0,1,1",10,20,20,"","","","","{""box1"":""5"",""box2"":""5"",""box3"":""100"",""box4"":""100""}","",3,"round3_lift",5,2,3,5,5,100,100,1,1,20,NA,NA,NA,NA,NA,NA,NA,NA,NA,NA,NA,NA,NA,NA,NA,NA,NA,NA,NA,NA,NA,NA,5,5,1,1,20,100,100,"",NA,NA,NA,NA,NA,NA,NA,NA,NA,2025-11-18 02:10:07
"null","https://psyc-201.github.io/xiang2023/exp/index1.html?PROLIFIC_PID=REDACTED&STUDY_ID=69168b21477cff9ada6cb980&SESSION_ID=691bd37934559927267542ab","html-keyboard-response",19,321632,"0.0-325.0","HIrC+LozZeKxg5akC7XcryIqo2iK5yB55zZrqJs0I0JvlEmCu3XoCEi4vE78E6vNPYmQYZqzLsr3smtK+0qib+A8y3Vp5P4SDUuNqe6v1Vfeo3oymwvlieiWneK6T1ibSTMZg3rTFs6FQYdAzqHPN9N9WwlBe6NwU0DdoKPszh3nVTKdE6H6SYlOJLCPvBE2WuD+mJUNhFzRlthpygh7m1HjQRutxq6YUttizVJLHEYtHhAw0Lisi7Rw4ObjpiF77ff3oeViW06bv06rFXZT0cvOlCWe66Ne2RTddi90/XylMtbSJOPtbL+n5JWqK9y+mkBWpmD5UkqRhVxhrQCIiw==","69168b21477cff9ada6cb980","691bd37934559927267542ab","index1","<span style='color:red'>Fail,<span style='color:red'>Fail,<span style='color:green'>Lift,<span style='color:green'>Lift,<span style='color:red'>Fail,<span style='color:red'>Fail,<span style='color:red'>Fail,<span style='color:red'>Fail,<span style='color:green'>Lift,<span style='color:red'>Fail,<span style='color:green'>Lift,<span style='color:red'>Fail","<span style='color:red'>Fail,<span style='color:red'>Fail,<span style='color:green'>Lift,<span style='color:green'>Lift,<span style='color:green'>Lift,<span style='color:green'>Lift,<span style='color:red'>Fail,<span style='color:green'>Lift,<span style='color:green'>Lift,<span style='color:green'>Lift,<span style='color:green'>Lift,<span style='color:red'>Fail","<span style='color:red'>Fail,<span style='color:green'>Lift,<span style='color:green'>Lift,<span style='color:red'>Fail,<span style='color:green'>Lift,<span style='color:green'>Lift","0,0,1,1,0,0,0,0,1,0,1,0","0,0,1,1,1,1,0,1,1,1,1,0","0,1,1,0,1,1",10,20,20,"","","<p style='font-size:30px'><b> New Contest! </b></p>","null","","",3,"",NA,NA,NA,NA,NA,NA,NA,NA,NA,NA,NA,NA,NA,NA,NA,NA,NA,NA,NA,NA,NA,NA,NA,NA,NA,NA,NA,NA,NA,NA,NA,NA,NA,NA,NA,NA,NA,NA,NA,"",NA,NA,NA,NA,NA,NA,NA,NA,NA,2025-11-18 02:10:07
"10957.799999952316","https://psyc-201.github.io/xiang2023/exp/index1.html?PROLIFIC_PID=REDACTED&STUDY_ID=69168b21477cff9ada6cb980&SESSION_ID=691bd37934559927267542ab","survey-html-form",20,332593,"0.0-326.0","HIrC+LozZeKxg5akC7XcryIqo2iK5yB55zZrqJs0I0JvlEmCu3XoCEi4vE78E6vNPYmQYZqzLsr3smtK+0qib+A8y3Vp5P4SDUuNqe6v1Vfeo3oymwvlieiWneK6T1ibSTMZg3rTFs6FQYdAzqHPN9N9WwlBe6NwU0DdoKPszh3nVTKdE6H6SYlOJLCPvBE2WuD+mJUNhFzRlthpygh7m1HjQRutxq6YUttizVJLHEYtHhAw0Lisi7Rw4ObjpiF77ff3oeViW06bv06rFXZT0cvOlCWe66Ne2RTddi90/XylMtbSJOPtbL+n5JWqK9y+mkBWpmD5UkqRhVxhrQCIiw==","69168b21477cff9ada6cb980","691bd37934559927267542ab","index1","<span style='color:red'>Fail,<span style='color:red'>Fail,<span style='color:green'>Lift,<span style='color:green'>Lift,<span style='color:red'>Fail,<span style='color:red'>Fail,<span style='color:red'>Fail,<span style='color:red'>Fail,<span style='color:green'>Lift,<span style='color:red'>Fail,<span style='color:green'>Lift,<span style='color:red'>Fail","<span style='color:red'>Fail,<span style='color:red'>Fail,<span style='color:green'>Lift,<span style='color:green'>Lift,<span style='color:green'>Lift,<span style='color:green'>Lift,<span style='color:red'>Fail,<span style='color:green'>Lift,<span style='color:green'>Lift,<span style='color:green'>Lift,<span style='color:green'>Lift,<span style='color:red'>Fail","<span style='color:red'>Fail,<span style='color:green'>Lift,<span style='color:green'>Lift,<span style='color:red'>Fail,<span style='color:green'>Lift,<span style='color:green'>Lift","0,0,1,1,0,0,0,0,1,0,1,0","0,0,1,1,1,1,0,1,1,1,1,0","0,1,1,0,1,1",10,20,20,"","","","","{""box1"":""10"",""box2"":""10"",""box3"":""100"",""box4"":""100""}","",3,"round1_outcome",1,3,1,10,10,100,100,1,1,10,10,10,100,100,1,1,10,NA,NA,NA,NA,NA,NA,NA,NA,NA,NA,NA,NA,NA,NA,NA,NA,NA,NA,NA,NA,NA,NA,"",NA,NA,NA,NA,NA,NA,NA,NA,NA,2025-11-18 02:10:07
"6399.900000095367","https://psyc-201.github.io/xiang2023/exp/index1.html?PROLIFIC_PID=REDACTED&STUDY_ID=69168b21477cff9ada6cb980&SESSION_ID=691bd37934559927267542ab","survey-html-form",21,338995,"0.0-327.0","HIrC+LozZeKxg5akC7XcryIqo2iK5yB55zZrqJs0I0JvlEmCu3XoCEi4vE78E6vNPYmQYZqzLsr3smtK+0qib+A8y3Vp5P4SDUuNqe6v1Vfeo3oymwvlieiWneK6T1ibSTMZg3rTFs6FQYdAzqHPN9N9WwlBe6NwU0DdoKPszh3nVTKdE6H6SYlOJLCPvBE2WuD+mJUNhFzRlthpygh7m1HjQRutxq6YUttizVJLHEYtHhAw0Lisi7Rw4ObjpiF77ff3oeViW06bv06rFXZT0cvOlCWe66Ne2RTddi90/XylMtbSJOPtbL+n5JWqK9y+mkBWpmD5UkqRhVxhrQCIiw==","69168b21477cff9ada6cb980","691bd37934559927267542ab","index1","<span style='color:red'>Fail,<span style='color:red'>Fail,<span style='color:green'>Lift,<span style='color:green'>Lift,<span style='color:red'>Fail,<span style='color:red'>Fail,<span style='color:red'>Fail,<span style='color:red'>Fail,<span style='color:green'>Lift,<span style='color:red'>Fail,<span style='color:green'>Lift,<span style='color:red'>Fail","<span style='color:red'>Fail,<span style='color:red'>Fail,<span style='color:green'>Lift,<span style='color:green'>Lift,<span style='color:green'>Lift,<span style='color:green'>Lift,<span style='color:red'>Fail,<span style='color:green'>Lift,<span style='color:green'>Lift,<span style='color:green'>Lift,<span style='color:green'>Lift,<span style='color:red'>Fail","<span style='color:red'>Fail,<span style='color:green'>Lift,<span style='color:green'>Lift,<span style='color:red'>Fail,<span style='color:green'>Lift,<span style='color:green'>Lift","0,0,1,1,0,0,0,0,1,0,1,0","0,0,1,1,1,1,0,1,1,1,1,0","0,1,1,0,1,1",10,20,20,"","","","","{""box1"":""100"",""box2"":""100""}","",3,"round2_ready",2,3,2,NA,NA,NA,NA,NA,NA,NA,NA,NA,NA,NA,NA,NA,NA,100,100,100,100,NA,NA,NA,NA,NA,NA,NA,NA,NA,NA,NA,NA,NA,NA,NA,NA,NA,NA,"",NA,NA,NA,NA,NA,NA,NA,NA,NA,2025-11-18 02:10:07
"10129","https://psyc-201.github.io/xiang2023/exp/index1.html?PROLIFIC_PID=REDACTED&STUDY_ID=69168b21477cff9ada6cb980&SESSION_ID=691bd37934559927267542ab","survey-html-form",22,349126,"0.0-328.0","HIrC+LozZeKxg5akC7XcryIqo2iK5yB55zZrqJs0I0JvlEmCu3XoCEi4vE78E6vNPYmQYZqzLsr3smtK+0qib+A8y3Vp5P4SDUuNqe6v1Vfeo3oymwvlieiWneK6T1ibSTMZg3rTFs6FQYdAzqHPN9N9WwlBe6NwU0DdoKPszh3nVTKdE6H6SYlOJLCPvBE2WuD+mJUNhFzRlthpygh7m1HjQRutxq6YUttizVJLHEYtHhAw0Lisi7Rw4ObjpiF77ff3oeViW06bv06rFXZT0cvOlCWe66Ne2RTddi90/XylMtbSJOPtbL+n5JWqK9y+mkBWpmD5UkqRhVxhrQCIiw==","69168b21477cff9ada6cb980","691bd37934559927267542ab","index1","<span style='color:red'>Fail,<span style='color:red'>Fail,<span style='color:green'>Lift,<span style='color:green'>Lift,<span style='color:red'>Fail,<span style='color:red'>Fail,<span style='color:red'>Fail,<span style='color:red'>Fail,<span style='color:green'>Lift,<span style='color:red'>Fail,<span style='color:green'>Lift,<span style='color:red'>Fail","<span style='color:red'>Fail,<span style='color:red'>Fail,<span style='color:green'>Lift,<span style='color:green'>Lift,<span style='color:green'>Lift,<span style='color:green'>Lift,<span style='color:red'>Fail,<span style='color:green'>Lift,<span style='color:green'>Lift,<span style='color:green'>Lift,<span style='color:green'>Lift,<span style='color:red'>Fail","<span style='color:red'>Fail,<span style='color:green'>Lift,<span style='color:green'>Lift,<span style='color:red'>Fail,<span style='color:green'>Lift,<span style='color:green'>Lift","0,0,1,1,0,0,0,0,1,0,1,0","0,0,1,1,1,1,0,1,1,1,1,0","0,1,1,0,1,1",10,20,20,"","","","","{""box1"":""10"",""box2"":""10"",""box3"":""100"",""box4"":""100""}","",3,"round2_outcome",3,3,2,10,10,100,100,1,1,20,NA,NA,NA,NA,NA,NA,NA,NA,NA,NA,NA,10,10,100,100,1,1,20,NA,NA,NA,NA,NA,NA,NA,NA,NA,NA,NA,"",NA,NA,NA,NA,NA,NA,NA,NA,NA,2025-11-18 02:10:07
"2915.0999999046326","https://psyc-201.github.io/xiang2023/exp/index1.html?PROLIFIC_PID=REDACTED&STUDY_ID=69168b21477cff9ada6cb980&SESSION_ID=691bd37934559927267542ab","survey-html-form",23,352045,"0.0-329.0","HIrC+LozZeKxg5akC7XcryIqo2iK5yB55zZrqJs0I0JvlEmCu3XoCEi4vE78E6vNPYmQYZqzLsr3smtK+0qib+A8y3Vp5P4SDUuNqe6v1Vfeo3oymwvlieiWneK6T1ibSTMZg3rTFs6FQYdAzqHPN9N9WwlBe6NwU0DdoKPszh3nVTKdE6H6SYlOJLCPvBE2WuD+mJUNhFzRlthpygh7m1HjQRutxq6YUttizVJLHEYtHhAw0Lisi7Rw4ObjpiF77ff3oeViW06bv06rFXZT0cvOlCWe66Ne2RTddi90/XylMtbSJOPtbL+n5JWqK9y+mkBWpmD5UkqRhVxhrQCIiw==","69168b21477cff9ada6cb980","691bd37934559927267542ab","index1","<span style='color:red'>Fail,<span style='color:red'>Fail,<span style='color:green'>Lift,<span style='color:green'>Lift,<span style='color:red'>Fail,<span style='color:red'>Fail,<span style='color:red'>Fail,<span style='color:red'>Fail,<span style='color:green'>Lift,<span style='color:red'>Fail,<span style='color:green'>Lift,<span style='color:red'>Fail","<span style='color:red'>Fail,<span style='color:red'>Fail,<span style='color:green'>Lift,<span style='color:green'>Lift,<span style='color:green'>Lift,<span style='color:green'>Lift,<span style='color:red'>Fail,<span style='color:green'>Lift,<span style='color:green'>Lift,<span style='color:green'>Lift,<span style='color:green'>Lift,<span style='color:red'>Fail","<span style='color:red'>Fail,<span style='color:green'>Lift,<span style='color:green'>Lift,<span style='color:red'>Fail,<span style='color:green'>Lift,<span style='color:green'>Lift","0,0,1,1,0,0,0,0,1,0,1,0","0,0,1,1,1,1,0,1,1,1,1,0","0,1,1,0,1,1",10,20,20,"","","","","{""box1"":""100""}","",3,"round3_ready",4,3,3,NA,NA,NA,NA,NA,NA,NA,NA,NA,NA,NA,NA,NA,NA,100,100,NA,NA,NA,NA,NA,NA,NA,NA,NA,100,100,NA,NA,NA,NA,NA,NA,NA,NA,NA,"",NA,NA,NA,NA,NA,NA,NA,NA,NA,2025-11-18 02:10:07
"8546.399999856949","https://psyc-201.github.io/xiang2023/exp/index1.html?PROLIFIC_PID=REDACTED&STUDY_ID=69168b21477cff9ada6cb980&SESSION_ID=691bd37934559927267542ab","survey-html-form",24,360594,"0.0-330.0-0.0","HIrC+LozZeKxg5akC7XcryIqo2iK5yB55zZrqJs0I0JvlEmCu3XoCEi4vE78E6vNPYmQYZqzLsr3smtK+0qib+A8y3Vp5P4SDUuNqe6v1Vfeo3oymwvlieiWneK6T1ibSTMZg3rTFs6FQYdAzqHPN9N9WwlBe6NwU0DdoKPszh3nVTKdE6H6SYlOJLCPvBE2WuD+mJUNhFzRlthpygh7m1HjQRutxq6YUttizVJLHEYtHhAw0Lisi7Rw4ObjpiF77ff3oeViW06bv06rFXZT0cvOlCWe66Ne2RTddi90/XylMtbSJOPtbL+n5JWqK9y+mkBWpmD5UkqRhVxhrQCIiw==","69168b21477cff9ada6cb980","691bd37934559927267542ab","index1","<span style='color:red'>Fail,<span style='color:red'>Fail,<span style='color:green'>Lift,<span style='color:green'>Lift,<span style='color:red'>Fail,<span style='color:red'>Fail,<span style='color:red'>Fail,<span style='color:red'>Fail,<span style='color:green'>Lift,<span style='color:red'>Fail,<span style='color:green'>Lift,<span style='color:red'>Fail","<span style='color:red'>Fail,<span style='color:red'>Fail,<span style='color:green'>Lift,<span style='color:green'>Lift,<span style='color:green'>Lift,<span style='color:green'>Lift,<span style='color:red'>Fail,<span style='color:green'>Lift,<span style='color:green'>Lift,<span style='color:green'>Lift,<span style='color:green'>Lift,<span style='color:red'>Fail","<span style='color:red'>Fail,<span style='color:green'>Lift,<span style='color:green'>Lift,<span style='color:red'>Fail,<span style='color:green'>Lift,<span style='color:green'>Lift","0,0,1,1,0,0,0,0,1,0,1,0","0,0,1,1,1,1,0,1,1,1,1,0","0,1,1,0,1,1",10,20,20,"","","","","{""box1"":""10"",""box2"":""10"",""box3"":""100"",""box4"":""100""}","",4,"round3_lift",5,3,3,10,10,100,100,1,1,20,NA,NA,NA,NA,NA,NA,NA,NA,NA,NA,NA,NA,NA,NA,NA,NA,NA,NA,NA,NA,NA,NA,10,10,1,1,20,100,100,"",NA,NA,NA,NA,NA,NA,NA,NA,NA,2025-11-18 02:10:07
"null","https://psyc-201.github.io/xiang2023/exp/index1.html?PROLIFIC_PID=REDACTED&STUDY_ID=69168b21477cff9ada6cb980&SESSION_ID=691bd37934559927267542ab","html-keyboard-response",25,363599,"0.0-334.0","HIrC+LozZeKxg5akC7XcryIqo2iK5yB55zZrqJs0I0JvlEmCu3XoCEi4vE78E6vNPYmQYZqzLsr3smtK+0qib+A8y3Vp5P4SDUuNqe6v1Vfeo3oymwvlieiWneK6T1ibSTMZg3rTFs6FQYdAzqHPN9N9WwlBe6NwU0DdoKPszh3nVTKdE6H6SYlOJLCPvBE2WuD+mJUNhFzRlthpygh7m1HjQRutxq6YUttizVJLHEYtHhAw0Lisi7Rw4ObjpiF77ff3oeViW06bv06rFXZT0cvOlCWe66Ne2RTddi90/XylMtbSJOPtbL+n5JWqK9y+mkBWpmD5UkqRhVxhrQCIiw==","69168b21477cff9ada6cb980","691bd37934559927267542ab","index1","<span style='color:red'>Fail,<span style='color:red'>Fail,<span style='color:green'>Lift,<span style='color:green'>Lift,<span style='color:red'>Fail,<span style='color:red'>Fail,<span style='color:red'>Fail,<span style='color:red'>Fail,<span style='color:green'>Lift,<span style='color:red'>Fail,<span style='color:green'>Lift,<span style='color:red'>Fail","<span style='color:red'>Fail,<span style='color:red'>Fail,<span style='color:green'>Lift,<span style='color:green'>Lift,<span style='color:green'>Lift,<span style='color:green'>Lift,<span style='color:red'>Fail,<span style='color:green'>Lift,<span style='color:green'>Lift,<span style='color:green'>Lift,<span style='color:green'>Lift,<span style='color:red'>Fail","<span style='color:red'>Fail,<span style='color:green'>Lift,<span style='color:green'>Lift,<span style='color:red'>Fail,<span style='color:green'>Lift,<span style='color:green'>Lift","0,0,1,1,0,0,0,0,1,0,1,0","0,0,1,1,1,1,0,1,1,1,1,0","0,1,1,0,1,1",10,20,20,"","","<p style='font-size:30px'><b> New Contest! </b></p>","null","","",4,"",NA,NA,NA,NA,NA,NA,NA,NA,NA,NA,NA,NA,NA,NA,NA,NA,NA,NA,NA,NA,NA,NA,NA,NA,NA,NA,NA,NA,NA,NA,NA,NA,NA,NA,NA,NA,NA,NA,NA,"",NA,NA,NA,NA,NA,NA,NA,NA,NA,2025-11-18 02:10:07
"13342.900000095367","https://psyc-201.github.io/xiang2023/exp/index1.html?PROLIFIC_PID=REDACTED&STUDY_ID=69168b21477cff9ada6cb980&SESSION_ID=691bd37934559927267542ab","survey-html-form",26,376945,"0.0-335.0","HIrC+LozZeKxg5akC7XcryIqo2iK5yB55zZrqJs0I0JvlEmCu3XoCEi4vE78E6vNPYmQYZqzLsr3smtK+0qib+A8y3Vp5P4SDUuNqe6v1Vfeo3oymwvlieiWneK6T1ibSTMZg3rTFs6FQYdAzqHPN9N9WwlBe6NwU0DdoKPszh3nVTKdE6H6SYlOJLCPvBE2WuD+mJUNhFzRlthpygh7m1HjQRutxq6YUttizVJLHEYtHhAw0Lisi7Rw4ObjpiF77ff3oeViW06bv06rFXZT0cvOlCWe66Ne2RTddi90/XylMtbSJOPtbL+n5JWqK9y+mkBWpmD5UkqRhVxhrQCIiw==","69168b21477cff9ada6cb980","691bd37934559927267542ab","index1","<span style='color:red'>Fail,<span style='color:red'>Fail,<span style='color:green'>Lift,<span style='color:green'>Lift,<span style='color:red'>Fail,<span style='color:red'>Fail,<span style='color:red'>Fail,<span style='color:red'>Fail,<span style='color:green'>Lift,<span style='color:red'>Fail,<span style='color:green'>Lift,<span style='color:red'>Fail","<span style='color:red'>Fail,<span style='color:red'>Fail,<span style='color:green'>Lift,<span style='color:green'>Lift,<span style='color:green'>Lift,<span style='color:green'>Lift,<span style='color:red'>Fail,<span style='color:green'>Lift,<span style='color:green'>Lift,<span style='color:green'>Lift,<span style='color:green'>Lift,<span style='color:red'>Fail","<span style='color:red'>Fail,<span style='color:green'>Lift,<span style='color:green'>Lift,<span style='color:red'>Fail,<span style='color:green'>Lift,<span style='color:green'>Lift","0,0,1,1,0,0,0,0,1,0,1,0","0,0,1,1,1,1,0,1,1,1,1,0","0,1,1,0,1,1",10,20,20,"","","","","{""box1"":""7"",""box2"":""2"",""box3"":""100""}","",4,"round1_outcome",1,4,1,7,2,100,NA,1,0,10,7,2,100,NA,1,0,10,NA,NA,NA,NA,NA,NA,NA,NA,NA,NA,NA,NA,NA,NA,NA,NA,NA,NA,NA,NA,NA,NA,"",NA,NA,NA,NA,NA,NA,NA,NA,NA,2025-11-18 02:10:07
"4897.099999904633","https://psyc-201.github.io/xiang2023/exp/index1.html?PROLIFIC_PID=REDACTED&STUDY_ID=69168b21477cff9ada6cb980&SESSION_ID=691bd37934559927267542ab","survey-html-form",27,381845,"0.0-336.0","HIrC+LozZeKxg5akC7XcryIqo2iK5yB55zZrqJs0I0JvlEmCu3XoCEi4vE78E6vNPYmQYZqzLsr3smtK+0qib+A8y3Vp5P4SDUuNqe6v1Vfeo3oymwvlieiWneK6T1ibSTMZg3rTFs6FQYdAzqHPN9N9WwlBe6NwU0DdoKPszh3nVTKdE6H6SYlOJLCPvBE2WuD+mJUNhFzRlthpygh7m1HjQRutxq6YUttizVJLHEYtHhAw0Lisi7Rw4ObjpiF77ff3oeViW06bv06rFXZT0cvOlCWe66Ne2RTddi90/XylMtbSJOPtbL+n5JWqK9y+mkBWpmD5UkqRhVxhrQCIiw==","69168b21477cff9ada6cb980","691bd37934559927267542ab","index1","<span style='color:red'>Fail,<span style='color:red'>Fail,<span style='color:green'>Lift,<span style='color:green'>Lift,<span style='color:red'>Fail,<span style='color:red'>Fail,<span style='color:red'>Fail,<span style='color:red'>Fail,<span style='color:green'>Lift,<span style='color:red'>Fail,<span style='color:green'>Lift,<span style='color:red'>Fail","<span style='color:red'>Fail,<span style='color:red'>Fail,<span style='color:green'>Lift,<span style='color:green'>Lift,<span style='color:green'>Lift,<span style='color:green'>Lift,<span style='color:red'>Fail,<span style='color:green'>Lift,<span style='color:green'>Lift,<span style='color:green'>Lift,<span style='color:green'>Lift,<span style='color:red'>Fail","<span style='color:red'>Fail,<span style='color:green'>Lift,<span style='color:green'>Lift,<span style='color:red'>Fail,<span style='color:green'>Lift,<span style='color:green'>Lift","0,0,1,1,0,0,0,0,1,0,1,0","0,0,1,1,1,1,0,1,1,1,1,0","0,1,1,0,1,1",10,20,20,"","","","","{""box1"":""100"",""box2"":""0""}","",4,"round2_ready",2,4,2,NA,NA,NA,NA,NA,NA,NA,NA,NA,NA,NA,NA,NA,NA,100,0,100,0,NA,NA,NA,NA,NA,NA,NA,NA,NA,NA,NA,NA,NA,NA,NA,NA,NA,NA,"",NA,NA,NA,NA,NA,NA,NA,NA,NA,2025-11-18 02:10:07
"7913.099999904633","https://psyc-201.github.io/xiang2023/exp/index1.html?PROLIFIC_PID=REDACTED&STUDY_ID=69168b21477cff9ada6cb980&SESSION_ID=691bd37934559927267542ab","survey-html-form",28,389761,"0.0-337.0","HIrC+LozZeKxg5akC7XcryIqo2iK5yB55zZrqJs0I0JvlEmCu3XoCEi4vE78E6vNPYmQYZqzLsr3smtK+0qib+A8y3Vp5P4SDUuNqe6v1Vfeo3oymwvlieiWneK6T1ibSTMZg3rTFs6FQYdAzqHPN9N9WwlBe6NwU0DdoKPszh3nVTKdE6H6SYlOJLCPvBE2WuD+mJUNhFzRlthpygh7m1HjQRutxq6YUttizVJLHEYtHhAw0Lisi7Rw4ObjpiF77ff3oeViW06bv06rFXZT0cvOlCWe66Ne2RTddi90/XylMtbSJOPtbL+n5JWqK9y+mkBWpmD5UkqRhVxhrQCIiw==","69168b21477cff9ada6cb980","691bd37934559927267542ab","index1","<span style='color:red'>Fail,<span style='color:red'>Fail,<span style='color:green'>Lift,<span style='color:green'>Lift,<span style='color:red'>Fail,<span style='color:red'>Fail,<span style='color:red'>Fail,<span style='color:red'>Fail,<span style='color:green'>Lift,<span style='color:red'>Fail,<span style='color:green'>Lift,<span style='color:red'>Fail","<span style='color:red'>Fail,<span style='color:red'>Fail,<span style='color:green'>Lift,<span style='color:green'>Lift,<span style='color:green'>Lift,<span style='color:green'>Lift,<span style='color:red'>Fail,<span style='color:green'>Lift,<span style='color:green'>Lift,<span style='color:green'>Lift,<span style='color:green'>Lift,<span style='color:red'>Fail","<span style='color:red'>Fail,<span style='color:green'>Lift,<span style='color:green'>Lift,<span style='color:red'>Fail,<span style='color:green'>Lift,<span style='color:green'>Lift","0,0,1,1,0,0,0,0,1,0,1,0","0,0,1,1,1,1,0,1,1,1,1,0","0,1,1,0,1,1",10,20,20,"","","","","{""box1"":""10"",""box2"":""6"",""box3"":""100"",""box4"":""100""}","",4,"round2_outcome",3,4,2,10,6,100,100,1,1,20,NA,NA,NA,NA,NA,NA,NA,NA,NA,NA,NA,10,6,100,100,1,1,20,NA,NA,NA,NA,NA,NA,NA,NA,NA,NA,NA,"",NA,NA,NA,NA,NA,NA,NA,NA,NA,2025-11-18 02:10:07
"3832.5","https://psyc-201.github.io/xiang2023/exp/index1.html?PROLIFIC_PID=REDACTED&STUDY_ID=69168b21477cff9ada6cb980&SESSION_ID=691bd37934559927267542ab","survey-html-form",29,393595,"0.0-338.0","HIrC+LozZeKxg5akC7XcryIqo2iK5yB55zZrqJs0I0JvlEmCu3XoCEi4vE78E6vNPYmQYZqzLsr3smtK+0qib+A8y3Vp5P4SDUuNqe6v1Vfeo3oymwvlieiWneK6T1ibSTMZg3rTFs6FQYdAzqHPN9N9WwlBe6NwU0DdoKPszh3nVTKdE6H6SYlOJLCPvBE2WuD+mJUNhFzRlthpygh7m1HjQRutxq6YUttizVJLHEYtHhAw0Lisi7Rw4ObjpiF77ff3oeViW06bv06rFXZT0cvOlCWe66Ne2RTddi90/XylMtbSJOPtbL+n5JWqK9y+mkBWpmD5UkqRhVxhrQCIiw==","69168b21477cff9ada6cb980","691bd37934559927267542ab","index1","<span style='color:red'>Fail,<span style='color:red'>Fail,<span style='color:green'>Lift,<span style='color:green'>Lift,<span style='color:red'>Fail,<span style='color:red'>Fail,<span style='color:red'>Fail,<span style='color:red'>Fail,<span style='color:green'>Lift,<span style='color:red'>Fail,<span style='color:green'>Lift,<span style='color:red'>Fail","<span style='color:red'>Fail,<span style='color:red'>Fail,<span style='color:green'>Lift,<span style='color:green'>Lift,<span style='color:green'>Lift,<span style='color:green'>Lift,<span style='color:red'>Fail,<span style='color:green'>Lift,<span style='color:green'>Lift,<span style='color:green'>Lift,<span style='color:green'>Lift,<span style='color:red'>Fail","<span style='color:red'>Fail,<span style='color:green'>Lift,<span style='color:green'>Lift,<span style='color:red'>Fail,<span style='color:green'>Lift,<span style='color:green'>Lift","0,0,1,1,0,0,0,0,1,0,1,0","0,0,1,1,1,1,0,1,1,1,1,0","0,1,1,0,1,1",10,20,20,"","","","","{""box1"":""100""}","",4,"round3_ready",4,4,3,NA,NA,NA,NA,NA,NA,NA,NA,NA,NA,NA,NA,NA,NA,100,100,NA,NA,NA,NA,NA,NA,NA,NA,NA,100,100,NA,NA,NA,NA,NA,NA,NA,NA,NA,"",NA,NA,NA,NA,NA,NA,NA,NA,NA,2025-11-18 02:10:07
"7781.199999809265","https://psyc-201.github.io/xiang2023/exp/index1.html?PROLIFIC_PID=REDACTED&STUDY_ID=69168b21477cff9ada6cb980&SESSION_ID=691bd37934559927267542ab","survey-html-form",30,401379,"0.0-339.0-0.0","HIrC+LozZeKxg5akC7XcryIqo2iK5yB55zZrqJs0I0JvlEmCu3XoCEi4vE78E6vNPYmQYZqzLsr3smtK+0qib+A8y3Vp5P4SDUuNqe6v1Vfeo3oymwvlieiWneK6T1ibSTMZg3rTFs6FQYdAzqHPN9N9WwlBe6NwU0DdoKPszh3nVTKdE6H6SYlOJLCPvBE2WuD+mJUNhFzRlthpygh7m1HjQRutxq6YUttizVJLHEYtHhAw0Lisi7Rw4ObjpiF77ff3oeViW06bv06rFXZT0cvOlCWe66Ne2RTddi90/XylMtbSJOPtbL+n5JWqK9y+mkBWpmD5UkqRhVxhrQCIiw==","69168b21477cff9ada6cb980","691bd37934559927267542ab","index1","<span style='color:red'>Fail,<span style='color:red'>Fail,<span style='color:green'>Lift,<span style='color:green'>Lift,<span style='color:red'>Fail,<span style='color:red'>Fail,<span style='color:red'>Fail,<span style='color:red'>Fail,<span style='color:green'>Lift,<span style='color:red'>Fail,<span style='color:green'>Lift,<span style='color:red'>Fail","<span style='color:red'>Fail,<span style='color:red'>Fail,<span style='color:green'>Lift,<span style='color:green'>Lift,<span style='color:green'>Lift,<span style='color:green'>Lift,<span style='color:red'>Fail,<span style='color:green'>Lift,<span style='color:green'>Lift,<span style='color:green'>Lift,<span style='color:green'>Lift,<span style='color:red'>Fail","<span style='color:red'>Fail,<span style='color:green'>Lift,<span style='color:green'>Lift,<span style='color:red'>Fail,<span style='color:green'>Lift,<span style='color:green'>Lift","0,0,1,1,0,0,0,0,1,0,1,0","0,0,1,1,1,1,0,1,1,1,1,0","0,1,1,0,1,1",10,20,20,"","","","","{""box1"":""10"",""box2"":""5"",""box3"":""100"",""box4"":""100""}","",5,"round3_lift",5,4,3,10,5,100,100,1,1,20,NA,NA,NA,NA,NA,NA,NA,NA,NA,NA,NA,NA,NA,NA,NA,NA,NA,NA,NA,NA,NA,NA,10,5,1,1,20,100,100,"",NA,NA,NA,NA,NA,NA,NA,NA,NA,2025-11-18 02:10:07
"null","https://psyc-201.github.io/xiang2023/exp/index1.html?PROLIFIC_PID=REDACTED&STUDY_ID=69168b21477cff9ada6cb980&SESSION_ID=691bd37934559927267542ab","html-keyboard-response",31,404381,"0.0-343.0","HIrC+LozZeKxg5akC7XcryIqo2iK5yB55zZrqJs0I0JvlEmCu3XoCEi4vE78E6vNPYmQYZqzLsr3smtK+0qib+A8y3Vp5P4SDUuNqe6v1Vfeo3oymwvlieiWneK6T1ibSTMZg3rTFs6FQYdAzqHPN9N9WwlBe6NwU0DdoKPszh3nVTKdE6H6SYlOJLCPvBE2WuD+mJUNhFzRlthpygh7m1HjQRutxq6YUttizVJLHEYtHhAw0Lisi7Rw4ObjpiF77ff3oeViW06bv06rFXZT0cvOlCWe66Ne2RTddi90/XylMtbSJOPtbL+n5JWqK9y+mkBWpmD5UkqRhVxhrQCIiw==","69168b21477cff9ada6cb980","691bd37934559927267542ab","index1","<span style='color:red'>Fail,<span style='color:red'>Fail,<span style='color:green'>Lift,<span style='color:green'>Lift,<span style='color:red'>Fail,<span style='color:red'>Fail,<span style='color:red'>Fail,<span style='color:red'>Fail,<span style='color:green'>Lift,<span style='color:red'>Fail,<span style='color:green'>Lift,<span style='color:red'>Fail","<span style='color:red'>Fail,<span style='color:red'>Fail,<span style='color:green'>Lift,<span style='color:green'>Lift,<span style='color:green'>Lift,<span style='color:green'>Lift,<span style='color:red'>Fail,<span style='color:green'>Lift,<span style='color:green'>Lift,<span style='color:green'>Lift,<span style='color:green'>Lift,<span style='color:red'>Fail","<span style='color:red'>Fail,<span style='color:green'>Lift,<span style='color:green'>Lift,<span style='color:red'>Fail,<span style='color:green'>Lift,<span style='color:green'>Lift","0,0,1,1,0,0,0,0,1,0,1,0","0,0,1,1,1,1,0,1,1,1,1,0","0,1,1,0,1,1",10,20,20,"","","<p style='font-size:30px'><b> New Contest! </b></p>","null","","",5,"",NA,NA,NA,NA,NA,NA,NA,NA,NA,NA,NA,NA,NA,NA,NA,NA,NA,NA,NA,NA,NA,NA,NA,NA,NA,NA,NA,NA,NA,NA,NA,NA,NA,NA,NA,NA,NA,NA,NA,"",NA,NA,NA,NA,NA,NA,NA,NA,NA,2025-11-18 02:10:07
"8627.799999952316","https://psyc-201.github.io/xiang2023/exp/index1.html?PROLIFIC_PID=REDACTED&STUDY_ID=69168b21477cff9ada6cb980&SESSION_ID=691bd37934559927267542ab","survey-html-form",32,413012,"0.0-344.0","HIrC+LozZeKxg5akC7XcryIqo2iK5yB55zZrqJs0I0JvlEmCu3XoCEi4vE78E6vNPYmQYZqzLsr3smtK+0qib+A8y3Vp5P4SDUuNqe6v1Vfeo3oymwvlieiWneK6T1ibSTMZg3rTFs6FQYdAzqHPN9N9WwlBe6NwU0DdoKPszh3nVTKdE6H6SYlOJLCPvBE2WuD+mJUNhFzRlthpygh7m1HjQRutxq6YUttizVJLHEYtHhAw0Lisi7Rw4ObjpiF77ff3oeViW06bv06rFXZT0cvOlCWe66Ne2RTddi90/XylMtbSJOPtbL+n5JWqK9y+mkBWpmD5UkqRhVxhrQCIiw==","69168b21477cff9ada6cb980","691bd37934559927267542ab","index1","<span style='color:red'>Fail,<span style='color:red'>Fail,<span style='color:green'>Lift,<span style='color:green'>Lift,<span style='color:red'>Fail,<span style='color:red'>Fail,<span style='color:red'>Fail,<span style='color:red'>Fail,<span style='color:green'>Lift,<span style='color:red'>Fail,<span style='color:green'>Lift,<span style='color:red'>Fail","<span style='color:red'>Fail,<span style='color:red'>Fail,<span style='color:green'>Lift,<span style='color:green'>Lift,<span style='color:green'>Lift,<span style='color:green'>Lift,<span style='color:red'>Fail,<span style='color:green'>Lift,<span style='color:green'>Lift,<span style='color:green'>Lift,<span style='color:green'>Lift,<span style='color:red'>Fail","<span style='color:red'>Fail,<span style='color:green'>Lift,<span style='color:green'>Lift,<span style='color:red'>Fail,<span style='color:green'>Lift,<span style='color:green'>Lift","0,0,1,1,0,0,0,0,1,0,1,0","0,0,1,1,1,1,0,1,1,1,1,0","0,1,1,0,1,1",10,20,20,"","","","","{""box1"":""9"",""box2"":""4"",""box3"":""100""}","",5,"round1_outcome",1,5,1,9,4,100,NA,1,0,10,9,4,100,NA,1,0,10,NA,NA,NA,NA,NA,NA,NA,NA,NA,NA,NA,NA,NA,NA,NA,NA,NA,NA,NA,NA,NA,NA,"",NA,NA,NA,NA,NA,NA,NA,NA,NA,2025-11-18 02:10:07
"9263.699999809265","https://psyc-201.github.io/xiang2023/exp/index1.html?PROLIFIC_PID=REDACTED&STUDY_ID=69168b21477cff9ada6cb980&SESSION_ID=691bd37934559927267542ab","survey-html-form",33,422279,"0.0-345.0","HIrC+LozZeKxg5akC7XcryIqo2iK5yB55zZrqJs0I0JvlEmCu3XoCEi4vE78E6vNPYmQYZqzLsr3smtK+0qib+A8y3Vp5P4SDUuNqe6v1Vfeo3oymwvlieiWneK6T1ibSTMZg3rTFs6FQYdAzqHPN9N9WwlBe6NwU0DdoKPszh3nVTKdE6H6SYlOJLCPvBE2WuD+mJUNhFzRlthpygh7m1HjQRutxq6YUttizVJLHEYtHhAw0Lisi7Rw4ObjpiF77ff3oeViW06bv06rFXZT0cvOlCWe66Ne2RTddi90/XylMtbSJOPtbL+n5JWqK9y+mkBWpmD5UkqRhVxhrQCIiw==","69168b21477cff9ada6cb980","691bd37934559927267542ab","index1","<span style='color:red'>Fail,<span style='color:red'>Fail,<span style='color:green'>Lift,<span style='color:green'>Lift,<span style='color:red'>Fail,<span style='color:red'>Fail,<span style='color:red'>Fail,<span style='color:red'>Fail,<span style='color:green'>Lift,<span style='color:red'>Fail,<span style='color:green'>Lift,<span style='color:red'>Fail","<span style='color:red'>Fail,<span style='color:red'>Fail,<span style='color:green'>Lift,<span style='color:green'>Lift,<span style='color:green'>Lift,<span style='color:green'>Lift,<span style='color:red'>Fail,<span style='color:green'>Lift,<span style='color:green'>Lift,<span style='color:green'>Lift,<span style='color:green'>Lift,<span style='color:red'>Fail","<span style='color:red'>Fail,<span style='color:green'>Lift,<span style='color:green'>Lift,<span style='color:red'>Fail,<span style='color:green'>Lift,<span style='color:green'>Lift","0,0,1,1,0,0,0,0,1,0,1,0","0,0,1,1,1,1,0,1,1,1,1,0","0,1,1,0,1,1",10,20,20,"","","","","{""box1"":""100"",""box2"":""50""}","",5,"round2_ready",2,5,2,NA,NA,NA,NA,NA,NA,NA,NA,NA,NA,NA,NA,NA,NA,100,50,100,50,NA,NA,NA,NA,NA,NA,NA,NA,NA,NA,NA,NA,NA,NA,NA,NA,NA,NA,"",NA,NA,NA,NA,NA,NA,NA,NA,NA,2025-11-18 02:10:07
"9696.899999856949","https://psyc-201.github.io/xiang2023/exp/index1.html?PROLIFIC_PID=REDACTED&STUDY_ID=69168b21477cff9ada6cb980&SESSION_ID=691bd37934559927267542ab","survey-html-form",34,431979,"0.0-346.0","HIrC+LozZeKxg5akC7XcryIqo2iK5yB55zZrqJs0I0JvlEmCu3XoCEi4vE78E6vNPYmQYZqzLsr3smtK+0qib+A8y3Vp5P4SDUuNqe6v1Vfeo3oymwvlieiWneK6T1ibSTMZg3rTFs6FQYdAzqHPN9N9WwlBe6NwU0DdoKPszh3nVTKdE6H6SYlOJLCPvBE2WuD+mJUNhFzRlthpygh7m1HjQRutxq6YUttizVJLHEYtHhAw0Lisi7Rw4ObjpiF77ff3oeViW06bv06rFXZT0cvOlCWe66Ne2RTddi90/XylMtbSJOPtbL+n5JWqK9y+mkBWpmD5UkqRhVxhrQCIiw==","69168b21477cff9ada6cb980","691bd37934559927267542ab","index1","<span style='color:red'>Fail,<span style='color:red'>Fail,<span style='color:green'>Lift,<span style='color:green'>Lift,<span style='color:red'>Fail,<span style='color:red'>Fail,<span style='color:red'>Fail,<span style='color:red'>Fail,<span style='color:green'>Lift,<span style='color:red'>Fail,<span style='color:green'>Lift,<span style='color:red'>Fail","<span style='color:red'>Fail,<span style='color:red'>Fail,<span style='color:green'>Lift,<span style='color:green'>Lift,<span style='color:green'>Lift,<span style='color:green'>Lift,<span style='color:red'>Fail,<span style='color:green'>Lift,<span style='color:green'>Lift,<span style='color:green'>Lift,<span style='color:green'>Lift,<span style='color:red'>Fail","<span style='color:red'>Fail,<span style='color:green'>Lift,<span style='color:green'>Lift,<span style='color:red'>Fail,<span style='color:green'>Lift,<span style='color:green'>Lift","0,0,1,1,0,0,0,0,1,0,1,0","0,0,1,1,1,1,0,1,1,1,1,0","0,1,1,0,1,1",10,20,20,"","","","","{""box1"":""9"",""box2"":""4"",""box3"":""100""}","",5,"round2_outcome",3,5,2,9,4,100,NA,1,0,20,NA,NA,NA,NA,NA,NA,NA,NA,NA,NA,NA,9,4,100,NA,1,0,20,NA,NA,NA,NA,NA,NA,NA,NA,NA,NA,NA,"",NA,NA,NA,NA,NA,NA,NA,NA,NA,2025-11-18 02:10:07
"4447.100000143051","https://psyc-201.github.io/xiang2023/exp/index1.html?PROLIFIC_PID=REDACTED&STUDY_ID=69168b21477cff9ada6cb980&SESSION_ID=691bd37934559927267542ab","survey-html-form",35,436430,"0.0-347.0","HIrC+LozZeKxg5akC7XcryIqo2iK5yB55zZrqJs0I0JvlEmCu3XoCEi4vE78E6vNPYmQYZqzLsr3smtK+0qib+A8y3Vp5P4SDUuNqe6v1Vfeo3oymwvlieiWneK6T1ibSTMZg3rTFs6FQYdAzqHPN9N9WwlBe6NwU0DdoKPszh3nVTKdE6H6SYlOJLCPvBE2WuD+mJUNhFzRlthpygh7m1HjQRutxq6YUttizVJLHEYtHhAw0Lisi7Rw4ObjpiF77ff3oeViW06bv06rFXZT0cvOlCWe66Ne2RTddi90/XylMtbSJOPtbL+n5JWqK9y+mkBWpmD5UkqRhVxhrQCIiw==","69168b21477cff9ada6cb980","691bd37934559927267542ab","index1","<span style='color:red'>Fail,<span style='color:red'>Fail,<span style='color:green'>Lift,<span style='color:green'>Lift,<span style='color:red'>Fail,<span style='color:red'>Fail,<span style='color:red'>Fail,<span style='color:red'>Fail,<span style='color:green'>Lift,<span style='color:red'>Fail,<span style='color:green'>Lift,<span style='color:red'>Fail","<span style='color:red'>Fail,<span style='color:red'>Fail,<span style='color:green'>Lift,<span style='color:green'>Lift,<span style='color:green'>Lift,<span style='color:green'>Lift,<span style='color:red'>Fail,<span style='color:green'>Lift,<span style='color:green'>Lift,<span style='color:green'>Lift,<span style='color:green'>Lift,<span style='color:red'>Fail","<span style='color:red'>Fail,<span style='color:green'>Lift,<span style='color:green'>Lift,<span style='color:red'>Fail,<span style='color:green'>Lift,<span style='color:green'>Lift","0,0,1,1,0,0,0,0,1,0,1,0","0,0,1,1,1,1,0,1,1,1,1,0","0,1,1,0,1,1",10,20,20,"","","","","{""box1"":""70""}","",5,"round3_ready",4,5,3,NA,NA,NA,NA,NA,NA,NA,NA,NA,NA,NA,NA,NA,NA,70,70,NA,NA,NA,NA,NA,NA,NA,NA,NA,70,70,NA,NA,NA,NA,NA,NA,NA,NA,NA,"",NA,NA,NA,NA,NA,NA,NA,NA,NA,2025-11-18 02:10:07
"7145.400000095367","https://psyc-201.github.io/xiang2023/exp/index1.html?PROLIFIC_PID=REDACTED&STUDY_ID=69168b21477cff9ada6cb980&SESSION_ID=691bd37934559927267542ab","survey-html-form",36,443579,"0.0-348.0-0.0","HIrC+LozZeKxg5akC7XcryIqo2iK5yB55zZrqJs0I0JvlEmCu3XoCEi4vE78E6vNPYmQYZqzLsr3smtK+0qib+A8y3Vp5P4SDUuNqe6v1Vfeo3oymwvlieiWneK6T1ibSTMZg3rTFs6FQYdAzqHPN9N9WwlBe6NwU0DdoKPszh3nVTKdE6H6SYlOJLCPvBE2WuD+mJUNhFzRlthpygh7m1HjQRutxq6YUttizVJLHEYtHhAw0Lisi7Rw4ObjpiF77ff3oeViW06bv06rFXZT0cvOlCWe66Ne2RTddi90/XylMtbSJOPtbL+n5JWqK9y+mkBWpmD5UkqRhVxhrQCIiw==","69168b21477cff9ada6cb980","691bd37934559927267542ab","index1","<span style='color:red'>Fail,<span style='color:red'>Fail,<span style='color:green'>Lift,<span style='color:green'>Lift,<span style='color:red'>Fail,<span style='color:red'>Fail,<span style='color:red'>Fail,<span style='color:red'>Fail,<span style='color:green'>Lift,<span style='color:red'>Fail,<span style='color:green'>Lift,<span style='color:red'>Fail","<span style='color:red'>Fail,<span style='color:red'>Fail,<span style='color:green'>Lift,<span style='color:green'>Lift,<span style='color:green'>Lift,<span style='color:green'>Lift,<span style='color:red'>Fail,<span style='color:green'>Lift,<span style='color:green'>Lift,<span style='color:green'>Lift,<span style='color:green'>Lift,<span style='color:red'>Fail","<span style='color:red'>Fail,<span style='color:green'>Lift,<span style='color:green'>Lift,<span style='color:red'>Fail,<span style='color:green'>Lift,<span style='color:green'>Lift","0,0,1,1,0,0,0,0,1,0,1,0","0,0,1,1,1,1,0,1,1,1,1,0","0,1,1,0,1,1",10,20,20,"","","","","{""box1"":""9"",""box2"":""5"",""box3"":""100"",""box4"":""100""}","",6,"round3_lift",5,5,3,9,5,100,100,1,1,20,NA,NA,NA,NA,NA,NA,NA,NA,NA,NA,NA,NA,NA,NA,NA,NA,NA,NA,NA,NA,NA,NA,9,5,1,1,20,100,100,"",NA,NA,NA,NA,NA,NA,NA,NA,NA,2025-11-18 02:10:07
"null","https://psyc-201.github.io/xiang2023/exp/index1.html?PROLIFIC_PID=REDACTED&STUDY_ID=69168b21477cff9ada6cb980&SESSION_ID=691bd37934559927267542ab","html-keyboard-response",37,446583,"0.0-352.0","HIrC+LozZeKxg5akC7XcryIqo2iK5yB55zZrqJs0I0JvlEmCu3XoCEi4vE78E6vNPYmQYZqzLsr3smtK+0qib+A8y3Vp5P4SDUuNqe6v1Vfeo3oymwvlieiWneK6T1ibSTMZg3rTFs6FQYdAzqHPN9N9WwlBe6NwU0DdoKPszh3nVTKdE6H6SYlOJLCPvBE2WuD+mJUNhFzRlthpygh7m1HjQRutxq6YUttizVJLHEYtHhAw0Lisi7Rw4ObjpiF77ff3oeViW06bv06rFXZT0cvOlCWe66Ne2RTddi90/XylMtbSJOPtbL+n5JWqK9y+mkBWpmD5UkqRhVxhrQCIiw==","69168b21477cff9ada6cb980","691bd37934559927267542ab","index1","<span style='color:red'>Fail,<span style='color:red'>Fail,<span style='color:green'>Lift,<span style='color:green'>Lift,<span style='color:red'>Fail,<span style='color:red'>Fail,<span style='color:red'>Fail,<span style='color:red'>Fail,<span style='color:green'>Lift,<span style='color:red'>Fail,<span style='color:green'>Lift,<span style='color:red'>Fail","<span style='color:red'>Fail,<span style='color:red'>Fail,<span style='color:green'>Lift,<span style='color:green'>Lift,<span style='color:green'>Lift,<span style='color:green'>Lift,<span style='color:red'>Fail,<span style='color:green'>Lift,<span style='color:green'>Lift,<span style='color:green'>Lift,<span style='color:green'>Lift,<span style='color:red'>Fail","<span style='color:red'>Fail,<span style='color:green'>Lift,<span style='color:green'>Lift,<span style='color:red'>Fail,<span style='color:green'>Lift,<span style='color:green'>Lift","0,0,1,1,0,0,0,0,1,0,1,0","0,0,1,1,1,1,0,1,1,1,1,0","0,1,1,0,1,1",10,20,20,"","","<p style='font-size:30px'><b> New Contest! </b></p>","null","","",6,"",NA,NA,NA,NA,NA,NA,NA,NA,NA,NA,NA,NA,NA,NA,NA,NA,NA,NA,NA,NA,NA,NA,NA,NA,NA,NA,NA,NA,NA,NA,NA,NA,NA,NA,NA,NA,NA,NA,NA,"",NA,NA,NA,NA,NA,NA,NA,NA,NA,2025-11-18 02:10:07
"4609.800000190735","https://psyc-201.github.io/xiang2023/exp/index1.html?PROLIFIC_PID=REDACTED&STUDY_ID=69168b21477cff9ada6cb980&SESSION_ID=691bd37934559927267542ab","survey-html-form",38,451196,"0.0-353.0","HIrC+LozZeKxg5akC7XcryIqo2iK5yB55zZrqJs0I0JvlEmCu3XoCEi4vE78E6vNPYmQYZqzLsr3smtK+0qib+A8y3Vp5P4SDUuNqe6v1Vfeo3oymwvlieiWneK6T1ibSTMZg3rTFs6FQYdAzqHPN9N9WwlBe6NwU0DdoKPszh3nVTKdE6H6SYlOJLCPvBE2WuD+mJUNhFzRlthpygh7m1HjQRutxq6YUttizVJLHEYtHhAw0Lisi7Rw4ObjpiF77ff3oeViW06bv06rFXZT0cvOlCWe66Ne2RTddi90/XylMtbSJOPtbL+n5JWqK9y+mkBWpmD5UkqRhVxhrQCIiw==","69168b21477cff9ada6cb980","691bd37934559927267542ab","index1","<span style='color:red'>Fail,<span style='color:red'>Fail,<span style='color:green'>Lift,<span style='color:green'>Lift,<span style='color:red'>Fail,<span style='color:red'>Fail,<span style='color:red'>Fail,<span style='color:red'>Fail,<span style='color:green'>Lift,<span style='color:red'>Fail,<span style='color:green'>Lift,<span style='color:red'>Fail","<span style='color:red'>Fail,<span style='color:red'>Fail,<span style='color:green'>Lift,<span style='color:green'>Lift,<span style='color:green'>Lift,<span style='color:green'>Lift,<span style='color:red'>Fail,<span style='color:green'>Lift,<span style='color:green'>Lift,<span style='color:green'>Lift,<span style='color:green'>Lift,<span style='color:red'>Fail","<span style='color:red'>Fail,<span style='color:green'>Lift,<span style='color:green'>Lift,<span style='color:red'>Fail,<span style='color:green'>Lift,<span style='color:green'>Lift","0,0,1,1,0,0,0,0,1,0,1,0","0,0,1,1,1,1,0,1,1,1,1,0","0,1,1,0,1,1",10,20,20,"","","","","{""box1"":""1"",""box2"":""1""}","",6,"round1_outcome",1,6,1,1,1,NA,NA,0,0,10,1,1,NA,NA,0,0,10,NA,NA,NA,NA,NA,NA,NA,NA,NA,NA,NA,NA,NA,NA,NA,NA,NA,NA,NA,NA,NA,NA,"",NA,NA,NA,NA,NA,NA,NA,NA,NA,2025-11-18 02:10:07
"6447.400000095367","https://psyc-201.github.io/xiang2023/exp/index1.html?PROLIFIC_PID=REDACTED&STUDY_ID=69168b21477cff9ada6cb980&SESSION_ID=691bd37934559927267542ab","survey-html-form",39,457646,"0.0-354.0","HIrC+LozZeKxg5akC7XcryIqo2iK5yB55zZrqJs0I0JvlEmCu3XoCEi4vE78E6vNPYmQYZqzLsr3smtK+0qib+A8y3Vp5P4SDUuNqe6v1Vfeo3oymwvlieiWneK6T1ibSTMZg3rTFs6FQYdAzqHPN9N9WwlBe6NwU0DdoKPszh3nVTKdE6H6SYlOJLCPvBE2WuD+mJUNhFzRlthpygh7m1HjQRutxq6YUttizVJLHEYtHhAw0Lisi7Rw4ObjpiF77ff3oeViW06bv06rFXZT0cvOlCWe66Ne2RTddi90/XylMtbSJOPtbL+n5JWqK9y+mkBWpmD5UkqRhVxhrQCIiw==","69168b21477cff9ada6cb980","691bd37934559927267542ab","index1","<span style='color:red'>Fail,<span style='color:red'>Fail,<span style='color:green'>Lift,<span style='color:green'>Lift,<span style='color:red'>Fail,<span style='color:red'>Fail,<span style='color:red'>Fail,<span style='color:red'>Fail,<span style='color:green'>Lift,<span style='color:red'>Fail,<span style='color:green'>Lift,<span style='color:red'>Fail","<span style='color:red'>Fail,<span style='color:red'>Fail,<span style='color:green'>Lift,<span style='color:green'>Lift,<span style='color:green'>Lift,<span style='color:green'>Lift,<span style='color:red'>Fail,<span style='color:green'>Lift,<span style='color:green'>Lift,<span style='color:green'>Lift,<span style='color:green'>Lift,<span style='color:red'>Fail","<span style='color:red'>Fail,<span style='color:green'>Lift,<span style='color:green'>Lift,<span style='color:red'>Fail,<span style='color:green'>Lift,<span style='color:green'>Lift","0,0,1,1,0,0,0,0,1,0,1,0","0,0,1,1,1,1,0,1,1,1,1,0","0,1,1,0,1,1",10,20,20,"","","","","{""box1"":""50"",""box2"":""50""}","",6,"round2_ready",2,6,2,NA,NA,NA,NA,NA,NA,NA,NA,NA,NA,NA,NA,NA,NA,50,50,50,50,NA,NA,NA,NA,NA,NA,NA,NA,NA,NA,NA,NA,NA,NA,NA,NA,NA,NA,"",NA,NA,NA,NA,NA,NA,NA,NA,NA,2025-11-18 02:10:07
"8846.799999952316","https://psyc-201.github.io/xiang2023/exp/index1.html?PROLIFIC_PID=REDACTED&STUDY_ID=69168b21477cff9ada6cb980&SESSION_ID=691bd37934559927267542ab","survey-html-form",40,466496,"0.0-355.0","HIrC+LozZeKxg5akC7XcryIqo2iK5yB55zZrqJs0I0JvlEmCu3XoCEi4vE78E6vNPYmQYZqzLsr3smtK+0qib+A8y3Vp5P4SDUuNqe6v1Vfeo3oymwvlieiWneK6T1ibSTMZg3rTFs6FQYdAzqHPN9N9WwlBe6NwU0DdoKPszh3nVTKdE6H6SYlOJLCPvBE2WuD+mJUNhFzRlthpygh7m1HjQRutxq6YUttizVJLHEYtHhAw0Lisi7Rw4ObjpiF77ff3oeViW06bv06rFXZT0cvOlCWe66Ne2RTddi90/XylMtbSJOPtbL+n5JWqK9y+mkBWpmD5UkqRhVxhrQCIiw==","69168b21477cff9ada6cb980","691bd37934559927267542ab","index1","<span style='color:red'>Fail,<span style='color:red'>Fail,<span style='color:green'>Lift,<span style='color:green'>Lift,<span style='color:red'>Fail,<span style='color:red'>Fail,<span style='color:red'>Fail,<span style='color:red'>Fail,<span style='color:green'>Lift,<span style='color:red'>Fail,<span style='color:green'>Lift,<span style='color:red'>Fail","<span style='color:red'>Fail,<span style='color:red'>Fail,<span style='color:green'>Lift,<span style='color:green'>Lift,<span style='color:green'>Lift,<span style='color:green'>Lift,<span style='color:red'>Fail,<span style='color:green'>Lift,<span style='color:green'>Lift,<span style='color:green'>Lift,<span style='color:green'>Lift,<span style='color:red'>Fail","<span style='color:red'>Fail,<span style='color:green'>Lift,<span style='color:green'>Lift,<span style='color:red'>Fail,<span style='color:green'>Lift,<span style='color:green'>Lift","0,0,1,1,0,0,0,0,1,0,1,0","0,0,1,1,1,1,0,1,1,1,1,0","0,1,1,0,1,1",10,20,20,"","","","","{""box1"":""5"",""box2"":""6"",""box4"":""100""}","",6,"round2_outcome",3,6,2,5,6,NA,100,0,1,20,NA,NA,NA,NA,NA,NA,NA,NA,NA,NA,NA,5,6,NA,100,0,1,20,NA,NA,NA,NA,NA,NA,NA,NA,NA,NA,NA,"",NA,NA,NA,NA,NA,NA,NA,NA,NA,2025-11-18 02:10:07
"7114.400000095367","https://psyc-201.github.io/xiang2023/exp/index1.html?PROLIFIC_PID=REDACTED&STUDY_ID=69168b21477cff9ada6cb980&SESSION_ID=691bd37934559927267542ab","survey-html-form",41,473613,"0.0-356.0","HIrC+LozZeKxg5akC7XcryIqo2iK5yB55zZrqJs0I0JvlEmCu3XoCEi4vE78E6vNPYmQYZqzLsr3smtK+0qib+A8y3Vp5P4SDUuNqe6v1Vfeo3oymwvlieiWneK6T1ibSTMZg3rTFs6FQYdAzqHPN9N9WwlBe6NwU0DdoKPszh3nVTKdE6H6SYlOJLCPvBE2WuD+mJUNhFzRlthpygh7m1HjQRutxq6YUttizVJLHEYtHhAw0Lisi7Rw4ObjpiF77ff3oeViW06bv06rFXZT0cvOlCWe66Ne2RTddi90/XylMtbSJOPtbL+n5JWqK9y+mkBWpmD5UkqRhVxhrQCIiw==","69168b21477cff9ada6cb980","691bd37934559927267542ab","index1","<span style='color:red'>Fail,<span style='color:red'>Fail,<span style='color:green'>Lift,<span style='color:green'>Lift,<span style='color:red'>Fail,<span style='color:red'>Fail,<span style='color:red'>Fail,<span style='color:red'>Fail,<span style='color:green'>Lift,<span style='color:red'>Fail,<span style='color:green'>Lift,<span style='color:red'>Fail","<span style='color:red'>Fail,<span style='color:red'>Fail,<span style='color:green'>Lift,<span style='color:green'>Lift,<span style='color:green'>Lift,<span style='color:green'>Lift,<span style='color:red'>Fail,<span style='color:green'>Lift,<span style='color:green'>Lift,<span style='color:green'>Lift,<span style='color:green'>Lift,<span style='color:red'>Fail","<span style='color:red'>Fail,<span style='color:green'>Lift,<span style='color:green'>Lift,<span style='color:red'>Fail,<span style='color:green'>Lift,<span style='color:green'>Lift","0,0,1,1,0,0,0,0,1,0,1,0","0,0,1,1,1,1,0,1,1,1,1,0","0,1,1,0,1,1",10,20,20,"","","","","{""box1"":""75""}","",6,"round3_ready",4,6,3,NA,NA,NA,NA,NA,NA,NA,NA,NA,NA,NA,NA,NA,NA,75,75,NA,NA,NA,NA,NA,NA,NA,NA,NA,75,75,NA,NA,NA,NA,NA,NA,NA,NA,NA,"",NA,NA,NA,NA,NA,NA,NA,NA,NA,2025-11-18 02:10:07
"9180.299999952316","https://psyc-201.github.io/xiang2023/exp/index1.html?PROLIFIC_PID=REDACTED&STUDY_ID=69168b21477cff9ada6cb980&SESSION_ID=691bd37934559927267542ab","survey-html-form",42,482796,"0.0-358.0-0.0","HIrC+LozZeKxg5akC7XcryIqo2iK5yB55zZrqJs0I0JvlEmCu3XoCEi4vE78E6vNPYmQYZqzLsr3smtK+0qib+A8y3Vp5P4SDUuNqe6v1Vfeo3oymwvlieiWneK6T1ibSTMZg3rTFs6FQYdAzqHPN9N9WwlBe6NwU0DdoKPszh3nVTKdE6H6SYlOJLCPvBE2WuD+mJUNhFzRlthpygh7m1HjQRutxq6YUttizVJLHEYtHhAw0Lisi7Rw4ObjpiF77ff3oeViW06bv06rFXZT0cvOlCWe66Ne2RTddi90/XylMtbSJOPtbL+n5JWqK9y+mkBWpmD5UkqRhVxhrQCIiw==","69168b21477cff9ada6cb980","691bd37934559927267542ab","index1","<span style='color:red'>Fail,<span style='color:red'>Fail,<span style='color:green'>Lift,<span style='color:green'>Lift,<span style='color:red'>Fail,<span style='color:red'>Fail,<span style='color:red'>Fail,<span style='color:red'>Fail,<span style='color:green'>Lift,<span style='color:red'>Fail,<span style='color:green'>Lift,<span style='color:red'>Fail","<span style='color:red'>Fail,<span style='color:red'>Fail,<span style='color:green'>Lift,<span style='color:green'>Lift,<span style='color:green'>Lift,<span style='color:green'>Lift,<span style='color:red'>Fail,<span style='color:green'>Lift,<span style='color:green'>Lift,<span style='color:green'>Lift,<span style='color:green'>Lift,<span style='color:red'>Fail","<span style='color:red'>Fail,<span style='color:green'>Lift,<span style='color:green'>Lift,<span style='color:red'>Fail,<span style='color:green'>Lift,<span style='color:green'>Lift","0,0,1,1,0,0,0,0,1,0,1,0","0,0,1,1,1,1,0,1,1,1,1,0","0,1,1,0,1,1",10,20,20,"","","","","{""box1"":""5"",""box2"":""6"",""box3"":""999"",""box4"":""999""}","",6,"round3_fail",5,6,3,5,6,NA,NA,0,0,20,NA,NA,NA,NA,NA,NA,NA,NA,NA,NA,NA,NA,NA,NA,NA,NA,NA,NA,NA,NA,1,1,5,6,0,0,20,NA,NA,"",NA,NA,NA,NA,NA,NA,NA,NA,NA,2025-11-18 02:10:07
"10712.799999952316","https://psyc-201.github.io/xiang2023/exp/index1.html?PROLIFIC_PID=REDACTED&STUDY_ID=69168b21477cff9ada6cb980&SESSION_ID=691bd37934559927267542ab","survey-text",43,493513,"0.0-361.0","HIrC+LozZeKxg5akC7XcryIqo2iK5yB55zZrqJs0I0JvlEmCu3XoCEi4vE78E6vNPYmQYZqzLsr3smtK+0qib+A8y3Vp5P4SDUuNqe6v1Vfeo3oymwvlieiWneK6T1ibSTMZg3rTFs6FQYdAzqHPN9N9WwlBe6NwU0DdoKPszh3nVTKdE6H6SYlOJLCPvBE2WuD+mJUNhFzRlthpygh7m1HjQRutxq6YUttizVJLHEYtHhAw0Lisi7Rw4ObjpiF77ff3oeViW06bv06rFXZT0cvOlCWe66Ne2RTddi90/XylMtbSJOPtbL+n5JWqK9y+mkBWpmD5UkqRhVxhrQCIiw==","69168b21477cff9ada6cb980","691bd37934559927267542ab","index1","<span style='color:red'>Fail,<span style='color:red'>Fail,<span style='color:green'>Lift,<span style='color:green'>Lift,<span style='color:red'>Fail,<span style='color:red'>Fail,<span style='color:red'>Fail,<span style='color:red'>Fail,<span style='color:green'>Lift,<span style='color:red'>Fail,<span style='color:green'>Lift,<span style='color:red'>Fail","<span style='color:red'>Fail,<span style='color:red'>Fail,<span style='color:green'>Lift,<span style='color:green'>Lift,<span style='color:green'>Lift,<span style='color:green'>Lift,<span style='color:red'>Fail,<span style='color:green'>Lift,<span style='color:green'>Lift,<span style='color:green'>Lift,<span style='color:green'>Lift,<span style='color:red'>Fail","<span style='color:red'>Fail,<span style='color:green'>Lift,<span style='color:green'>Lift,<span style='color:red'>Fail,<span style='color:green'>Lift,<span style='color:green'>Lift","0,0,1,1,0,0,0,0,1,0,1,0","0,0,1,1,1,1,0,1,1,1,1,0","0,1,1,0,1,1",10,20,20,"","","","","{""Q0"":""It had to do with guessing if they are able to lift.""}","",NA,"",NA,NA,NA,NA,NA,NA,NA,NA,NA,NA,NA,NA,NA,NA,NA,NA,NA,NA,NA,NA,NA,NA,NA,NA,NA,NA,NA,NA,NA,NA,NA,NA,NA,NA,NA,NA,NA,NA,NA,"",NA,NA,NA,NA,NA,NA,NA,NA,NA,2025-11-18 02:10:07
"3532.199999809265","https://psyc-201.github.io/xiang2023/exp/index1.html?PROLIFIC_PID=REDACTED&STUDY_ID=69168b21477cff9ada6cb980&SESSION_ID=691bd37934559927267542ab","survey-text",44,497048,"0.0-362.0","HIrC+LozZeKxg5akC7XcryIqo2iK5yB55zZrqJs0I0JvlEmCu3XoCEi4vE78E6vNPYmQYZqzLsr3smtK+0qib+A8y3Vp5P4SDUuNqe6v1Vfeo3oymwvlieiWneK6T1ibSTMZg3rTFs6FQYdAzqHPN9N9WwlBe6NwU0DdoKPszh3nVTKdE6H6SYlOJLCPvBE2WuD+mJUNhFzRlthpygh7m1HjQRutxq6YUttizVJLHEYtHhAw0Lisi7Rw4ObjpiF77ff3oeViW06bv06rFXZT0cvOlCWe66Ne2RTddi90/XylMtbSJOPtbL+n5JWqK9y+mkBWpmD5UkqRhVxhrQCIiw==","69168b21477cff9ada6cb980","691bd37934559927267542ab","index1","<span style='color:red'>Fail,<span style='color:red'>Fail,<span style='color:green'>Lift,<span style='color:green'>Lift,<span style='color:red'>Fail,<span style='color:red'>Fail,<span style='color:red'>Fail,<span style='color:red'>Fail,<span style='color:green'>Lift,<span style='color:red'>Fail,<span style='color:green'>Lift,<span style='color:red'>Fail","<span style='color:red'>Fail,<span style='color:red'>Fail,<span style='color:green'>Lift,<span style='color:green'>Lift,<span style='color:green'>Lift,<span style='color:green'>Lift,<span style='color:red'>Fail,<span style='color:green'>Lift,<span style='color:green'>Lift,<span style='color:green'>Lift,<span style='color:green'>Lift,<span style='color:red'>Fail","<span style='color:red'>Fail,<span style='color:green'>Lift,<span style='color:green'>Lift,<span style='color:red'>Fail,<span style='color:green'>Lift,<span style='color:green'>Lift","0,0,1,1,0,0,0,0,1,0,1,0","0,0,1,1,1,1,0,1,1,1,1,0","0,1,1,0,1,1",10,20,20,"","","","","{""Q0"":""""}","",NA,"",NA,NA,NA,NA,NA,NA,NA,NA,NA,NA,NA,NA,NA,NA,NA,NA,NA,NA,NA,NA,NA,NA,NA,NA,NA,NA,NA,NA,NA,NA,NA,NA,NA,NA,NA,NA,NA,NA,NA,"[{""event"":""blur"",""trial"":0,""time"":8902},{""event"":""focus"",""trial"":0,""time"":15721},{""event"":""fullscreenenter"",""trial"":1,""time"":20581},{""event"":""fullscreenexit"",""trial"":2,""time"":21971},{""event"":""blur"",""trial"":2,""time"":27677},{""event"":""focus"",""trial"":2,""time"":38334},{""event"":""blur"",""trial"":2,""time"":62939},{""event"":""focus"",""trial"":2,""time"":80196},{""event"":""blur"",""trial"":2,""time"":81343},{""event"":""focus"",""trial"":2,""time"":87291},{""event"":""blur"",""trial"":2,""time"":89446},{""event"":""focus"",""trial"":2,""time"":95824},{""event"":""blur"",""trial"":2,""time"":98095},{""event"":""focus"",""trial"":2,""time"":108961},{""event"":""blur"",""trial"":2,""time"":111512},{""event"":""focus"",""trial"":2,""time"":120752},{""event"":""blur"",""trial"":2,""time"":121977},{""event"":""focus"",""trial"":2,""time"":131133},{""event"":""blur"",""trial"":2,""time"":132809},{""event"":""focus"",""trial"":2,""time"":142878},{""event"":""blur"",""trial"":4,""time"":146294},{""event"":""focus"",""trial"":4,""time"":152753},{""event"":""blur"",""trial"":12,""time"":241456},{""event"":""focus"",""trial"":12,""time"":241551},{""event"":""blur"",""trial"":12,""time"":243911},{""event"":""focus"",""trial"":12,""time"":284110}]",4,2,1,0,1,0,NA,NA,NA,2025-11-18 02:10:07
"5130","https://psyc-201.github.io/xiang2023/exp/index1.html?PROLIFIC_PID=REDACTED&STUDY_ID=69168b21477cff9ada6cb980&SESSION_ID=691bd37934559927267542ab","html-button-response",45,502182,"0.0-363.0","HIrC+LozZeKxg5akC7XcryIqo2iK5yB55zZrqJs0I0JvlEmCu3XoCEi4vE78E6vNPYmQYZqzLsr3smtK+0qib+A8y3Vp5P4SDUuNqe6v1Vfeo3oymwvlieiWneK6T1ibSTMZg3rTFs6FQYdAzqHPN9N9WwlBe6NwU0DdoKPszh3nVTKdE6H6SYlOJLCPvBE2WuD+mJUNhFzRlthpygh7m1HjQRutxq6YUttizVJLHEYtHhAw0Lisi7Rw4ObjpiF77ff3oeViW06bv06rFXZT0cvOlCWe66Ne2RTddi90/XylMtbSJOPtbL+n5JWqK9y+mkBWpmD5UkqRhVxhrQCIiw==","69168b21477cff9ada6cb980","691bd37934559927267542ab","index1","<span style='color:red'>Fail,<span style='color:red'>Fail,<span style='color:green'>Lift,<span style='color:green'>Lift,<span style='color:red'>Fail,<span style='color:red'>Fail,<span style='color:red'>Fail,<span style='color:red'>Fail,<span style='color:green'>Lift,<span style='color:red'>Fail,<span style='color:green'>Lift,<span style='color:red'>Fail","<span style='color:red'>Fail,<span style='color:red'>Fail,<span style='color:green'>Lift,<span style='color:green'>Lift,<span style='color:green'>Lift,<span style='color:green'>Lift,<span style='color:red'>Fail,<span style='color:green'>Lift,<span style='color:green'>Lift,<span style='color:green'>Lift,<span style='color:green'>Lift,<span style='color:red'>Fail","<span style='color:red'>Fail,<span style='color:green'>Lift,<span style='color:green'>Lift,<span style='color:red'>Fail,<span style='color:green'>Lift,<span style='color:green'>Lift","0,0,1,1,0,0,0,0,1,0,1,0","0,0,1,1,1,1,0,1,1,1,1,0","0,1,1,0,1,1",10,20,20,"","","<p> We randomly picked <b>Contest 4, Round 2</b> to calculate your bonus. </p><p> The outcome of Contestant H on that round is <span style='color:green'>Lift</span>. </p><p> The probability you entered was 0. </p><p><b> You won a bonus of $0.00!</b></p><p> IMPORTANT: Please click 'Next' to complete the game.</p>","","","",NA,"",NA,NA,NA,NA,NA,NA,NA,NA,NA,NA,NA,NA,NA,NA,NA,NA,NA,NA,NA,NA,NA,NA,NA,NA,NA,NA,NA,NA,NA,NA,NA,NA,NA,NA,NA,NA,NA,NA,NA,"",NA,NA,NA,NA,NA,NA,0,2,1,2025-11-18 02:10:07
