"rt","url","trial_type","trial_index","time_elapsed","internal_node_id","encryptedProlificId","studyId","sessionId","expIndex","round1_outcomes","round2_outcomes","round3_outcomes","round1_o","round2_o","round3_o","round1_reward","round2_reward","round3_reward","success","view_history","stimulus","key_press","responses","question_order","j","Stage","stage","contest","round","strength_a","strength_b","effort_a","effort_b","outcome_a","outcome_b","reward","r1_strength_a","r1_strength_b","r1_effort_a","r1_effort_b","r1_outcome_a","r1_outcome_b","r1_reward","probability_a","probability_b","r2_prob_a","r2_prob_b","r2_strength_a","r2_strength_b","r2_effort_a","r2_effort_b","r2_outcome_a","r2_outcome_b","r2_reward","r3_prob_a","r3_prob_b","r3_strength_a","r3_strength_b","r3_effort_a","r3_effort_b","r3_outcome_a","r3_outcome_b","r3_reward","attention_check","count","already","screen","pick_contest","pick_round","pick_side","trial_probability","trial_outcome","bonus","button_pressed","attention_sum","attention","datapipe_meta.attributes.date_modified"
"83055.5","https://psyc-201.github.io/xiang2023/exp/index1.html?PROLIFIC_PID=REDACTED&STUDY_ID=69168b21477cff9ada6cb980&SESSION_ID=691d4503fc50310430a752bc","external-html",0,83140,"0.0-0.0","MP/HG8wdvE8V1K5b1eSx81Bnsf1Cdi+tx9SxBAA/Kcihfnn/+Y8XR5e/4gjSKb/OQgu3qEW5mo632t5ubYWjNUIYFrDVO7/Y4eWNpHoHkZ8K+08TiQOP7QNLzlV8Dq/8ljALgqI+TxMlBwtiIzttTKVB8uL8JAwocd2Iy6p0UeQNCQ3em5eTSzToQnFdcOAy9uFhVdx4qzFC0/PiqCKb2xM1JQCtySd4epxq4eDEr8rtl2wyaN0xRMF2E4lpEx7xRKUfz+gBMOAVBRxB6uAVHOEqqcnwJHc5vv5MaZ3TA92DXyOgIpb3hPBQy1/ZYip9LHFwEV2+WcG60/KI85sR/w==","69168b21477cff9ada6cb980","691d4503fc50310430a752bc","index1","<span style='color:red'>Fail,<span style='color:red'>Fail,<span style='color:green'>Lift,<span style='color:green'>Lift,<span style='color:red'>Fail,<span style='color:red'>Fail,<span style='color:red'>Fail,<span style='color:red'>Fail,<span style='color:red'>Fail,<span style='color:green'>Lift,<span style='color:red'>Fail,<span style='color:green'>Lift","<span style='color:red'>Fail,<span style='color:red'>Fail,<span style='color:green'>Lift,<span style='color:green'>Lift,<span style='color:green'>Lift,<span style='color:green'>Lift,<span style='color:red'>Fail,<span style='color:green'>Lift,<span style='color:green'>Lift,<span style='color:green'>Lift,<span style='color:red'>Fail,<span style='color:green'>Lift","<span style='color:red'>Fail,<span style='color:green'>Lift,<span style='color:green'>Lift,<span style='color:red'>Fail,<span style='color:green'>Lift,<span style='color:green'>Lift","0,0,1,1,0,0,0,0,0,1,0,1","0,0,1,1,1,1,0,1,1,1,0,1","0,1,1,0,1,1",10,20,20,"","","","","","",NA,"",NA,NA,NA,NA,NA,NA,NA,NA,NA,NA,NA,NA,NA,NA,NA,NA,NA,NA,NA,NA,NA,NA,NA,NA,NA,NA,NA,NA,NA,NA,NA,NA,NA,NA,NA,NA,NA,NA,NA,NA,"",NA,NA,NA,NA,NA,NA,NA,NA,NA,2025-11-19 04:44:44
"","https://psyc-201.github.io/xiang2023/exp/index1.html?PROLIFIC_PID=REDACTED&STUDY_ID=69168b21477cff9ada6cb980&SESSION_ID=691d4503fc50310430a752bc","fullscreen",1,99421,"0.0-1.0","MP/HG8wdvE8V1K5b1eSx81Bnsf1Cdi+tx9SxBAA/Kcihfnn/+Y8XR5e/4gjSKb/OQgu3qEW5mo632t5ubYWjNUIYFrDVO7/Y4eWNpHoHkZ8K+08TiQOP7QNLzlV8Dq/8ljALgqI+TxMlBwtiIzttTKVB8uL8JAwocd2Iy6p0UeQNCQ3em5eTSzToQnFdcOAy9uFhVdx4qzFC0/PiqCKb2xM1JQCtySd4epxq4eDEr8rtl2wyaN0xRMF2E4lpEx7xRKUfz+gBMOAVBRxB6uAVHOEqqcnwJHc5vv5MaZ3TA92DXyOgIpb3hPBQy1/ZYip9LHFwEV2+WcG60/KI85sR/w==","69168b21477cff9ada6cb980","691d4503fc50310430a752bc","index1","<span style='color:red'>Fail,<span style='color:red'>Fail,<span style='color:green'>Lift,<span style='color:green'>Lift,<span style='color:red'>Fail,<span style='color:red'>Fail,<span style='color:red'>Fail,<span style='color:red'>Fail,<span style='color:red'>Fail,<span style='color:green'>Lift,<span style='color:red'>Fail,<span style='color:green'>Lift","<span style='color:red'>Fail,<span style='color:red'>Fail,<span style='color:green'>Lift,<span style='color:green'>Lift,<span style='color:green'>Lift,<span style='color:green'>Lift,<span style='color:red'>Fail,<span style='color:green'>Lift,<span style='color:green'>Lift,<span style='color:green'>Lift,<span style='color:red'>Fail,<span style='color:green'>Lift","<span style='color:red'>Fail,<span style='color:green'>Lift,<span style='color:green'>Lift,<span style='color:red'>Fail,<span style='color:green'>Lift,<span style='color:green'>Lift","0,0,1,1,0,0,0,0,0,1,0,1","0,0,1,1,1,1,0,1,1,1,0,1","0,1,1,0,1,1",10,20,20,"true","","","","","",NA,"",NA,NA,NA,NA,NA,NA,NA,NA,NA,NA,NA,NA,NA,NA,NA,NA,NA,NA,NA,NA,NA,NA,NA,NA,NA,NA,NA,NA,NA,NA,NA,NA,NA,NA,NA,NA,NA,NA,NA,NA,"",NA,NA,NA,NA,NA,NA,NA,NA,NA,2025-11-19 04:44:44
"224828.69999998808","https://psyc-201.github.io/xiang2023/exp/index1.html?PROLIFIC_PID=REDACTED&STUDY_ID=69168b21477cff9ada6cb980&SESSION_ID=691d4503fc50310430a752bc","instructions",2,324251,"0.0-2.0","MP/HG8wdvE8V1K5b1eSx81Bnsf1Cdi+tx9SxBAA/Kcihfnn/+Y8XR5e/4gjSKb/OQgu3qEW5mo632t5ubYWjNUIYFrDVO7/Y4eWNpHoHkZ8K+08TiQOP7QNLzlV8Dq/8ljALgqI+TxMlBwtiIzttTKVB8uL8JAwocd2Iy6p0UeQNCQ3em5eTSzToQnFdcOAy9uFhVdx4qzFC0/PiqCKb2xM1JQCtySd4epxq4eDEr8rtl2wyaN0xRMF2E4lpEx7xRKUfz+gBMOAVBRxB6uAVHOEqqcnwJHc5vv5MaZ3TA92DXyOgIpb3hPBQy1/ZYip9LHFwEV2+WcG60/KI85sR/w==","69168b21477cff9ada6cb980","691d4503fc50310430a752bc","index1","<span style='color:red'>Fail,<span style='color:red'>Fail,<span style='color:green'>Lift,<span style='color:green'>Lift,<span style='color:red'>Fail,<span style='color:red'>Fail,<span style='color:red'>Fail,<span style='color:red'>Fail,<span style='color:red'>Fail,<span style='color:green'>Lift,<span style='color:red'>Fail,<span style='color:green'>Lift","<span style='color:red'>Fail,<span style='color:red'>Fail,<span style='color:green'>Lift,<span style='color:green'>Lift,<span style='color:green'>Lift,<span style='color:green'>Lift,<span style='color:red'>Fail,<span style='color:green'>Lift,<span style='color:green'>Lift,<span style='color:green'>Lift,<span style='color:red'>Fail,<span style='color:green'>Lift","<span style='color:red'>Fail,<span style='color:green'>Lift,<span style='color:green'>Lift,<span style='color:red'>Fail,<span style='color:green'>Lift,<span style='color:green'>Lift","0,0,1,1,0,0,0,0,0,1,0,1","0,0,1,1,1,1,0,1,1,1,0,1","0,1,1,0,1,1",10,20,20,"","[{""page_index"":0,""viewing_time"":45150.40000000596},{""page_index"":1,""viewing_time"":31709.19999998808},{""page_index"":2,""viewing_time"":29187.19999998808},{""page_index"":3,""viewing_time"":40759.20000001788},{""page_index"":4,""viewing_time"":24732.90000000596},{""page_index"":5,""viewing_time"":36464.59999999404},{""page_index"":6,""viewing_time"":16824.69999998808}]","","","","",NA,"",NA,NA,NA,NA,NA,NA,NA,NA,NA,NA,NA,NA,NA,NA,NA,NA,NA,NA,NA,NA,NA,NA,NA,NA,NA,NA,NA,NA,NA,NA,NA,NA,NA,NA,NA,NA,NA,NA,NA,NA,"",NA,NA,NA,NA,NA,NA,NA,NA,NA,2025-11-19 04:44:44
"null","https://psyc-201.github.io/xiang2023/exp/index1.html?PROLIFIC_PID=REDACTED&STUDY_ID=69168b21477cff9ada6cb980&SESSION_ID=691d4503fc50310430a752bc","html-keyboard-response",3,325255,"0.0-3.0","MP/HG8wdvE8V1K5b1eSx81Bnsf1Cdi+tx9SxBAA/Kcihfnn/+Y8XR5e/4gjSKb/OQgu3qEW5mo632t5ubYWjNUIYFrDVO7/Y4eWNpHoHkZ8K+08TiQOP7QNLzlV8Dq/8ljALgqI+TxMlBwtiIzttTKVB8uL8JAwocd2Iy6p0UeQNCQ3em5eTSzToQnFdcOAy9uFhVdx4qzFC0/PiqCKb2xM1JQCtySd4epxq4eDEr8rtl2wyaN0xRMF2E4lpEx7xRKUfz+gBMOAVBRxB6uAVHOEqqcnwJHc5vv5MaZ3TA92DXyOgIpb3hPBQy1/ZYip9LHFwEV2+WcG60/KI85sR/w==","69168b21477cff9ada6cb980","691d4503fc50310430a752bc","index1","<span style='color:red'>Fail,<span style='color:red'>Fail,<span style='color:green'>Lift,<span style='color:green'>Lift,<span style='color:red'>Fail,<span style='color:red'>Fail,<span style='color:red'>Fail,<span style='color:red'>Fail,<span style='color:red'>Fail,<span style='color:green'>Lift,<span style='color:red'>Fail,<span style='color:green'>Lift","<span style='color:red'>Fail,<span style='color:red'>Fail,<span style='color:green'>Lift,<span style='color:green'>Lift,<span style='color:green'>Lift,<span style='color:green'>Lift,<span style='color:red'>Fail,<span style='color:green'>Lift,<span style='color:green'>Lift,<span style='color:green'>Lift,<span style='color:red'>Fail,<span style='color:green'>Lift","<span style='color:red'>Fail,<span style='color:green'>Lift,<span style='color:green'>Lift,<span style='color:red'>Fail,<span style='color:green'>Lift,<span style='color:green'>Lift","0,0,1,1,0,0,0,0,0,1,0,1","0,0,1,1,1,1,0,1,1,1,0,1","0,1,1,0,1,1",10,20,20,"",""," ","null","","",NA,"",NA,NA,NA,NA,NA,NA,NA,NA,NA,NA,NA,NA,NA,NA,NA,NA,NA,NA,NA,NA,NA,NA,NA,NA,NA,NA,NA,NA,NA,NA,NA,NA,NA,NA,NA,NA,NA,NA,NA,NA,"",NA,NA,NA,NA,NA,NA,NA,NA,NA,2025-11-19 04:44:44
"57059.10000002384","https://psyc-201.github.io/xiang2023/exp/index1.html?PROLIFIC_PID=REDACTED&STUDY_ID=69168b21477cff9ada6cb980&SESSION_ID=691d4503fc50310430a752bc","survey-multi-choice",4,382319,"0.0-4.0","MP/HG8wdvE8V1K5b1eSx81Bnsf1Cdi+tx9SxBAA/Kcihfnn/+Y8XR5e/4gjSKb/OQgu3qEW5mo632t5ubYWjNUIYFrDVO7/Y4eWNpHoHkZ8K+08TiQOP7QNLzlV8Dq/8ljALgqI+TxMlBwtiIzttTKVB8uL8JAwocd2Iy6p0UeQNCQ3em5eTSzToQnFdcOAy9uFhVdx4qzFC0/PiqCKb2xM1JQCtySd4epxq4eDEr8rtl2wyaN0xRMF2E4lpEx7xRKUfz+gBMOAVBRxB6uAVHOEqqcnwJHc5vv5MaZ3TA92DXyOgIpb3hPBQy1/ZYip9LHFwEV2+WcG60/KI85sR/w==","69168b21477cff9ada6cb980","691d4503fc50310430a752bc","index1","<span style='color:red'>Fail,<span style='color:red'>Fail,<span style='color:green'>Lift,<span style='color:green'>Lift,<span style='color:red'>Fail,<span style='color:red'>Fail,<span style='color:red'>Fail,<span style='color:red'>Fail,<span style='color:red'>Fail,<span style='color:green'>Lift,<span style='color:red'>Fail,<span style='color:green'>Lift","<span style='color:red'>Fail,<span style='color:red'>Fail,<span style='color:green'>Lift,<span style='color:green'>Lift,<span style='color:green'>Lift,<span style='color:green'>Lift,<span style='color:red'>Fail,<span style='color:green'>Lift,<span style='color:green'>Lift,<span style='color:green'>Lift,<span style='color:red'>Fail,<span style='color:green'>Lift","<span style='color:red'>Fail,<span style='color:green'>Lift,<span style='color:green'>Lift,<span style='color:red'>Fail,<span style='color:green'>Lift,<span style='color:green'>Lift","0,0,1,1,0,0,0,0,0,1,0,1","0,0,1,1,1,1,0,1,1,1,0,1","0,1,1,0,1,1",10,20,20,"","","","","{""Q0"":""It consists of multiple contests, each contest with three rounds."",""Q1"":""When a new contest begins."",""Q2"":""The box weight always stays the same (equivalent to strength of 5)."",""Q3"":""Each will get $20."",""Q4"":""How close my guesses are to the actual outcome.""}","[0,1,2,3,4]",NA,"",NA,NA,NA,NA,NA,NA,NA,NA,NA,NA,NA,NA,NA,NA,NA,NA,NA,NA,NA,NA,NA,NA,NA,NA,NA,NA,NA,NA,NA,NA,NA,NA,NA,NA,NA,NA,NA,NA,NA,NA,"",NA,NA,NA,NA,NA,NA,NA,NA,NA,2025-11-19 04:44:44
"27067.30000001192","https://psyc-201.github.io/xiang2023/exp/index1.html?PROLIFIC_PID=REDACTED&STUDY_ID=69168b21477cff9ada6cb980&SESSION_ID=691d4503fc50310430a752bc","instructions",5,409397,"0.0-305.0","MP/HG8wdvE8V1K5b1eSx81Bnsf1Cdi+tx9SxBAA/Kcihfnn/+Y8XR5e/4gjSKb/OQgu3qEW5mo632t5ubYWjNUIYFrDVO7/Y4eWNpHoHkZ8K+08TiQOP7QNLzlV8Dq/8ljALgqI+TxMlBwtiIzttTKVB8uL8JAwocd2Iy6p0UeQNCQ3em5eTSzToQnFdcOAy9uFhVdx4qzFC0/PiqCKb2xM1JQCtySd4epxq4eDEr8rtl2wyaN0xRMF2E4lpEx7xRKUfz+gBMOAVBRxB6uAVHOEqqcnwJHc5vv5MaZ3TA92DXyOgIpb3hPBQy1/ZYip9LHFwEV2+WcG60/KI85sR/w==","69168b21477cff9ada6cb980","691d4503fc50310430a752bc","index1","<span style='color:red'>Fail,<span style='color:red'>Fail,<span style='color:green'>Lift,<span style='color:green'>Lift,<span style='color:red'>Fail,<span style='color:red'>Fail,<span style='color:red'>Fail,<span style='color:red'>Fail,<span style='color:red'>Fail,<span style='color:green'>Lift,<span style='color:red'>Fail,<span style='color:green'>Lift","<span style='color:red'>Fail,<span style='color:red'>Fail,<span style='color:green'>Lift,<span style='color:green'>Lift,<span style='color:green'>Lift,<span style='color:green'>Lift,<span style='color:red'>Fail,<span style='color:green'>Lift,<span style='color:green'>Lift,<span style='color:green'>Lift,<span style='color:red'>Fail,<span style='color:green'>Lift","<span style='color:red'>Fail,<span style='color:green'>Lift,<span style='color:green'>Lift,<span style='color:red'>Fail,<span style='color:green'>Lift,<span style='color:green'>Lift","0,0,1,1,0,0,0,0,0,1,0,1","0,0,1,1,1,1,0,1,1,1,0,1","0,1,1,0,1,1",10,20,20,"","[{""page_index"":0,""viewing_time"":19326.90000000596},{""page_index"":1,""viewing_time"":7740.0999999940395}]","","","","",NA,"",NA,NA,NA,NA,NA,NA,NA,NA,NA,NA,NA,NA,NA,NA,NA,NA,NA,NA,NA,NA,NA,NA,NA,NA,NA,NA,NA,NA,NA,NA,NA,NA,NA,NA,NA,NA,NA,NA,NA,NA,"",NA,NA,NA,NA,NA,NA,NA,NA,NA,2025-11-19 04:44:44
"null","https://psyc-201.github.io/xiang2023/exp/index1.html?PROLIFIC_PID=REDACTED&STUDY_ID=69168b21477cff9ada6cb980&SESSION_ID=691d4503fc50310430a752bc","html-keyboard-response",6,410400,"0.0-306.0","MP/HG8wdvE8V1K5b1eSx81Bnsf1Cdi+tx9SxBAA/Kcihfnn/+Y8XR5e/4gjSKb/OQgu3qEW5mo632t5ubYWjNUIYFrDVO7/Y4eWNpHoHkZ8K+08TiQOP7QNLzlV8Dq/8ljALgqI+TxMlBwtiIzttTKVB8uL8JAwocd2Iy6p0UeQNCQ3em5eTSzToQnFdcOAy9uFhVdx4qzFC0/PiqCKb2xM1JQCtySd4epxq4eDEr8rtl2wyaN0xRMF2E4lpEx7xRKUfz+gBMOAVBRxB6uAVHOEqqcnwJHc5vv5MaZ3TA92DXyOgIpb3hPBQy1/ZYip9LHFwEV2+WcG60/KI85sR/w==","69168b21477cff9ada6cb980","691d4503fc50310430a752bc","index1","<span style='color:red'>Fail,<span style='color:red'>Fail,<span style='color:green'>Lift,<span style='color:green'>Lift,<span style='color:red'>Fail,<span style='color:red'>Fail,<span style='color:red'>Fail,<span style='color:red'>Fail,<span style='color:red'>Fail,<span style='color:green'>Lift,<span style='color:red'>Fail,<span style='color:green'>Lift","<span style='color:red'>Fail,<span style='color:red'>Fail,<span style='color:green'>Lift,<span style='color:green'>Lift,<span style='color:green'>Lift,<span style='color:green'>Lift,<span style='color:red'>Fail,<span style='color:green'>Lift,<span style='color:green'>Lift,<span style='color:green'>Lift,<span style='color:red'>Fail,<span style='color:green'>Lift","<span style='color:red'>Fail,<span style='color:green'>Lift,<span style='color:green'>Lift,<span style='color:red'>Fail,<span style='color:green'>Lift,<span style='color:green'>Lift","0,0,1,1,0,0,0,0,0,1,0,1","0,0,1,1,1,1,0,1,1,1,0,1","0,1,1,0,1,1",10,20,20,"",""," ","null","","",1,"",NA,NA,NA,NA,NA,NA,NA,NA,NA,NA,NA,NA,NA,NA,NA,NA,NA,NA,NA,NA,NA,NA,NA,NA,NA,NA,NA,NA,NA,NA,NA,NA,NA,NA,NA,NA,NA,NA,NA,NA,"",NA,NA,NA,NA,NA,NA,NA,NA,NA,2025-11-19 04:44:44
"null","https://psyc-201.github.io/xiang2023/exp/index1.html?PROLIFIC_PID=REDACTED&STUDY_ID=69168b21477cff9ada6cb980&SESSION_ID=691d4503fc50310430a752bc","html-keyboard-response",7,413403,"0.0-307.0","MP/HG8wdvE8V1K5b1eSx81Bnsf1Cdi+tx9SxBAA/Kcihfnn/+Y8XR5e/4gjSKb/OQgu3qEW5mo632t5ubYWjNUIYFrDVO7/Y4eWNpHoHkZ8K+08TiQOP7QNLzlV8Dq/8ljALgqI+TxMlBwtiIzttTKVB8uL8JAwocd2Iy6p0UeQNCQ3em5eTSzToQnFdcOAy9uFhVdx4qzFC0/PiqCKb2xM1JQCtySd4epxq4eDEr8rtl2wyaN0xRMF2E4lpEx7xRKUfz+gBMOAVBRxB6uAVHOEqqcnwJHc5vv5MaZ3TA92DXyOgIpb3hPBQy1/ZYip9LHFwEV2+WcG60/KI85sR/w==","69168b21477cff9ada6cb980","691d4503fc50310430a752bc","index1","<span style='color:red'>Fail,<span style='color:red'>Fail,<span style='color:green'>Lift,<span style='color:green'>Lift,<span style='color:red'>Fail,<span style='color:red'>Fail,<span style='color:red'>Fail,<span style='color:red'>Fail,<span style='color:red'>Fail,<span style='color:green'>Lift,<span style='color:red'>Fail,<span style='color:green'>Lift","<span style='color:red'>Fail,<span style='color:red'>Fail,<span style='color:green'>Lift,<span style='color:green'>Lift,<span style='color:green'>Lift,<span style='color:green'>Lift,<span style='color:red'>Fail,<span style='color:green'>Lift,<span style='color:green'>Lift,<span style='color:green'>Lift,<span style='color:red'>Fail,<span style='color:green'>Lift","<span style='color:red'>Fail,<span style='color:green'>Lift,<span style='color:green'>Lift,<span style='color:red'>Fail,<span style='color:green'>Lift,<span style='color:green'>Lift","0,0,1,1,0,0,0,0,0,1,0,1","0,0,1,1,1,1,0,1,1,1,0,1","0,1,1,0,1,1",10,20,20,"","","<p style='font-size:30px'><b> New Contest! </b></p>","null","","",1,"",NA,NA,NA,NA,NA,NA,NA,NA,NA,NA,NA,NA,NA,NA,NA,NA,NA,NA,NA,NA,NA,NA,NA,NA,NA,NA,NA,NA,NA,NA,NA,NA,NA,NA,NA,NA,NA,NA,NA,NA,"",NA,NA,NA,NA,NA,NA,NA,NA,NA,2025-11-19 04:44:44
"90540.30000001192","https://psyc-201.github.io/xiang2023/exp/index1.html?PROLIFIC_PID=REDACTED&STUDY_ID=69168b21477cff9ada6cb980&SESSION_ID=691d4503fc50310430a752bc","survey-html-form",8,503949,"0.0-308.0","MP/HG8wdvE8V1K5b1eSx81Bnsf1Cdi+tx9SxBAA/Kcihfnn/+Y8XR5e/4gjSKb/OQgu3qEW5mo632t5ubYWjNUIYFrDVO7/Y4eWNpHoHkZ8K+08TiQOP7QNLzlV8Dq/8ljALgqI+TxMlBwtiIzttTKVB8uL8JAwocd2Iy6p0UeQNCQ3em5eTSzToQnFdcOAy9uFhVdx4qzFC0/PiqCKb2xM1JQCtySd4epxq4eDEr8rtl2wyaN0xRMF2E4lpEx7xRKUfz+gBMOAVBRxB6uAVHOEqqcnwJHc5vv5MaZ3TA92DXyOgIpb3hPBQy1/ZYip9LHFwEV2+WcG60/KI85sR/w==","69168b21477cff9ada6cb980","691d4503fc50310430a752bc","index1","<span style='color:red'>Fail,<span style='color:red'>Fail,<span style='color:green'>Lift,<span style='color:green'>Lift,<span style='color:red'>Fail,<span style='color:red'>Fail,<span style='color:red'>Fail,<span style='color:red'>Fail,<span style='color:red'>Fail,<span style='color:green'>Lift,<span style='color:red'>Fail,<span style='color:green'>Lift","<span style='color:red'>Fail,<span style='color:red'>Fail,<span style='color:green'>Lift,<span style='color:green'>Lift,<span style='color:green'>Lift,<span style='color:green'>Lift,<span style='color:red'>Fail,<span style='color:green'>Lift,<span style='color:green'>Lift,<span style='color:green'>Lift,<span style='color:red'>Fail,<span style='color:green'>Lift","<span style='color:red'>Fail,<span style='color:green'>Lift,<span style='color:green'>Lift,<span style='color:red'>Fail,<span style='color:green'>Lift,<span style='color:green'>Lift","0,0,1,1,0,0,0,0,0,1,0,1","0,0,1,1,1,1,0,1,1,1,0,1","0,1,1,0,1,1",10,20,20,"","","","","{""box1"":""4"",""box2"":""6"",""box3"":""100"",""box4"":""45""}","",1,"round1_outcome",1,1,1,4,6,100,45,1,1,10,4,6,100,45,1,1,10,NA,NA,NA,NA,NA,NA,NA,NA,NA,NA,NA,NA,NA,NA,NA,NA,NA,NA,NA,NA,NA,NA,NA,"",NA,NA,NA,NA,NA,NA,NA,NA,NA,2025-11-19 04:44:44
"33572.59999999404","https://psyc-201.github.io/xiang2023/exp/index1.html?PROLIFIC_PID=REDACTED&STUDY_ID=69168b21477cff9ada6cb980&SESSION_ID=691d4503fc50310430a752bc","survey-html-form",9,537524,"0.0-309.0","MP/HG8wdvE8V1K5b1eSx81Bnsf1Cdi+tx9SxBAA/Kcihfnn/+Y8XR5e/4gjSKb/OQgu3qEW5mo632t5ubYWjNUIYFrDVO7/Y4eWNpHoHkZ8K+08TiQOP7QNLzlV8Dq/8ljALgqI+TxMlBwtiIzttTKVB8uL8JAwocd2Iy6p0UeQNCQ3em5eTSzToQnFdcOAy9uFhVdx4qzFC0/PiqCKb2xM1JQCtySd4epxq4eDEr8rtl2wyaN0xRMF2E4lpEx7xRKUfz+gBMOAVBRxB6uAVHOEqqcnwJHc5vv5MaZ3TA92DXyOgIpb3hPBQy1/ZYip9LHFwEV2+WcG60/KI85sR/w==","69168b21477cff9ada6cb980","691d4503fc50310430a752bc","index1","<span style='color:red'>Fail,<span style='color:red'>Fail,<span style='color:green'>Lift,<span style='color:green'>Lift,<span style='color:red'>Fail,<span style='color:red'>Fail,<span style='color:red'>Fail,<span style='color:red'>Fail,<span style='color:red'>Fail,<span style='color:green'>Lift,<span style='color:red'>Fail,<span style='color:green'>Lift","<span style='color:red'>Fail,<span style='color:red'>Fail,<span style='color:green'>Lift,<span style='color:green'>Lift,<span style='color:green'>Lift,<span style='color:green'>Lift,<span style='color:red'>Fail,<span style='color:green'>Lift,<span style='color:green'>Lift,<span style='color:green'>Lift,<span style='color:red'>Fail,<span style='color:green'>Lift","<span style='color:red'>Fail,<span style='color:green'>Lift,<span style='color:green'>Lift,<span style='color:red'>Fail,<span style='color:green'>Lift,<span style='color:green'>Lift","0,0,1,1,0,0,0,0,0,1,0,1","0,0,1,1,1,1,0,1,1,1,0,1","0,1,1,0,1,1",10,20,20,"","","","","{""box1"":""80"",""box2"":""90""}","",1,"round2_ready",2,1,2,NA,NA,NA,NA,NA,NA,NA,NA,NA,NA,NA,NA,NA,NA,80,90,80,90,NA,NA,NA,NA,NA,NA,NA,NA,NA,NA,NA,NA,NA,NA,NA,NA,NA,NA,NA,"",NA,NA,NA,NA,NA,NA,NA,NA,NA,2025-11-19 04:44:44
"59205.09999999404","https://psyc-201.github.io/xiang2023/exp/index1.html?PROLIFIC_PID=REDACTED&STUDY_ID=69168b21477cff9ada6cb980&SESSION_ID=691d4503fc50310430a752bc","survey-html-form",10,596733,"0.0-310.0","MP/HG8wdvE8V1K5b1eSx81Bnsf1Cdi+tx9SxBAA/Kcihfnn/+Y8XR5e/4gjSKb/OQgu3qEW5mo632t5ubYWjNUIYFrDVO7/Y4eWNpHoHkZ8K+08TiQOP7QNLzlV8Dq/8ljALgqI+TxMlBwtiIzttTKVB8uL8JAwocd2Iy6p0UeQNCQ3em5eTSzToQnFdcOAy9uFhVdx4qzFC0/PiqCKb2xM1JQCtySd4epxq4eDEr8rtl2wyaN0xRMF2E4lpEx7xRKUfz+gBMOAVBRxB6uAVHOEqqcnwJHc5vv5MaZ3TA92DXyOgIpb3hPBQy1/ZYip9LHFwEV2+WcG60/KI85sR/w==","69168b21477cff9ada6cb980","691d4503fc50310430a752bc","index1","<span style='color:red'>Fail,<span style='color:red'>Fail,<span style='color:green'>Lift,<span style='color:green'>Lift,<span style='color:red'>Fail,<span style='color:red'>Fail,<span style='color:red'>Fail,<span style='color:red'>Fail,<span style='color:red'>Fail,<span style='color:green'>Lift,<span style='color:red'>Fail,<span style='color:green'>Lift","<span style='color:red'>Fail,<span style='color:red'>Fail,<span style='color:green'>Lift,<span style='color:green'>Lift,<span style='color:green'>Lift,<span style='color:green'>Lift,<span style='color:red'>Fail,<span style='color:green'>Lift,<span style='color:green'>Lift,<span style='color:green'>Lift,<span style='color:red'>Fail,<span style='color:green'>Lift","<span style='color:red'>Fail,<span style='color:green'>Lift,<span style='color:green'>Lift,<span style='color:red'>Fail,<span style='color:green'>Lift,<span style='color:green'>Lift","0,0,1,1,0,0,0,0,0,1,0,1","0,0,1,1,1,1,0,1,1,1,0,1","0,1,1,0,1,1",10,20,20,"","","","","{""box1"":""4"",""box2"":""8"",""box3"":""100"",""box4"":""40""}","",1,"round2_outcome",3,1,2,4,8,100,40,1,1,20,NA,NA,NA,NA,NA,NA,NA,NA,NA,NA,NA,4,8,100,40,1,1,20,NA,NA,NA,NA,NA,NA,NA,NA,NA,NA,NA,NA,"",NA,NA,NA,NA,NA,NA,NA,NA,NA,2025-11-19 04:44:44
"18166.69999998808","https://psyc-201.github.io/xiang2023/exp/index1.html?PROLIFIC_PID=REDACTED&STUDY_ID=69168b21477cff9ada6cb980&SESSION_ID=691d4503fc50310430a752bc","survey-html-form",11,614903,"0.0-311.0","MP/HG8wdvE8V1K5b1eSx81Bnsf1Cdi+tx9SxBAA/Kcihfnn/+Y8XR5e/4gjSKb/OQgu3qEW5mo632t5ubYWjNUIYFrDVO7/Y4eWNpHoHkZ8K+08TiQOP7QNLzlV8Dq/8ljALgqI+TxMlBwtiIzttTKVB8uL8JAwocd2Iy6p0UeQNCQ3em5eTSzToQnFdcOAy9uFhVdx4qzFC0/PiqCKb2xM1JQCtySd4epxq4eDEr8rtl2wyaN0xRMF2E4lpEx7xRKUfz+gBMOAVBRxB6uAVHOEqqcnwJHc5vv5MaZ3TA92DXyOgIpb3hPBQy1/ZYip9LHFwEV2+WcG60/KI85sR/w==","69168b21477cff9ada6cb980","691d4503fc50310430a752bc","index1","<span style='color:red'>Fail,<span style='color:red'>Fail,<span style='color:green'>Lift,<span style='color:green'>Lift,<span style='color:red'>Fail,<span style='color:red'>Fail,<span style='color:red'>Fail,<span style='color:red'>Fail,<span style='color:red'>Fail,<span style='color:green'>Lift,<span style='color:red'>Fail,<span style='color:green'>Lift","<span style='color:red'>Fail,<span style='color:red'>Fail,<span style='color:green'>Lift,<span style='color:green'>Lift,<span style='color:green'>Lift,<span style='color:green'>Lift,<span style='color:red'>Fail,<span style='color:green'>Lift,<span style='color:green'>Lift,<span style='color:green'>Lift,<span style='color:red'>Fail,<span style='color:green'>Lift","<span style='color:red'>Fail,<span style='color:green'>Lift,<span style='color:green'>Lift,<span style='color:red'>Fail,<span style='color:green'>Lift,<span style='color:green'>Lift","0,0,1,1,0,0,0,0,0,1,0,1","0,0,1,1,1,1,0,1,1,1,0,1","0,1,1,0,1,1",10,20,20,"","","","","{""box1"":""55""}","",1,"round3_ready",4,1,3,NA,NA,NA,NA,NA,NA,NA,NA,NA,NA,NA,NA,NA,NA,55,55,NA,NA,NA,NA,NA,NA,NA,NA,NA,55,55,NA,NA,NA,NA,NA,NA,NA,NA,NA,NA,"",NA,NA,NA,NA,NA,NA,NA,NA,NA,2025-11-19 04:44:44
"44845.40000000596","https://psyc-201.github.io/xiang2023/exp/index1.html?PROLIFIC_PID=REDACTED&STUDY_ID=69168b21477cff9ada6cb980&SESSION_ID=691d4503fc50310430a752bc","survey-html-form",12,659754,"0.0-312.0-0.0","MP/HG8wdvE8V1K5b1eSx81Bnsf1Cdi+tx9SxBAA/Kcihfnn/+Y8XR5e/4gjSKb/OQgu3qEW5mo632t5ubYWjNUIYFrDVO7/Y4eWNpHoHkZ8K+08TiQOP7QNLzlV8Dq/8ljALgqI+TxMlBwtiIzttTKVB8uL8JAwocd2Iy6p0UeQNCQ3em5eTSzToQnFdcOAy9uFhVdx4qzFC0/PiqCKb2xM1JQCtySd4epxq4eDEr8rtl2wyaN0xRMF2E4lpEx7xRKUfz+gBMOAVBRxB6uAVHOEqqcnwJHc5vv5MaZ3TA92DXyOgIpb3hPBQy1/ZYip9LHFwEV2+WcG60/KI85sR/w==","69168b21477cff9ada6cb980","691d4503fc50310430a752bc","index1","<span style='color:red'>Fail,<span style='color:red'>Fail,<span style='color:green'>Lift,<span style='color:green'>Lift,<span style='color:red'>Fail,<span style='color:red'>Fail,<span style='color:red'>Fail,<span style='color:red'>Fail,<span style='color:red'>Fail,<span style='color:green'>Lift,<span style='color:red'>Fail,<span style='color:green'>Lift","<span style='color:red'>Fail,<span style='color:red'>Fail,<span style='color:green'>Lift,<span style='color:green'>Lift,<span style='color:green'>Lift,<span style='color:green'>Lift,<span style='color:red'>Fail,<span style='color:green'>Lift,<span style='color:green'>Lift,<span style='color:green'>Lift,<span style='color:red'>Fail,<span style='color:green'>Lift","<span style='color:red'>Fail,<span style='color:green'>Lift,<span style='color:green'>Lift,<span style='color:red'>Fail,<span style='color:green'>Lift,<span style='color:green'>Lift","0,0,1,1,0,0,0,0,0,1,0,1","0,0,1,1,1,1,0,1,1,1,0,1","0,1,1,0,1,1",10,20,20,"","","","","{""box1"":""8"",""box2"":""8"",""box3"":""100"",""box4"":""80""}","",2,"round3_lift",5,1,3,8,8,100,80,1,1,20,NA,NA,NA,NA,NA,NA,NA,NA,NA,NA,NA,NA,NA,NA,NA,NA,NA,NA,NA,NA,8,8,100,80,1,1,20,NA,NA,NA,"",NA,NA,NA,NA,NA,NA,NA,NA,NA,2025-11-19 04:44:44
"null","https://psyc-201.github.io/xiang2023/exp/index1.html?PROLIFIC_PID=REDACTED&STUDY_ID=69168b21477cff9ada6cb980&SESSION_ID=691d4503fc50310430a752bc","html-keyboard-response",13,662757,"0.0-316.0","MP/HG8wdvE8V1K5b1eSx81Bnsf1Cdi+tx9SxBAA/Kcihfnn/+Y8XR5e/4gjSKb/OQgu3qEW5mo632t5ubYWjNUIYFrDVO7/Y4eWNpHoHkZ8K+08TiQOP7QNLzlV8Dq/8ljALgqI+TxMlBwtiIzttTKVB8uL8JAwocd2Iy6p0UeQNCQ3em5eTSzToQnFdcOAy9uFhVdx4qzFC0/PiqCKb2xM1JQCtySd4epxq4eDEr8rtl2wyaN0xRMF2E4lpEx7xRKUfz+gBMOAVBRxB6uAVHOEqqcnwJHc5vv5MaZ3TA92DXyOgIpb3hPBQy1/ZYip9LHFwEV2+WcG60/KI85sR/w==","69168b21477cff9ada6cb980","691d4503fc50310430a752bc","index1","<span style='color:red'>Fail,<span style='color:red'>Fail,<span style='color:green'>Lift,<span style='color:green'>Lift,<span style='color:red'>Fail,<span style='color:red'>Fail,<span style='color:red'>Fail,<span style='color:red'>Fail,<span style='color:red'>Fail,<span style='color:green'>Lift,<span style='color:red'>Fail,<span style='color:green'>Lift","<span style='color:red'>Fail,<span style='color:red'>Fail,<span style='color:green'>Lift,<span style='color:green'>Lift,<span style='color:green'>Lift,<span style='color:green'>Lift,<span style='color:red'>Fail,<span style='color:green'>Lift,<span style='color:green'>Lift,<span style='color:green'>Lift,<span style='color:red'>Fail,<span style='color:green'>Lift","<span style='color:red'>Fail,<span style='color:green'>Lift,<span style='color:green'>Lift,<span style='color:red'>Fail,<span style='color:green'>Lift,<span style='color:green'>Lift","0,0,1,1,0,0,0,0,0,1,0,1","0,0,1,1,1,1,0,1,1,1,0,1","0,1,1,0,1,1",10,20,20,"","","<p style='font-size:30px'><b> New Contest! </b></p>","null","","",2,"",NA,NA,NA,NA,NA,NA,NA,NA,NA,NA,NA,NA,NA,NA,NA,NA,NA,NA,NA,NA,NA,NA,NA,NA,NA,NA,NA,NA,NA,NA,NA,NA,NA,NA,NA,NA,NA,NA,NA,NA,"",NA,NA,NA,NA,NA,NA,NA,NA,NA,2025-11-19 04:44:44
"35392.59999999404","https://psyc-201.github.io/xiang2023/exp/index1.html?PROLIFIC_PID=REDACTED&STUDY_ID=69168b21477cff9ada6cb980&SESSION_ID=691d4503fc50310430a752bc","survey-html-form",14,698154,"0.0-317.0","MP/HG8wdvE8V1K5b1eSx81Bnsf1Cdi+tx9SxBAA/Kcihfnn/+Y8XR5e/4gjSKb/OQgu3qEW5mo632t5ubYWjNUIYFrDVO7/Y4eWNpHoHkZ8K+08TiQOP7QNLzlV8Dq/8ljALgqI+TxMlBwtiIzttTKVB8uL8JAwocd2Iy6p0UeQNCQ3em5eTSzToQnFdcOAy9uFhVdx4qzFC0/PiqCKb2xM1JQCtySd4epxq4eDEr8rtl2wyaN0xRMF2E4lpEx7xRKUfz+gBMOAVBRxB6uAVHOEqqcnwJHc5vv5MaZ3TA92DXyOgIpb3hPBQy1/ZYip9LHFwEV2+WcG60/KI85sR/w==","69168b21477cff9ada6cb980","691d4503fc50310430a752bc","index1","<span style='color:red'>Fail,<span style='color:red'>Fail,<span style='color:green'>Lift,<span style='color:green'>Lift,<span style='color:red'>Fail,<span style='color:red'>Fail,<span style='color:red'>Fail,<span style='color:red'>Fail,<span style='color:red'>Fail,<span style='color:green'>Lift,<span style='color:red'>Fail,<span style='color:green'>Lift","<span style='color:red'>Fail,<span style='color:red'>Fail,<span style='color:green'>Lift,<span style='color:green'>Lift,<span style='color:green'>Lift,<span style='color:green'>Lift,<span style='color:red'>Fail,<span style='color:green'>Lift,<span style='color:green'>Lift,<span style='color:green'>Lift,<span style='color:red'>Fail,<span style='color:green'>Lift","<span style='color:red'>Fail,<span style='color:green'>Lift,<span style='color:green'>Lift,<span style='color:red'>Fail,<span style='color:green'>Lift,<span style='color:green'>Lift","0,0,1,1,0,0,0,0,0,1,0,1","0,0,1,1,1,1,0,1,1,1,0,1","0,1,1,0,1,1",10,20,20,"","","","","{""box1"":""3"",""box2"":""9"",""box4"":""90""}","",2,"round1_outcome",1,2,1,3,9,NA,90,0,1,10,3,9,NA,90,0,1,10,NA,NA,NA,NA,NA,NA,NA,NA,NA,NA,NA,NA,NA,NA,NA,NA,NA,NA,NA,NA,NA,NA,NA,"",NA,NA,NA,NA,NA,NA,NA,NA,NA,2025-11-19 04:44:44
"23529","https://psyc-201.github.io/xiang2023/exp/index1.html?PROLIFIC_PID=REDACTED&STUDY_ID=69168b21477cff9ada6cb980&SESSION_ID=691d4503fc50310430a752bc","survey-html-form",15,721688,"0.0-318.0","MP/HG8wdvE8V1K5b1eSx81Bnsf1Cdi+tx9SxBAA/Kcihfnn/+Y8XR5e/4gjSKb/OQgu3qEW5mo632t5ubYWjNUIYFrDVO7/Y4eWNpHoHkZ8K+08TiQOP7QNLzlV8Dq/8ljALgqI+TxMlBwtiIzttTKVB8uL8JAwocd2Iy6p0UeQNCQ3em5eTSzToQnFdcOAy9uFhVdx4qzFC0/PiqCKb2xM1JQCtySd4epxq4eDEr8rtl2wyaN0xRMF2E4lpEx7xRKUfz+gBMOAVBRxB6uAVHOEqqcnwJHc5vv5MaZ3TA92DXyOgIpb3hPBQy1/ZYip9LHFwEV2+WcG60/KI85sR/w==","69168b21477cff9ada6cb980","691d4503fc50310430a752bc","index1","<span style='color:red'>Fail,<span style='color:red'>Fail,<span style='color:green'>Lift,<span style='color:green'>Lift,<span style='color:red'>Fail,<span style='color:red'>Fail,<span style='color:red'>Fail,<span style='color:red'>Fail,<span style='color:red'>Fail,<span style='color:green'>Lift,<span style='color:red'>Fail,<span style='color:green'>Lift","<span style='color:red'>Fail,<span style='color:red'>Fail,<span style='color:green'>Lift,<span style='color:green'>Lift,<span style='color:green'>Lift,<span style='color:green'>Lift,<span style='color:red'>Fail,<span style='color:green'>Lift,<span style='color:green'>Lift,<span style='color:green'>Lift,<span style='color:red'>Fail,<span style='color:green'>Lift","<span style='color:red'>Fail,<span style='color:green'>Lift,<span style='color:green'>Lift,<span style='color:red'>Fail,<span style='color:green'>Lift,<span style='color:green'>Lift","0,0,1,1,0,0,0,0,0,1,0,1","0,0,1,1,1,1,0,1,1,1,0,1","0,1,1,0,1,1",10,20,20,"","","","","{""box1"":""20"",""box2"":""100""}","",2,"round2_ready",2,2,2,NA,NA,NA,NA,NA,NA,NA,NA,NA,NA,NA,NA,NA,NA,20,100,20,100,NA,NA,NA,NA,NA,NA,NA,NA,NA,NA,NA,NA,NA,NA,NA,NA,NA,NA,NA,"",NA,NA,NA,NA,NA,NA,NA,NA,NA,2025-11-19 04:44:44
"35511.70000001788","https://psyc-201.github.io/xiang2023/exp/index1.html?PROLIFIC_PID=REDACTED&STUDY_ID=69168b21477cff9ada6cb980&SESSION_ID=691d4503fc50310430a752bc","survey-html-form",16,757205,"0.0-319.0","MP/HG8wdvE8V1K5b1eSx81Bnsf1Cdi+tx9SxBAA/Kcihfnn/+Y8XR5e/4gjSKb/OQgu3qEW5mo632t5ubYWjNUIYFrDVO7/Y4eWNpHoHkZ8K+08TiQOP7QNLzlV8Dq/8ljALgqI+TxMlBwtiIzttTKVB8uL8JAwocd2Iy6p0UeQNCQ3em5eTSzToQnFdcOAy9uFhVdx4qzFC0/PiqCKb2xM1JQCtySd4epxq4eDEr8rtl2wyaN0xRMF2E4lpEx7xRKUfz+gBMOAVBRxB6uAVHOEqqcnwJHc5vv5MaZ3TA92DXyOgIpb3hPBQy1/ZYip9LHFwEV2+WcG60/KI85sR/w==","69168b21477cff9ada6cb980","691d4503fc50310430a752bc","index1","<span style='color:red'>Fail,<span style='color:red'>Fail,<span style='color:green'>Lift,<span style='color:green'>Lift,<span style='color:red'>Fail,<span style='color:red'>Fail,<span style='color:red'>Fail,<span style='color:red'>Fail,<span style='color:red'>Fail,<span style='color:green'>Lift,<span style='color:red'>Fail,<span style='color:green'>Lift","<span style='color:red'>Fail,<span style='color:red'>Fail,<span style='color:green'>Lift,<span style='color:green'>Lift,<span style='color:green'>Lift,<span style='color:green'>Lift,<span style='color:red'>Fail,<span style='color:green'>Lift,<span style='color:green'>Lift,<span style='color:green'>Lift,<span style='color:red'>Fail,<span style='color:green'>Lift","<span style='color:red'>Fail,<span style='color:green'>Lift,<span style='color:green'>Lift,<span style='color:red'>Fail,<span style='color:green'>Lift,<span style='color:green'>Lift","0,0,1,1,0,0,0,0,0,1,0,1","0,0,1,1,1,1,0,1,1,1,0,1","0,1,1,0,1,1",10,20,20,"","","","","{""box1"":""3"",""box2"":""9"",""box3"":""100"",""box4"":""70""}","",2,"round2_outcome",3,2,2,3,9,100,70,1,1,20,NA,NA,NA,NA,NA,NA,NA,NA,NA,NA,NA,3,9,100,70,1,1,20,NA,NA,NA,NA,NA,NA,NA,NA,NA,NA,NA,NA,"",NA,NA,NA,NA,NA,NA,NA,NA,NA,2025-11-19 04:44:44
"13013.699999988079","https://psyc-201.github.io/xiang2023/exp/index1.html?PROLIFIC_PID=REDACTED&STUDY_ID=69168b21477cff9ada6cb980&SESSION_ID=691d4503fc50310430a752bc","survey-html-form",17,770224,"0.0-320.0","MP/HG8wdvE8V1K5b1eSx81Bnsf1Cdi+tx9SxBAA/Kcihfnn/+Y8XR5e/4gjSKb/OQgu3qEW5mo632t5ubYWjNUIYFrDVO7/Y4eWNpHoHkZ8K+08TiQOP7QNLzlV8Dq/8ljALgqI+TxMlBwtiIzttTKVB8uL8JAwocd2Iy6p0UeQNCQ3em5eTSzToQnFdcOAy9uFhVdx4qzFC0/PiqCKb2xM1JQCtySd4epxq4eDEr8rtl2wyaN0xRMF2E4lpEx7xRKUfz+gBMOAVBRxB6uAVHOEqqcnwJHc5vv5MaZ3TA92DXyOgIpb3hPBQy1/ZYip9LHFwEV2+WcG60/KI85sR/w==","69168b21477cff9ada6cb980","691d4503fc50310430a752bc","index1","<span style='color:red'>Fail,<span style='color:red'>Fail,<span style='color:green'>Lift,<span style='color:green'>Lift,<span style='color:red'>Fail,<span style='color:red'>Fail,<span style='color:red'>Fail,<span style='color:red'>Fail,<span style='color:red'>Fail,<span style='color:green'>Lift,<span style='color:red'>Fail,<span style='color:green'>Lift","<span style='color:red'>Fail,<span style='color:red'>Fail,<span style='color:green'>Lift,<span style='color:green'>Lift,<span style='color:green'>Lift,<span style='color:green'>Lift,<span style='color:red'>Fail,<span style='color:green'>Lift,<span style='color:green'>Lift,<span style='color:green'>Lift,<span style='color:red'>Fail,<span style='color:green'>Lift","<span style='color:red'>Fail,<span style='color:green'>Lift,<span style='color:green'>Lift,<span style='color:red'>Fail,<span style='color:green'>Lift,<span style='color:green'>Lift","0,0,1,1,0,0,0,0,0,1,0,1","0,0,1,1,1,1,0,1,1,1,0,1","0,1,1,0,1,1",10,20,20,"","","","","{""box1"":""80""}","",2,"round3_ready",4,2,3,NA,NA,NA,NA,NA,NA,NA,NA,NA,NA,NA,NA,NA,NA,80,80,NA,NA,NA,NA,NA,NA,NA,NA,NA,80,80,NA,NA,NA,NA,NA,NA,NA,NA,NA,NA,"",NA,NA,NA,NA,NA,NA,NA,NA,NA,2025-11-19 04:44:44
"30546.19999998808","https://psyc-201.github.io/xiang2023/exp/index1.html?PROLIFIC_PID=REDACTED&STUDY_ID=69168b21477cff9ada6cb980&SESSION_ID=691d4503fc50310430a752bc","survey-html-form",18,800775,"0.0-321.0-0.0","MP/HG8wdvE8V1K5b1eSx81Bnsf1Cdi+tx9SxBAA/Kcihfnn/+Y8XR5e/4gjSKb/OQgu3qEW5mo632t5ubYWjNUIYFrDVO7/Y4eWNpHoHkZ8K+08TiQOP7QNLzlV8Dq/8ljALgqI+TxMlBwtiIzttTKVB8uL8JAwocd2Iy6p0UeQNCQ3em5eTSzToQnFdcOAy9uFhVdx4qzFC0/PiqCKb2xM1JQCtySd4epxq4eDEr8rtl2wyaN0xRMF2E4lpEx7xRKUfz+gBMOAVBRxB6uAVHOEqqcnwJHc5vv5MaZ3TA92DXyOgIpb3hPBQy1/ZYip9LHFwEV2+WcG60/KI85sR/w==","69168b21477cff9ada6cb980","691d4503fc50310430a752bc","index1","<span style='color:red'>Fail,<span style='color:red'>Fail,<span style='color:green'>Lift,<span style='color:green'>Lift,<span style='color:red'>Fail,<span style='color:red'>Fail,<span style='color:red'>Fail,<span style='color:red'>Fail,<span style='color:red'>Fail,<span style='color:green'>Lift,<span style='color:red'>Fail,<span style='color:green'>Lift","<span style='color:red'>Fail,<span style='color:red'>Fail,<span style='color:green'>Lift,<span style='color:green'>Lift,<span style='color:green'>Lift,<span style='color:green'>Lift,<span style='color:red'>Fail,<span style='color:green'>Lift,<span style='color:green'>Lift,<span style='color:green'>Lift,<span style='color:red'>Fail,<span style='color:green'>Lift","<span style='color:red'>Fail,<span style='color:green'>Lift,<span style='color:green'>Lift,<span style='color:red'>Fail,<span style='color:green'>Lift,<span style='color:green'>Lift","0,0,1,1,0,0,0,0,0,1,0,1","0,0,1,1,1,1,0,1,1,1,0,1","0,1,1,0,1,1",10,20,20,"","","","","{""box1"":""4"",""box2"":""10"",""box3"":""90"",""box4"":""80""}","",3,"round3_lift",5,2,3,4,10,90,80,1,1,20,NA,NA,NA,NA,NA,NA,NA,NA,NA,NA,NA,NA,NA,NA,NA,NA,NA,NA,NA,NA,4,10,90,80,1,1,20,NA,NA,NA,"",NA,NA,NA,NA,NA,NA,NA,NA,NA,2025-11-19 04:44:44
"null","https://psyc-201.github.io/xiang2023/exp/index1.html?PROLIFIC_PID=REDACTED&STUDY_ID=69168b21477cff9ada6cb980&SESSION_ID=691d4503fc50310430a752bc","html-keyboard-response",19,803777,"0.0-325.0","MP/HG8wdvE8V1K5b1eSx81Bnsf1Cdi+tx9SxBAA/Kcihfnn/+Y8XR5e/4gjSKb/OQgu3qEW5mo632t5ubYWjNUIYFrDVO7/Y4eWNpHoHkZ8K+08TiQOP7QNLzlV8Dq/8ljALgqI+TxMlBwtiIzttTKVB8uL8JAwocd2Iy6p0UeQNCQ3em5eTSzToQnFdcOAy9uFhVdx4qzFC0/PiqCKb2xM1JQCtySd4epxq4eDEr8rtl2wyaN0xRMF2E4lpEx7xRKUfz+gBMOAVBRxB6uAVHOEqqcnwJHc5vv5MaZ3TA92DXyOgIpb3hPBQy1/ZYip9LHFwEV2+WcG60/KI85sR/w==","69168b21477cff9ada6cb980","691d4503fc50310430a752bc","index1","<span style='color:red'>Fail,<span style='color:red'>Fail,<span style='color:green'>Lift,<span style='color:green'>Lift,<span style='color:red'>Fail,<span style='color:red'>Fail,<span style='color:red'>Fail,<span style='color:red'>Fail,<span style='color:red'>Fail,<span style='color:green'>Lift,<span style='color:red'>Fail,<span style='color:green'>Lift","<span style='color:red'>Fail,<span style='color:red'>Fail,<span style='color:green'>Lift,<span style='color:green'>Lift,<span style='color:green'>Lift,<span style='color:green'>Lift,<span style='color:red'>Fail,<span style='color:green'>Lift,<span style='color:green'>Lift,<span style='color:green'>Lift,<span style='color:red'>Fail,<span style='color:green'>Lift","<span style='color:red'>Fail,<span style='color:green'>Lift,<span style='color:green'>Lift,<span style='color:red'>Fail,<span style='color:green'>Lift,<span style='color:green'>Lift","0,0,1,1,0,0,0,0,0,1,0,1","0,0,1,1,1,1,0,1,1,1,0,1","0,1,1,0,1,1",10,20,20,"","","<p style='font-size:30px'><b> New Contest! </b></p>","null","","",3,"",NA,NA,NA,NA,NA,NA,NA,NA,NA,NA,NA,NA,NA,NA,NA,NA,NA,NA,NA,NA,NA,NA,NA,NA,NA,NA,NA,NA,NA,NA,NA,NA,NA,NA,NA,NA,NA,NA,NA,NA,"",NA,NA,NA,NA,NA,NA,NA,NA,NA,2025-11-19 04:44:44
"14124.699999988079","https://psyc-201.github.io/xiang2023/exp/index1.html?PROLIFIC_PID=REDACTED&STUDY_ID=69168b21477cff9ada6cb980&SESSION_ID=691d4503fc50310430a752bc","survey-html-form",20,817906,"0.0-326.0","MP/HG8wdvE8V1K5b1eSx81Bnsf1Cdi+tx9SxBAA/Kcihfnn/+Y8XR5e/4gjSKb/OQgu3qEW5mo632t5ubYWjNUIYFrDVO7/Y4eWNpHoHkZ8K+08TiQOP7QNLzlV8Dq/8ljALgqI+TxMlBwtiIzttTKVB8uL8JAwocd2Iy6p0UeQNCQ3em5eTSzToQnFdcOAy9uFhVdx4qzFC0/PiqCKb2xM1JQCtySd4epxq4eDEr8rtl2wyaN0xRMF2E4lpEx7xRKUfz+gBMOAVBRxB6uAVHOEqqcnwJHc5vv5MaZ3TA92DXyOgIpb3hPBQy1/ZYip9LHFwEV2+WcG60/KI85sR/w==","69168b21477cff9ada6cb980","691d4503fc50310430a752bc","index1","<span style='color:red'>Fail,<span style='color:red'>Fail,<span style='color:green'>Lift,<span style='color:green'>Lift,<span style='color:red'>Fail,<span style='color:red'>Fail,<span style='color:red'>Fail,<span style='color:red'>Fail,<span style='color:red'>Fail,<span style='color:green'>Lift,<span style='color:red'>Fail,<span style='color:green'>Lift","<span style='color:red'>Fail,<span style='color:red'>Fail,<span style='color:green'>Lift,<span style='color:green'>Lift,<span style='color:green'>Lift,<span style='color:green'>Lift,<span style='color:red'>Fail,<span style='color:green'>Lift,<span style='color:green'>Lift,<span style='color:green'>Lift,<span style='color:red'>Fail,<span style='color:green'>Lift","<span style='color:red'>Fail,<span style='color:green'>Lift,<span style='color:green'>Lift,<span style='color:red'>Fail,<span style='color:green'>Lift,<span style='color:green'>Lift","0,0,1,1,0,0,0,0,0,1,0,1","0,0,1,1,1,1,0,1,1,1,0,1","0,1,1,0,1,1",10,20,20,"","","","","{""box1"":""5"",""box2"":""5""}","",3,"round1_outcome",1,3,1,5,5,NA,NA,0,0,10,5,5,NA,NA,0,0,10,NA,NA,NA,NA,NA,NA,NA,NA,NA,NA,NA,NA,NA,NA,NA,NA,NA,NA,NA,NA,NA,NA,NA,"",NA,NA,NA,NA,NA,NA,NA,NA,NA,2025-11-19 04:44:44
"18192.5","https://psyc-201.github.io/xiang2023/exp/index1.html?PROLIFIC_PID=REDACTED&STUDY_ID=69168b21477cff9ada6cb980&SESSION_ID=691d4503fc50310430a752bc","survey-html-form",21,836104,"0.0-327.0","MP/HG8wdvE8V1K5b1eSx81Bnsf1Cdi+tx9SxBAA/Kcihfnn/+Y8XR5e/4gjSKb/OQgu3qEW5mo632t5ubYWjNUIYFrDVO7/Y4eWNpHoHkZ8K+08TiQOP7QNLzlV8Dq/8ljALgqI+TxMlBwtiIzttTKVB8uL8JAwocd2Iy6p0UeQNCQ3em5eTSzToQnFdcOAy9uFhVdx4qzFC0/PiqCKb2xM1JQCtySd4epxq4eDEr8rtl2wyaN0xRMF2E4lpEx7xRKUfz+gBMOAVBRxB6uAVHOEqqcnwJHc5vv5MaZ3TA92DXyOgIpb3hPBQy1/ZYip9LHFwEV2+WcG60/KI85sR/w==","69168b21477cff9ada6cb980","691d4503fc50310430a752bc","index1","<span style='color:red'>Fail,<span style='color:red'>Fail,<span style='color:green'>Lift,<span style='color:green'>Lift,<span style='color:red'>Fail,<span style='color:red'>Fail,<span style='color:red'>Fail,<span style='color:red'>Fail,<span style='color:red'>Fail,<span style='color:green'>Lift,<span style='color:red'>Fail,<span style='color:green'>Lift","<span style='color:red'>Fail,<span style='color:red'>Fail,<span style='color:green'>Lift,<span style='color:green'>Lift,<span style='color:green'>Lift,<span style='color:green'>Lift,<span style='color:red'>Fail,<span style='color:green'>Lift,<span style='color:green'>Lift,<span style='color:green'>Lift,<span style='color:red'>Fail,<span style='color:green'>Lift","<span style='color:red'>Fail,<span style='color:green'>Lift,<span style='color:green'>Lift,<span style='color:red'>Fail,<span style='color:green'>Lift,<span style='color:green'>Lift","0,0,1,1,0,0,0,0,0,1,0,1","0,0,1,1,1,1,0,1,1,1,0,1","0,1,1,0,1,1",10,20,20,"","","","","{""box1"":""15"",""box2"":""15""}","",3,"round2_ready",2,3,2,NA,NA,NA,NA,NA,NA,NA,NA,NA,NA,NA,NA,NA,NA,15,15,15,15,NA,NA,NA,NA,NA,NA,NA,NA,NA,NA,NA,NA,NA,NA,NA,NA,NA,NA,NA,"",NA,NA,NA,NA,NA,NA,NA,NA,NA,2025-11-19 04:44:44
"37749.40000000596","https://psyc-201.github.io/xiang2023/exp/index1.html?PROLIFIC_PID=REDACTED&STUDY_ID=69168b21477cff9ada6cb980&SESSION_ID=691d4503fc50310430a752bc","survey-html-form",22,873858,"0.0-328.0","MP/HG8wdvE8V1K5b1eSx81Bnsf1Cdi+tx9SxBAA/Kcihfnn/+Y8XR5e/4gjSKb/OQgu3qEW5mo632t5ubYWjNUIYFrDVO7/Y4eWNpHoHkZ8K+08TiQOP7QNLzlV8Dq/8ljALgqI+TxMlBwtiIzttTKVB8uL8JAwocd2Iy6p0UeQNCQ3em5eTSzToQnFdcOAy9uFhVdx4qzFC0/PiqCKb2xM1JQCtySd4epxq4eDEr8rtl2wyaN0xRMF2E4lpEx7xRKUfz+gBMOAVBRxB6uAVHOEqqcnwJHc5vv5MaZ3TA92DXyOgIpb3hPBQy1/ZYip9LHFwEV2+WcG60/KI85sR/w==","69168b21477cff9ada6cb980","691d4503fc50310430a752bc","index1","<span style='color:red'>Fail,<span style='color:red'>Fail,<span style='color:green'>Lift,<span style='color:green'>Lift,<span style='color:red'>Fail,<span style='color:red'>Fail,<span style='color:red'>Fail,<span style='color:red'>Fail,<span style='color:red'>Fail,<span style='color:green'>Lift,<span style='color:red'>Fail,<span style='color:green'>Lift","<span style='color:red'>Fail,<span style='color:red'>Fail,<span style='color:green'>Lift,<span style='color:green'>Lift,<span style='color:green'>Lift,<span style='color:green'>Lift,<span style='color:red'>Fail,<span style='color:green'>Lift,<span style='color:green'>Lift,<span style='color:green'>Lift,<span style='color:red'>Fail,<span style='color:green'>Lift","<span style='color:red'>Fail,<span style='color:green'>Lift,<span style='color:green'>Lift,<span style='color:red'>Fail,<span style='color:green'>Lift,<span style='color:green'>Lift","0,0,1,1,0,0,0,0,0,1,0,1","0,0,1,1,1,1,0,1,1,1,0,1","0,1,1,0,1,1",10,20,20,"","","","","{""box1"":""8"",""box2"":""8"",""box3"":""75"",""box4"":""75""}","",3,"round2_outcome",3,3,2,8,8,75,75,1,1,20,NA,NA,NA,NA,NA,NA,NA,NA,NA,NA,NA,8,8,75,75,1,1,20,NA,NA,NA,NA,NA,NA,NA,NA,NA,NA,NA,NA,"",NA,NA,NA,NA,NA,NA,NA,NA,NA,2025-11-19 04:44:44
"14790.59999999404","https://psyc-201.github.io/xiang2023/exp/index1.html?PROLIFIC_PID=REDACTED&STUDY_ID=69168b21477cff9ada6cb980&SESSION_ID=691d4503fc50310430a752bc","survey-html-form",23,888652,"0.0-329.0","MP/HG8wdvE8V1K5b1eSx81Bnsf1Cdi+tx9SxBAA/Kcihfnn/+Y8XR5e/4gjSKb/OQgu3qEW5mo632t5ubYWjNUIYFrDVO7/Y4eWNpHoHkZ8K+08TiQOP7QNLzlV8Dq/8ljALgqI+TxMlBwtiIzttTKVB8uL8JAwocd2Iy6p0UeQNCQ3em5eTSzToQnFdcOAy9uFhVdx4qzFC0/PiqCKb2xM1JQCtySd4epxq4eDEr8rtl2wyaN0xRMF2E4lpEx7xRKUfz+gBMOAVBRxB6uAVHOEqqcnwJHc5vv5MaZ3TA92DXyOgIpb3hPBQy1/ZYip9LHFwEV2+WcG60/KI85sR/w==","69168b21477cff9ada6cb980","691d4503fc50310430a752bc","index1","<span style='color:red'>Fail,<span style='color:red'>Fail,<span style='color:green'>Lift,<span style='color:green'>Lift,<span style='color:red'>Fail,<span style='color:red'>Fail,<span style='color:red'>Fail,<span style='color:red'>Fail,<span style='color:red'>Fail,<span style='color:green'>Lift,<span style='color:red'>Fail,<span style='color:green'>Lift","<span style='color:red'>Fail,<span style='color:red'>Fail,<span style='color:green'>Lift,<span style='color:green'>Lift,<span style='color:green'>Lift,<span style='color:green'>Lift,<span style='color:red'>Fail,<span style='color:green'>Lift,<span style='color:green'>Lift,<span style='color:green'>Lift,<span style='color:red'>Fail,<span style='color:green'>Lift","<span style='color:red'>Fail,<span style='color:green'>Lift,<span style='color:green'>Lift,<span style='color:red'>Fail,<span style='color:green'>Lift,<span style='color:green'>Lift","0,0,1,1,0,0,0,0,0,1,0,1","0,0,1,1,1,1,0,1,1,1,0,1","0,1,1,0,1,1",10,20,20,"","","","","{""box1"":""89""}","",3,"round3_ready",4,3,3,NA,NA,NA,NA,NA,NA,NA,NA,NA,NA,NA,NA,NA,NA,89,89,NA,NA,NA,NA,NA,NA,NA,NA,NA,89,89,NA,NA,NA,NA,NA,NA,NA,NA,NA,NA,"",NA,NA,NA,NA,NA,NA,NA,NA,NA,2025-11-19 04:44:44
"41252.69999998808","https://psyc-201.github.io/xiang2023/exp/index1.html?PROLIFIC_PID=REDACTED&STUDY_ID=69168b21477cff9ada6cb980&SESSION_ID=691d4503fc50310430a752bc","survey-html-form",24,929910,"0.0-330.0-0.0","MP/HG8wdvE8V1K5b1eSx81Bnsf1Cdi+tx9SxBAA/Kcihfnn/+Y8XR5e/4gjSKb/OQgu3qEW5mo632t5ubYWjNUIYFrDVO7/Y4eWNpHoHkZ8K+08TiQOP7QNLzlV8Dq/8ljALgqI+TxMlBwtiIzttTKVB8uL8JAwocd2Iy6p0UeQNCQ3em5eTSzToQnFdcOAy9uFhVdx4qzFC0/PiqCKb2xM1JQCtySd4epxq4eDEr8rtl2wyaN0xRMF2E4lpEx7xRKUfz+gBMOAVBRxB6uAVHOEqqcnwJHc5vv5MaZ3TA92DXyOgIpb3hPBQy1/ZYip9LHFwEV2+WcG60/KI85sR/w==","69168b21477cff9ada6cb980","691d4503fc50310430a752bc","index1","<span style='color:red'>Fail,<span style='color:red'>Fail,<span style='color:green'>Lift,<span style='color:green'>Lift,<span style='color:red'>Fail,<span style='color:red'>Fail,<span style='color:red'>Fail,<span style='color:red'>Fail,<span style='color:red'>Fail,<span style='color:green'>Lift,<span style='color:red'>Fail,<span style='color:green'>Lift","<span style='color:red'>Fail,<span style='color:red'>Fail,<span style='color:green'>Lift,<span style='color:green'>Lift,<span style='color:green'>Lift,<span style='color:green'>Lift,<span style='color:red'>Fail,<span style='color:green'>Lift,<span style='color:green'>Lift,<span style='color:green'>Lift,<span style='color:red'>Fail,<span style='color:green'>Lift","<span style='color:red'>Fail,<span style='color:green'>Lift,<span style='color:green'>Lift,<span style='color:red'>Fail,<span style='color:green'>Lift,<span style='color:green'>Lift","0,0,1,1,0,0,0,0,0,1,0,1","0,0,1,1,1,1,0,1,1,1,0,1","0,1,1,0,1,1",10,20,20,"","","","","{""box1"":""8"",""box2"":""8"",""box3"":""88"",""box4"":""88""}","",4,"round3_lift",5,3,3,8,8,88,88,1,1,20,NA,NA,NA,NA,NA,NA,NA,NA,NA,NA,NA,NA,NA,NA,NA,NA,NA,NA,NA,NA,8,8,88,88,1,1,20,NA,NA,NA,"",NA,NA,NA,NA,NA,NA,NA,NA,NA,2025-11-19 04:44:44
"null","https://psyc-201.github.io/xiang2023/exp/index1.html?PROLIFIC_PID=REDACTED&STUDY_ID=69168b21477cff9ada6cb980&SESSION_ID=691d4503fc50310430a752bc","html-keyboard-response",25,932914,"0.0-334.0","MP/HG8wdvE8V1K5b1eSx81Bnsf1Cdi+tx9SxBAA/Kcihfnn/+Y8XR5e/4gjSKb/OQgu3qEW5mo632t5ubYWjNUIYFrDVO7/Y4eWNpHoHkZ8K+08TiQOP7QNLzlV8Dq/8ljALgqI+TxMlBwtiIzttTKVB8uL8JAwocd2Iy6p0UeQNCQ3em5eTSzToQnFdcOAy9uFhVdx4qzFC0/PiqCKb2xM1JQCtySd4epxq4eDEr8rtl2wyaN0xRMF2E4lpEx7xRKUfz+gBMOAVBRxB6uAVHOEqqcnwJHc5vv5MaZ3TA92DXyOgIpb3hPBQy1/ZYip9LHFwEV2+WcG60/KI85sR/w==","69168b21477cff9ada6cb980","691d4503fc50310430a752bc","index1","<span style='color:red'>Fail,<span style='color:red'>Fail,<span style='color:green'>Lift,<span style='color:green'>Lift,<span style='color:red'>Fail,<span style='color:red'>Fail,<span style='color:red'>Fail,<span style='color:red'>Fail,<span style='color:red'>Fail,<span style='color:green'>Lift,<span style='color:red'>Fail,<span style='color:green'>Lift","<span style='color:red'>Fail,<span style='color:red'>Fail,<span style='color:green'>Lift,<span style='color:green'>Lift,<span style='color:green'>Lift,<span style='color:green'>Lift,<span style='color:red'>Fail,<span style='color:green'>Lift,<span style='color:green'>Lift,<span style='color:green'>Lift,<span style='color:red'>Fail,<span style='color:green'>Lift","<span style='color:red'>Fail,<span style='color:green'>Lift,<span style='color:green'>Lift,<span style='color:red'>Fail,<span style='color:green'>Lift,<span style='color:green'>Lift","0,0,1,1,0,0,0,0,0,1,0,1","0,0,1,1,1,1,0,1,1,1,0,1","0,1,1,0,1,1",10,20,20,"","","<p style='font-size:30px'><b> New Contest! </b></p>","null","","",4,"",NA,NA,NA,NA,NA,NA,NA,NA,NA,NA,NA,NA,NA,NA,NA,NA,NA,NA,NA,NA,NA,NA,NA,NA,NA,NA,NA,NA,NA,NA,NA,NA,NA,NA,NA,NA,NA,NA,NA,NA,"",NA,NA,NA,NA,NA,NA,NA,NA,NA,2025-11-19 04:44:44
"16898.80000001192","https://psyc-201.github.io/xiang2023/exp/index1.html?PROLIFIC_PID=REDACTED&STUDY_ID=69168b21477cff9ada6cb980&SESSION_ID=691d4503fc50310430a752bc","survey-html-form",26,949816,"0.0-335.0","MP/HG8wdvE8V1K5b1eSx81Bnsf1Cdi+tx9SxBAA/Kcihfnn/+Y8XR5e/4gjSKb/OQgu3qEW5mo632t5ubYWjNUIYFrDVO7/Y4eWNpHoHkZ8K+08TiQOP7QNLzlV8Dq/8ljALgqI+TxMlBwtiIzttTKVB8uL8JAwocd2Iy6p0UeQNCQ3em5eTSzToQnFdcOAy9uFhVdx4qzFC0/PiqCKb2xM1JQCtySd4epxq4eDEr8rtl2wyaN0xRMF2E4lpEx7xRKUfz+gBMOAVBRxB6uAVHOEqqcnwJHc5vv5MaZ3TA92DXyOgIpb3hPBQy1/ZYip9LHFwEV2+WcG60/KI85sR/w==","69168b21477cff9ada6cb980","691d4503fc50310430a752bc","index1","<span style='color:red'>Fail,<span style='color:red'>Fail,<span style='color:green'>Lift,<span style='color:green'>Lift,<span style='color:red'>Fail,<span style='color:red'>Fail,<span style='color:red'>Fail,<span style='color:red'>Fail,<span style='color:red'>Fail,<span style='color:green'>Lift,<span style='color:red'>Fail,<span style='color:green'>Lift","<span style='color:red'>Fail,<span style='color:red'>Fail,<span style='color:green'>Lift,<span style='color:green'>Lift,<span style='color:green'>Lift,<span style='color:green'>Lift,<span style='color:red'>Fail,<span style='color:green'>Lift,<span style='color:green'>Lift,<span style='color:green'>Lift,<span style='color:red'>Fail,<span style='color:green'>Lift","<span style='color:red'>Fail,<span style='color:green'>Lift,<span style='color:green'>Lift,<span style='color:red'>Fail,<span style='color:green'>Lift,<span style='color:green'>Lift","0,0,1,1,0,0,0,0,0,1,0,1","0,0,1,1,1,1,0,1,1,1,0,1","0,1,1,0,1,1",10,20,20,"","","","","{""box1"":""6"",""box2"":""5""}","",4,"round1_outcome",1,4,1,6,5,NA,NA,0,0,10,6,5,NA,NA,0,0,10,NA,NA,NA,NA,NA,NA,NA,NA,NA,NA,NA,NA,NA,NA,NA,NA,NA,NA,NA,NA,NA,NA,NA,"",NA,NA,NA,NA,NA,NA,NA,NA,NA,2025-11-19 04:44:44
"16289.199999988079","https://psyc-201.github.io/xiang2023/exp/index1.html?PROLIFIC_PID=REDACTED&STUDY_ID=69168b21477cff9ada6cb980&SESSION_ID=691d4503fc50310430a752bc","survey-html-form",27,966108,"0.0-336.0","MP/HG8wdvE8V1K5b1eSx81Bnsf1Cdi+tx9SxBAA/Kcihfnn/+Y8XR5e/4gjSKb/OQgu3qEW5mo632t5ubYWjNUIYFrDVO7/Y4eWNpHoHkZ8K+08TiQOP7QNLzlV8Dq/8ljALgqI+TxMlBwtiIzttTKVB8uL8JAwocd2Iy6p0UeQNCQ3em5eTSzToQnFdcOAy9uFhVdx4qzFC0/PiqCKb2xM1JQCtySd4epxq4eDEr8rtl2wyaN0xRMF2E4lpEx7xRKUfz+gBMOAVBRxB6uAVHOEqqcnwJHc5vv5MaZ3TA92DXyOgIpb3hPBQy1/ZYip9LHFwEV2+WcG60/KI85sR/w==","69168b21477cff9ada6cb980","691d4503fc50310430a752bc","index1","<span style='color:red'>Fail,<span style='color:red'>Fail,<span style='color:green'>Lift,<span style='color:green'>Lift,<span style='color:red'>Fail,<span style='color:red'>Fail,<span style='color:red'>Fail,<span style='color:red'>Fail,<span style='color:red'>Fail,<span style='color:green'>Lift,<span style='color:red'>Fail,<span style='color:green'>Lift","<span style='color:red'>Fail,<span style='color:red'>Fail,<span style='color:green'>Lift,<span style='color:green'>Lift,<span style='color:green'>Lift,<span style='color:green'>Lift,<span style='color:red'>Fail,<span style='color:green'>Lift,<span style='color:green'>Lift,<span style='color:green'>Lift,<span style='color:red'>Fail,<span style='color:green'>Lift","<span style='color:red'>Fail,<span style='color:green'>Lift,<span style='color:green'>Lift,<span style='color:red'>Fail,<span style='color:green'>Lift,<span style='color:green'>Lift","0,0,1,1,0,0,0,0,0,1,0,1","0,0,1,1,1,1,0,1,1,1,0,1","0,1,1,0,1,1",10,20,20,"","","","","{""box1"":""45"",""box2"":""50""}","",4,"round2_ready",2,4,2,NA,NA,NA,NA,NA,NA,NA,NA,NA,NA,NA,NA,NA,NA,45,50,45,50,NA,NA,NA,NA,NA,NA,NA,NA,NA,NA,NA,NA,NA,NA,NA,NA,NA,NA,NA,"",NA,NA,NA,NA,NA,NA,NA,NA,NA,2025-11-19 04:44:44
"27558.09999999404","https://psyc-201.github.io/xiang2023/exp/index1.html?PROLIFIC_PID=REDACTED&STUDY_ID=69168b21477cff9ada6cb980&SESSION_ID=691d4503fc50310430a752bc","survey-html-form",28,993669,"0.0-337.0","MP/HG8wdvE8V1K5b1eSx81Bnsf1Cdi+tx9SxBAA/Kcihfnn/+Y8XR5e/4gjSKb/OQgu3qEW5mo632t5ubYWjNUIYFrDVO7/Y4eWNpHoHkZ8K+08TiQOP7QNLzlV8Dq/8ljALgqI+TxMlBwtiIzttTKVB8uL8JAwocd2Iy6p0UeQNCQ3em5eTSzToQnFdcOAy9uFhVdx4qzFC0/PiqCKb2xM1JQCtySd4epxq4eDEr8rtl2wyaN0xRMF2E4lpEx7xRKUfz+gBMOAVBRxB6uAVHOEqqcnwJHc5vv5MaZ3TA92DXyOgIpb3hPBQy1/ZYip9LHFwEV2+WcG60/KI85sR/w==","69168b21477cff9ada6cb980","691d4503fc50310430a752bc","index1","<span style='color:red'>Fail,<span style='color:red'>Fail,<span style='color:green'>Lift,<span style='color:green'>Lift,<span style='color:red'>Fail,<span style='color:red'>Fail,<span style='color:red'>Fail,<span style='color:red'>Fail,<span style='color:red'>Fail,<span style='color:green'>Lift,<span style='color:red'>Fail,<span style='color:green'>Lift","<span style='color:red'>Fail,<span style='color:red'>Fail,<span style='color:green'>Lift,<span style='color:green'>Lift,<span style='color:green'>Lift,<span style='color:green'>Lift,<span style='color:red'>Fail,<span style='color:green'>Lift,<span style='color:green'>Lift,<span style='color:green'>Lift,<span style='color:red'>Fail,<span style='color:green'>Lift","<span style='color:red'>Fail,<span style='color:green'>Lift,<span style='color:green'>Lift,<span style='color:red'>Fail,<span style='color:green'>Lift,<span style='color:green'>Lift","0,0,1,1,0,0,0,0,0,1,0,1","0,0,1,1,1,1,0,1,1,1,0,1","0,1,1,0,1,1",10,20,20,"","","","","{""box1"":""2"",""box2"":""6"",""box4"":""90""}","",4,"round2_outcome",3,4,2,2,6,NA,90,0,1,20,NA,NA,NA,NA,NA,NA,NA,NA,NA,NA,NA,2,6,NA,90,0,1,20,NA,NA,NA,NA,NA,NA,NA,NA,NA,NA,NA,NA,"",NA,NA,NA,NA,NA,NA,NA,NA,NA,2025-11-19 04:44:44
"18856.70000001788","https://psyc-201.github.io/xiang2023/exp/index1.html?PROLIFIC_PID=REDACTED&STUDY_ID=69168b21477cff9ada6cb980&SESSION_ID=691d4503fc50310430a752bc","survey-html-form",29,1012530,"0.0-338.0","MP/HG8wdvE8V1K5b1eSx81Bnsf1Cdi+tx9SxBAA/Kcihfnn/+Y8XR5e/4gjSKb/OQgu3qEW5mo632t5ubYWjNUIYFrDVO7/Y4eWNpHoHkZ8K+08TiQOP7QNLzlV8Dq/8ljALgqI+TxMlBwtiIzttTKVB8uL8JAwocd2Iy6p0UeQNCQ3em5eTSzToQnFdcOAy9uFhVdx4qzFC0/PiqCKb2xM1JQCtySd4epxq4eDEr8rtl2wyaN0xRMF2E4lpEx7xRKUfz+gBMOAVBRxB6uAVHOEqqcnwJHc5vv5MaZ3TA92DXyOgIpb3hPBQy1/ZYip9LHFwEV2+WcG60/KI85sR/w==","69168b21477cff9ada6cb980","691d4503fc50310430a752bc","index1","<span style='color:red'>Fail,<span style='color:red'>Fail,<span style='color:green'>Lift,<span style='color:green'>Lift,<span style='color:red'>Fail,<span style='color:red'>Fail,<span style='color:red'>Fail,<span style='color:red'>Fail,<span style='color:red'>Fail,<span style='color:green'>Lift,<span style='color:red'>Fail,<span style='color:green'>Lift","<span style='color:red'>Fail,<span style='color:red'>Fail,<span style='color:green'>Lift,<span style='color:green'>Lift,<span style='color:green'>Lift,<span style='color:green'>Lift,<span style='color:red'>Fail,<span style='color:green'>Lift,<span style='color:green'>Lift,<span style='color:green'>Lift,<span style='color:red'>Fail,<span style='color:green'>Lift","<span style='color:red'>Fail,<span style='color:green'>Lift,<span style='color:green'>Lift,<span style='color:red'>Fail,<span style='color:green'>Lift,<span style='color:green'>Lift","0,0,1,1,0,0,0,0,0,1,0,1","0,0,1,1,1,1,0,1,1,1,0,1","0,1,1,0,1,1",10,20,20,"","","","","{""box1"":""42""}","",4,"round3_ready",4,4,3,NA,NA,NA,NA,NA,NA,NA,NA,NA,NA,NA,NA,NA,NA,42,42,NA,NA,NA,NA,NA,NA,NA,NA,NA,42,42,NA,NA,NA,NA,NA,NA,NA,NA,NA,NA,"",NA,NA,NA,NA,NA,NA,NA,NA,NA,2025-11-19 04:44:44
"35111.59999999404","https://psyc-201.github.io/xiang2023/exp/index1.html?PROLIFIC_PID=REDACTED&STUDY_ID=69168b21477cff9ada6cb980&SESSION_ID=691d4503fc50310430a752bc","survey-html-form",30,1047646,"0.0-340.0-0.0","MP/HG8wdvE8V1K5b1eSx81Bnsf1Cdi+tx9SxBAA/Kcihfnn/+Y8XR5e/4gjSKb/OQgu3qEW5mo632t5ubYWjNUIYFrDVO7/Y4eWNpHoHkZ8K+08TiQOP7QNLzlV8Dq/8ljALgqI+TxMlBwtiIzttTKVB8uL8JAwocd2Iy6p0UeQNCQ3em5eTSzToQnFdcOAy9uFhVdx4qzFC0/PiqCKb2xM1JQCtySd4epxq4eDEr8rtl2wyaN0xRMF2E4lpEx7xRKUfz+gBMOAVBRxB6uAVHOEqqcnwJHc5vv5MaZ3TA92DXyOgIpb3hPBQy1/ZYip9LHFwEV2+WcG60/KI85sR/w==","69168b21477cff9ada6cb980","691d4503fc50310430a752bc","index1","<span style='color:red'>Fail,<span style='color:red'>Fail,<span style='color:green'>Lift,<span style='color:green'>Lift,<span style='color:red'>Fail,<span style='color:red'>Fail,<span style='color:red'>Fail,<span style='color:red'>Fail,<span style='color:red'>Fail,<span style='color:green'>Lift,<span style='color:red'>Fail,<span style='color:green'>Lift","<span style='color:red'>Fail,<span style='color:red'>Fail,<span style='color:green'>Lift,<span style='color:green'>Lift,<span style='color:green'>Lift,<span style='color:green'>Lift,<span style='color:red'>Fail,<span style='color:green'>Lift,<span style='color:green'>Lift,<span style='color:green'>Lift,<span style='color:red'>Fail,<span style='color:green'>Lift","<span style='color:red'>Fail,<span style='color:green'>Lift,<span style='color:green'>Lift,<span style='color:red'>Fail,<span style='color:green'>Lift,<span style='color:green'>Lift","0,0,1,1,0,0,0,0,0,1,0,1","0,0,1,1,1,1,0,1,1,1,0,1","0,1,1,0,1,1",10,20,20,"","","","","{""box1"":""1"",""box2"":""4"",""box3"":""10"",""box4"":""20""}","",4,"round3_fail",5,4,3,1,4,NA,NA,0,0,20,NA,NA,NA,NA,NA,NA,NA,NA,NA,NA,NA,NA,NA,NA,NA,NA,NA,NA,NA,NA,1,4,NA,NA,0,0,20,0,1,NA,"",NA,NA,NA,NA,NA,NA,NA,NA,NA,2025-11-19 04:44:44
"null","https://psyc-201.github.io/xiang2023/exp/index1.html?PROLIFIC_PID=REDACTED&STUDY_ID=69168b21477cff9ada6cb980&SESSION_ID=691d4503fc50310430a752bc","html-keyboard-response",31,1052651,"0.0-341.0-0.0","MP/HG8wdvE8V1K5b1eSx81Bnsf1Cdi+tx9SxBAA/Kcihfnn/+Y8XR5e/4gjSKb/OQgu3qEW5mo632t5ubYWjNUIYFrDVO7/Y4eWNpHoHkZ8K+08TiQOP7QNLzlV8Dq/8ljALgqI+TxMlBwtiIzttTKVB8uL8JAwocd2Iy6p0UeQNCQ3em5eTSzToQnFdcOAy9uFhVdx4qzFC0/PiqCKb2xM1JQCtySd4epxq4eDEr8rtl2wyaN0xRMF2E4lpEx7xRKUfz+gBMOAVBRxB6uAVHOEqqcnwJHc5vv5MaZ3TA92DXyOgIpb3hPBQy1/ZYip9LHFwEV2+WcG60/KI85sR/w==","69168b21477cff9ada6cb980","691d4503fc50310430a752bc","index1","<span style='color:red'>Fail,<span style='color:red'>Fail,<span style='color:green'>Lift,<span style='color:green'>Lift,<span style='color:red'>Fail,<span style='color:red'>Fail,<span style='color:red'>Fail,<span style='color:red'>Fail,<span style='color:red'>Fail,<span style='color:green'>Lift,<span style='color:red'>Fail,<span style='color:green'>Lift","<span style='color:red'>Fail,<span style='color:red'>Fail,<span style='color:green'>Lift,<span style='color:green'>Lift,<span style='color:green'>Lift,<span style='color:green'>Lift,<span style='color:red'>Fail,<span style='color:green'>Lift,<span style='color:green'>Lift,<span style='color:green'>Lift,<span style='color:red'>Fail,<span style='color:green'>Lift","<span style='color:red'>Fail,<span style='color:green'>Lift,<span style='color:green'>Lift,<span style='color:red'>Fail,<span style='color:green'>Lift,<span style='color:green'>Lift","0,0,1,1,0,0,0,0,0,1,0,1","0,0,1,1,1,1,0,1,1,1,0,1","0,1,1,0,1,1",10,20,20,"","","<p> <b>Oops you failed an attention check!</b> </p><p> <b>We will have to discard your data if you fail another one.</b> </p><p> <b>Please pay more attention!</b> </p>","null","","",5,"warning",NA,NA,NA,NA,NA,NA,NA,NA,NA,NA,NA,NA,NA,NA,NA,NA,NA,NA,NA,NA,NA,NA,NA,NA,NA,NA,NA,NA,NA,NA,NA,NA,NA,NA,NA,NA,NA,NA,NA,1,"",NA,NA,NA,NA,NA,NA,NA,NA,NA,2025-11-19 04:44:44
"null","https://psyc-201.github.io/xiang2023/exp/index1.html?PROLIFIC_PID=REDACTED&STUDY_ID=69168b21477cff9ada6cb980&SESSION_ID=691d4503fc50310430a752bc","html-keyboard-response",32,1055653,"0.0-343.0","MP/HG8wdvE8V1K5b1eSx81Bnsf1Cdi+tx9SxBAA/Kcihfnn/+Y8XR5e/4gjSKb/OQgu3qEW5mo632t5ubYWjNUIYFrDVO7/Y4eWNpHoHkZ8K+08TiQOP7QNLzlV8Dq/8ljALgqI+TxMlBwtiIzttTKVB8uL8JAwocd2Iy6p0UeQNCQ3em5eTSzToQnFdcOAy9uFhVdx4qzFC0/PiqCKb2xM1JQCtySd4epxq4eDEr8rtl2wyaN0xRMF2E4lpEx7xRKUfz+gBMOAVBRxB6uAVHOEqqcnwJHc5vv5MaZ3TA92DXyOgIpb3hPBQy1/ZYip9LHFwEV2+WcG60/KI85sR/w==","69168b21477cff9ada6cb980","691d4503fc50310430a752bc","index1","<span style='color:red'>Fail,<span style='color:red'>Fail,<span style='color:green'>Lift,<span style='color:green'>Lift,<span style='color:red'>Fail,<span style='color:red'>Fail,<span style='color:red'>Fail,<span style='color:red'>Fail,<span style='color:red'>Fail,<span style='color:green'>Lift,<span style='color:red'>Fail,<span style='color:green'>Lift","<span style='color:red'>Fail,<span style='color:red'>Fail,<span style='color:green'>Lift,<span style='color:green'>Lift,<span style='color:green'>Lift,<span style='color:green'>Lift,<span style='color:red'>Fail,<span style='color:green'>Lift,<span style='color:green'>Lift,<span style='color:green'>Lift,<span style='color:red'>Fail,<span style='color:green'>Lift","<span style='color:red'>Fail,<span style='color:green'>Lift,<span style='color:green'>Lift,<span style='color:red'>Fail,<span style='color:green'>Lift,<span style='color:green'>Lift","0,0,1,1,0,0,0,0,0,1,0,1","0,0,1,1,1,1,0,1,1,1,0,1","0,1,1,0,1,1",10,20,20,"","","<p style='font-size:30px'><b> New Contest! </b></p>","null","","",5,"",NA,NA,NA,NA,NA,NA,NA,NA,NA,NA,NA,NA,NA,NA,NA,NA,NA,NA,NA,NA,NA,NA,NA,NA,NA,NA,NA,NA,NA,NA,NA,NA,NA,NA,NA,NA,NA,NA,NA,NA,"",NA,NA,NA,NA,NA,NA,NA,NA,NA,2025-11-19 04:44:44
"29199.69999998808","https://psyc-201.github.io/xiang2023/exp/index1.html?PROLIFIC_PID=REDACTED&STUDY_ID=69168b21477cff9ada6cb980&SESSION_ID=691d4503fc50310430a752bc","survey-html-form",33,1084855,"0.0-344.0","MP/HG8wdvE8V1K5b1eSx81Bnsf1Cdi+tx9SxBAA/Kcihfnn/+Y8XR5e/4gjSKb/OQgu3qEW5mo632t5ubYWjNUIYFrDVO7/Y4eWNpHoHkZ8K+08TiQOP7QNLzlV8Dq/8ljALgqI+TxMlBwtiIzttTKVB8uL8JAwocd2Iy6p0UeQNCQ3em5eTSzToQnFdcOAy9uFhVdx4qzFC0/PiqCKb2xM1JQCtySd4epxq4eDEr8rtl2wyaN0xRMF2E4lpEx7xRKUfz+gBMOAVBRxB6uAVHOEqqcnwJHc5vv5MaZ3TA92DXyOgIpb3hPBQy1/ZYip9LHFwEV2+WcG60/KI85sR/w==","69168b21477cff9ada6cb980","691d4503fc50310430a752bc","index1","<span style='color:red'>Fail,<span style='color:red'>Fail,<span style='color:green'>Lift,<span style='color:green'>Lift,<span style='color:red'>Fail,<span style='color:red'>Fail,<span style='color:red'>Fail,<span style='color:red'>Fail,<span style='color:red'>Fail,<span style='color:green'>Lift,<span style='color:red'>Fail,<span style='color:green'>Lift","<span style='color:red'>Fail,<span style='color:red'>Fail,<span style='color:green'>Lift,<span style='color:green'>Lift,<span style='color:green'>Lift,<span style='color:green'>Lift,<span style='color:red'>Fail,<span style='color:green'>Lift,<span style='color:green'>Lift,<span style='color:green'>Lift,<span style='color:red'>Fail,<span style='color:green'>Lift","<span style='color:red'>Fail,<span style='color:green'>Lift,<span style='color:green'>Lift,<span style='color:red'>Fail,<span style='color:green'>Lift,<span style='color:green'>Lift","0,0,1,1,0,0,0,0,0,1,0,1","0,0,1,1,1,1,0,1,1,1,0,1","0,1,1,0,1,1",10,20,20,"","","","","{""box1"":""4"",""box2"":""4""}","",5,"round1_outcome",1,5,1,4,4,NA,NA,0,0,10,4,4,NA,NA,0,0,10,NA,NA,NA,NA,NA,NA,NA,NA,NA,NA,NA,NA,NA,NA,NA,NA,NA,NA,NA,NA,NA,NA,NA,"",NA,NA,NA,NA,NA,NA,NA,NA,NA,2025-11-19 04:44:44
"31607.09999999404","https://psyc-201.github.io/xiang2023/exp/index1.html?PROLIFIC_PID=REDACTED&STUDY_ID=69168b21477cff9ada6cb980&SESSION_ID=691d4503fc50310430a752bc","survey-html-form",34,1116464,"0.0-345.0","MP/HG8wdvE8V1K5b1eSx81Bnsf1Cdi+tx9SxBAA/Kcihfnn/+Y8XR5e/4gjSKb/OQgu3qEW5mo632t5ubYWjNUIYFrDVO7/Y4eWNpHoHkZ8K+08TiQOP7QNLzlV8Dq/8ljALgqI+TxMlBwtiIzttTKVB8uL8JAwocd2Iy6p0UeQNCQ3em5eTSzToQnFdcOAy9uFhVdx4qzFC0/PiqCKb2xM1JQCtySd4epxq4eDEr8rtl2wyaN0xRMF2E4lpEx7xRKUfz+gBMOAVBRxB6uAVHOEqqcnwJHc5vv5MaZ3TA92DXyOgIpb3hPBQy1/ZYip9LHFwEV2+WcG60/KI85sR/w==","69168b21477cff9ada6cb980","691d4503fc50310430a752bc","index1","<span style='color:red'>Fail,<span style='color:red'>Fail,<span style='color:green'>Lift,<span style='color:green'>Lift,<span style='color:red'>Fail,<span style='color:red'>Fail,<span style='color:red'>Fail,<span style='color:red'>Fail,<span style='color:red'>Fail,<span style='color:green'>Lift,<span style='color:red'>Fail,<span style='color:green'>Lift","<span style='color:red'>Fail,<span style='color:red'>Fail,<span style='color:green'>Lift,<span style='color:green'>Lift,<span style='color:green'>Lift,<span style='color:green'>Lift,<span style='color:red'>Fail,<span style='color:green'>Lift,<span style='color:green'>Lift,<span style='color:green'>Lift,<span style='color:red'>Fail,<span style='color:green'>Lift","<span style='color:red'>Fail,<span style='color:green'>Lift,<span style='color:green'>Lift,<span style='color:red'>Fail,<span style='color:green'>Lift,<span style='color:green'>Lift","0,0,1,1,0,0,0,0,0,1,0,1","0,0,1,1,1,1,0,1,1,1,0,1","0,1,1,0,1,1",10,20,20,"","","","","{""box1"":""20"",""box2"":""20""}","",5,"round2_ready",2,5,2,NA,NA,NA,NA,NA,NA,NA,NA,NA,NA,NA,NA,NA,NA,20,20,20,20,NA,NA,NA,NA,NA,NA,NA,NA,NA,NA,NA,NA,NA,NA,NA,NA,NA,NA,NA,"",NA,NA,NA,NA,NA,NA,NA,NA,NA,2025-11-19 04:44:44
"15537.90000000596","https://psyc-201.github.io/xiang2023/exp/index1.html?PROLIFIC_PID=REDACTED&STUDY_ID=69168b21477cff9ada6cb980&SESSION_ID=691d4503fc50310430a752bc","survey-html-form",35,1132005,"0.0-346.0","MP/HG8wdvE8V1K5b1eSx81Bnsf1Cdi+tx9SxBAA/Kcihfnn/+Y8XR5e/4gjSKb/OQgu3qEW5mo632t5ubYWjNUIYFrDVO7/Y4eWNpHoHkZ8K+08TiQOP7QNLzlV8Dq/8ljALgqI+TxMlBwtiIzttTKVB8uL8JAwocd2Iy6p0UeQNCQ3em5eTSzToQnFdcOAy9uFhVdx4qzFC0/PiqCKb2xM1JQCtySd4epxq4eDEr8rtl2wyaN0xRMF2E4lpEx7xRKUfz+gBMOAVBRxB6uAVHOEqqcnwJHc5vv5MaZ3TA92DXyOgIpb3hPBQy1/ZYip9LHFwEV2+WcG60/KI85sR/w==","69168b21477cff9ada6cb980","691d4503fc50310430a752bc","index1","<span style='color:red'>Fail,<span style='color:red'>Fail,<span style='color:green'>Lift,<span style='color:green'>Lift,<span style='color:red'>Fail,<span style='color:red'>Fail,<span style='color:red'>Fail,<span style='color:red'>Fail,<span style='color:red'>Fail,<span style='color:green'>Lift,<span style='color:red'>Fail,<span style='color:green'>Lift","<span style='color:red'>Fail,<span style='color:red'>Fail,<span style='color:green'>Lift,<span style='color:green'>Lift,<span style='color:green'>Lift,<span style='color:green'>Lift,<span style='color:red'>Fail,<span style='color:green'>Lift,<span style='color:green'>Lift,<span style='color:green'>Lift,<span style='color:red'>Fail,<span style='color:green'>Lift","<span style='color:red'>Fail,<span style='color:green'>Lift,<span style='color:green'>Lift,<span style='color:red'>Fail,<span style='color:green'>Lift,<span style='color:green'>Lift","0,0,1,1,0,0,0,0,0,1,0,1","0,0,1,1,1,1,0,1,1,1,0,1","0,1,1,0,1,1",10,20,20,"","","","","{""box1"":""1"",""box2"":""1""}","",5,"round2_outcome",3,5,2,1,1,NA,NA,0,0,20,NA,NA,NA,NA,NA,NA,NA,NA,NA,NA,NA,1,1,NA,NA,0,0,20,NA,NA,NA,NA,NA,NA,NA,NA,NA,NA,NA,NA,"",NA,NA,NA,NA,NA,NA,NA,NA,NA,2025-11-19 04:44:44
"10438.300000011921","https://psyc-201.github.io/xiang2023/exp/index1.html?PROLIFIC_PID=REDACTED&STUDY_ID=69168b21477cff9ada6cb980&SESSION_ID=691d4503fc50310430a752bc","survey-html-form",36,1142446,"0.0-347.0","MP/HG8wdvE8V1K5b1eSx81Bnsf1Cdi+tx9SxBAA/Kcihfnn/+Y8XR5e/4gjSKb/OQgu3qEW5mo632t5ubYWjNUIYFrDVO7/Y4eWNpHoHkZ8K+08TiQOP7QNLzlV8Dq/8ljALgqI+TxMlBwtiIzttTKVB8uL8JAwocd2Iy6p0UeQNCQ3em5eTSzToQnFdcOAy9uFhVdx4qzFC0/PiqCKb2xM1JQCtySd4epxq4eDEr8rtl2wyaN0xRMF2E4lpEx7xRKUfz+gBMOAVBRxB6uAVHOEqqcnwJHc5vv5MaZ3TA92DXyOgIpb3hPBQy1/ZYip9LHFwEV2+WcG60/KI85sR/w==","69168b21477cff9ada6cb980","691d4503fc50310430a752bc","index1","<span style='color:red'>Fail,<span style='color:red'>Fail,<span style='color:green'>Lift,<span style='color:green'>Lift,<span style='color:red'>Fail,<span style='color:red'>Fail,<span style='color:red'>Fail,<span style='color:red'>Fail,<span style='color:red'>Fail,<span style='color:green'>Lift,<span style='color:red'>Fail,<span style='color:green'>Lift","<span style='color:red'>Fail,<span style='color:red'>Fail,<span style='color:green'>Lift,<span style='color:green'>Lift,<span style='color:green'>Lift,<span style='color:green'>Lift,<span style='color:red'>Fail,<span style='color:green'>Lift,<span style='color:green'>Lift,<span style='color:green'>Lift,<span style='color:red'>Fail,<span style='color:green'>Lift","<span style='color:red'>Fail,<span style='color:green'>Lift,<span style='color:green'>Lift,<span style='color:red'>Fail,<span style='color:green'>Lift,<span style='color:green'>Lift","0,0,1,1,0,0,0,0,0,1,0,1","0,0,1,1,1,1,0,1,1,1,0,1","0,1,1,0,1,1",10,20,20,"","","","","{""box1"":""0""}","",5,"round3_ready",4,5,3,NA,NA,NA,NA,NA,NA,NA,NA,NA,NA,NA,NA,NA,NA,0,0,NA,NA,NA,NA,NA,NA,NA,NA,NA,0,0,NA,NA,NA,NA,NA,NA,NA,NA,NA,NA,"",NA,NA,NA,NA,NA,NA,NA,NA,NA,2025-11-19 04:44:44
"28600.80000001192","https://psyc-201.github.io/xiang2023/exp/index1.html?PROLIFIC_PID=REDACTED&STUDY_ID=69168b21477cff9ada6cb980&SESSION_ID=691d4503fc50310430a752bc","survey-html-form",37,1171051,"0.0-349.0-0.0","MP/HG8wdvE8V1K5b1eSx81Bnsf1Cdi+tx9SxBAA/Kcihfnn/+Y8XR5e/4gjSKb/OQgu3qEW5mo632t5ubYWjNUIYFrDVO7/Y4eWNpHoHkZ8K+08TiQOP7QNLzlV8Dq/8ljALgqI+TxMlBwtiIzttTKVB8uL8JAwocd2Iy6p0UeQNCQ3em5eTSzToQnFdcOAy9uFhVdx4qzFC0/PiqCKb2xM1JQCtySd4epxq4eDEr8rtl2wyaN0xRMF2E4lpEx7xRKUfz+gBMOAVBRxB6uAVHOEqqcnwJHc5vv5MaZ3TA92DXyOgIpb3hPBQy1/ZYip9LHFwEV2+WcG60/KI85sR/w==","69168b21477cff9ada6cb980","691d4503fc50310430a752bc","index1","<span style='color:red'>Fail,<span style='color:red'>Fail,<span style='color:green'>Lift,<span style='color:green'>Lift,<span style='color:red'>Fail,<span style='color:red'>Fail,<span style='color:red'>Fail,<span style='color:red'>Fail,<span style='color:red'>Fail,<span style='color:green'>Lift,<span style='color:red'>Fail,<span style='color:green'>Lift","<span style='color:red'>Fail,<span style='color:red'>Fail,<span style='color:green'>Lift,<span style='color:green'>Lift,<span style='color:green'>Lift,<span style='color:green'>Lift,<span style='color:red'>Fail,<span style='color:green'>Lift,<span style='color:green'>Lift,<span style='color:green'>Lift,<span style='color:red'>Fail,<span style='color:green'>Lift","<span style='color:red'>Fail,<span style='color:green'>Lift,<span style='color:green'>Lift,<span style='color:red'>Fail,<span style='color:green'>Lift,<span style='color:green'>Lift","0,0,1,1,0,0,0,0,0,1,0,1","0,0,1,1,1,1,0,1,1,1,0,1","0,1,1,0,1,1",10,20,20,"","","","","{""box1"":""1"",""box2"":""1"",""box3"":""999"",""box4"":""999""}","",6,"round3_fail",5,5,3,1,1,NA,NA,0,0,20,NA,NA,NA,NA,NA,NA,NA,NA,NA,NA,NA,NA,NA,NA,NA,NA,NA,NA,NA,NA,1,1,NA,NA,0,0,20,1,1,NA,"",NA,NA,NA,NA,NA,NA,NA,NA,NA,2025-11-19 04:44:44
"null","https://psyc-201.github.io/xiang2023/exp/index1.html?PROLIFIC_PID=REDACTED&STUDY_ID=69168b21477cff9ada6cb980&SESSION_ID=691d4503fc50310430a752bc","html-keyboard-response",38,1174054,"0.0-352.0","MP/HG8wdvE8V1K5b1eSx81Bnsf1Cdi+tx9SxBAA/Kcihfnn/+Y8XR5e/4gjSKb/OQgu3qEW5mo632t5ubYWjNUIYFrDVO7/Y4eWNpHoHkZ8K+08TiQOP7QNLzlV8Dq/8ljALgqI+TxMlBwtiIzttTKVB8uL8JAwocd2Iy6p0UeQNCQ3em5eTSzToQnFdcOAy9uFhVdx4qzFC0/PiqCKb2xM1JQCtySd4epxq4eDEr8rtl2wyaN0xRMF2E4lpEx7xRKUfz+gBMOAVBRxB6uAVHOEqqcnwJHc5vv5MaZ3TA92DXyOgIpb3hPBQy1/ZYip9LHFwEV2+WcG60/KI85sR/w==","69168b21477cff9ada6cb980","691d4503fc50310430a752bc","index1","<span style='color:red'>Fail,<span style='color:red'>Fail,<span style='color:green'>Lift,<span style='color:green'>Lift,<span style='color:red'>Fail,<span style='color:red'>Fail,<span style='color:red'>Fail,<span style='color:red'>Fail,<span style='color:red'>Fail,<span style='color:green'>Lift,<span style='color:red'>Fail,<span style='color:green'>Lift","<span style='color:red'>Fail,<span style='color:red'>Fail,<span style='color:green'>Lift,<span style='color:green'>Lift,<span style='color:green'>Lift,<span style='color:green'>Lift,<span style='color:red'>Fail,<span style='color:green'>Lift,<span style='color:green'>Lift,<span style='color:green'>Lift,<span style='color:red'>Fail,<span style='color:green'>Lift","<span style='color:red'>Fail,<span style='color:green'>Lift,<span style='color:green'>Lift,<span style='color:red'>Fail,<span style='color:green'>Lift,<span style='color:green'>Lift","0,0,1,1,0,0,0,0,0,1,0,1","0,0,1,1,1,1,0,1,1,1,0,1","0,1,1,0,1,1",10,20,20,"","","<p style='font-size:30px'><b> New Contest! </b></p>","null","","",6,"",NA,NA,NA,NA,NA,NA,NA,NA,NA,NA,NA,NA,NA,NA,NA,NA,NA,NA,NA,NA,NA,NA,NA,NA,NA,NA,NA,NA,NA,NA,NA,NA,NA,NA,NA,NA,NA,NA,NA,NA,"",NA,NA,NA,NA,NA,NA,NA,NA,NA,2025-11-19 04:44:44
"31576","https://psyc-201.github.io/xiang2023/exp/index1.html?PROLIFIC_PID=REDACTED&STUDY_ID=69168b21477cff9ada6cb980&SESSION_ID=691d4503fc50310430a752bc","survey-html-form",39,1205634,"0.0-353.0","MP/HG8wdvE8V1K5b1eSx81Bnsf1Cdi+tx9SxBAA/Kcihfnn/+Y8XR5e/4gjSKb/OQgu3qEW5mo632t5ubYWjNUIYFrDVO7/Y4eWNpHoHkZ8K+08TiQOP7QNLzlV8Dq/8ljALgqI+TxMlBwtiIzttTKVB8uL8JAwocd2Iy6p0UeQNCQ3em5eTSzToQnFdcOAy9uFhVdx4qzFC0/PiqCKb2xM1JQCtySd4epxq4eDEr8rtl2wyaN0xRMF2E4lpEx7xRKUfz+gBMOAVBRxB6uAVHOEqqcnwJHc5vv5MaZ3TA92DXyOgIpb3hPBQy1/ZYip9LHFwEV2+WcG60/KI85sR/w==","69168b21477cff9ada6cb980","691d4503fc50310430a752bc","index1","<span style='color:red'>Fail,<span style='color:red'>Fail,<span style='color:green'>Lift,<span style='color:green'>Lift,<span style='color:red'>Fail,<span style='color:red'>Fail,<span style='color:red'>Fail,<span style='color:red'>Fail,<span style='color:red'>Fail,<span style='color:green'>Lift,<span style='color:red'>Fail,<span style='color:green'>Lift","<span style='color:red'>Fail,<span style='color:red'>Fail,<span style='color:green'>Lift,<span style='color:green'>Lift,<span style='color:green'>Lift,<span style='color:green'>Lift,<span style='color:red'>Fail,<span style='color:green'>Lift,<span style='color:green'>Lift,<span style='color:green'>Lift,<span style='color:red'>Fail,<span style='color:green'>Lift","<span style='color:red'>Fail,<span style='color:green'>Lift,<span style='color:green'>Lift,<span style='color:red'>Fail,<span style='color:green'>Lift,<span style='color:green'>Lift","0,0,1,1,0,0,0,0,0,1,0,1","0,0,1,1,1,1,0,1,1,1,0,1","0,1,1,0,1,1",10,20,20,"","","","","{""box1"":""1"",""box2"":""5"",""box4"":""80""}","",6,"round1_outcome",1,6,1,1,5,NA,80,0,1,10,1,5,NA,80,0,1,10,NA,NA,NA,NA,NA,NA,NA,NA,NA,NA,NA,NA,NA,NA,NA,NA,NA,NA,NA,NA,NA,NA,NA,"",NA,NA,NA,NA,NA,NA,NA,NA,NA,2025-11-19 04:44:44
"26602.59999999404","https://psyc-201.github.io/xiang2023/exp/index1.html?PROLIFIC_PID=REDACTED&STUDY_ID=69168b21477cff9ada6cb980&SESSION_ID=691d4503fc50310430a752bc","survey-html-form",40,1232241,"0.0-354.0","MP/HG8wdvE8V1K5b1eSx81Bnsf1Cdi+tx9SxBAA/Kcihfnn/+Y8XR5e/4gjSKb/OQgu3qEW5mo632t5ubYWjNUIYFrDVO7/Y4eWNpHoHkZ8K+08TiQOP7QNLzlV8Dq/8ljALgqI+TxMlBwtiIzttTKVB8uL8JAwocd2Iy6p0UeQNCQ3em5eTSzToQnFdcOAy9uFhVdx4qzFC0/PiqCKb2xM1JQCtySd4epxq4eDEr8rtl2wyaN0xRMF2E4lpEx7xRKUfz+gBMOAVBRxB6uAVHOEqqcnwJHc5vv5MaZ3TA92DXyOgIpb3hPBQy1/ZYip9LHFwEV2+WcG60/KI85sR/w==","69168b21477cff9ada6cb980","691d4503fc50310430a752bc","index1","<span style='color:red'>Fail,<span style='color:red'>Fail,<span style='color:green'>Lift,<span style='color:green'>Lift,<span style='color:red'>Fail,<span style='color:red'>Fail,<span style='color:red'>Fail,<span style='color:red'>Fail,<span style='color:red'>Fail,<span style='color:green'>Lift,<span style='color:red'>Fail,<span style='color:green'>Lift","<span style='color:red'>Fail,<span style='color:red'>Fail,<span style='color:green'>Lift,<span style='color:green'>Lift,<span style='color:green'>Lift,<span style='color:green'>Lift,<span style='color:red'>Fail,<span style='color:green'>Lift,<span style='color:green'>Lift,<span style='color:green'>Lift,<span style='color:red'>Fail,<span style='color:green'>Lift","<span style='color:red'>Fail,<span style='color:green'>Lift,<span style='color:green'>Lift,<span style='color:red'>Fail,<span style='color:green'>Lift,<span style='color:green'>Lift","0,0,1,1,0,0,0,0,0,1,0,1","0,0,1,1,1,1,0,1,1,1,0,1","0,1,1,0,1,1",10,20,20,"","","","","{""box1"":""20"",""box2"":""100""}","",6,"round2_ready",2,6,2,NA,NA,NA,NA,NA,NA,NA,NA,NA,NA,NA,NA,NA,NA,20,100,20,100,NA,NA,NA,NA,NA,NA,NA,NA,NA,NA,NA,NA,NA,NA,NA,NA,NA,NA,NA,"",NA,NA,NA,NA,NA,NA,NA,NA,NA,2025-11-19 04:44:44
"45984.69999998808","https://psyc-201.github.io/xiang2023/exp/index1.html?PROLIFIC_PID=REDACTED&STUDY_ID=69168b21477cff9ada6cb980&SESSION_ID=691d4503fc50310430a752bc","survey-html-form",41,1278229,"0.0-355.0","MP/HG8wdvE8V1K5b1eSx81Bnsf1Cdi+tx9SxBAA/Kcihfnn/+Y8XR5e/4gjSKb/OQgu3qEW5mo632t5ubYWjNUIYFrDVO7/Y4eWNpHoHkZ8K+08TiQOP7QNLzlV8Dq/8ljALgqI+TxMlBwtiIzttTKVB8uL8JAwocd2Iy6p0UeQNCQ3em5eTSzToQnFdcOAy9uFhVdx4qzFC0/PiqCKb2xM1JQCtySd4epxq4eDEr8rtl2wyaN0xRMF2E4lpEx7xRKUfz+gBMOAVBRxB6uAVHOEqqcnwJHc5vv5MaZ3TA92DXyOgIpb3hPBQy1/ZYip9LHFwEV2+WcG60/KI85sR/w==","69168b21477cff9ada6cb980","691d4503fc50310430a752bc","index1","<span style='color:red'>Fail,<span style='color:red'>Fail,<span style='color:green'>Lift,<span style='color:green'>Lift,<span style='color:red'>Fail,<span style='color:red'>Fail,<span style='color:red'>Fail,<span style='color:red'>Fail,<span style='color:red'>Fail,<span style='color:green'>Lift,<span style='color:red'>Fail,<span style='color:green'>Lift","<span style='color:red'>Fail,<span style='color:red'>Fail,<span style='color:green'>Lift,<span style='color:green'>Lift,<span style='color:green'>Lift,<span style='color:green'>Lift,<span style='color:red'>Fail,<span style='color:green'>Lift,<span style='color:green'>Lift,<span style='color:green'>Lift,<span style='color:red'>Fail,<span style='color:green'>Lift","<span style='color:red'>Fail,<span style='color:green'>Lift,<span style='color:green'>Lift,<span style='color:red'>Fail,<span style='color:green'>Lift,<span style='color:green'>Lift","0,0,1,1,0,0,0,0,0,1,0,1","0,0,1,1,1,1,0,1,1,1,0,1","0,1,1,0,1,1",10,20,20,"","","","","{""box1"":""1"",""box2"":""9"",""box4"":""50""}","",6,"round2_outcome",3,6,2,1,9,NA,50,0,1,20,NA,NA,NA,NA,NA,NA,NA,NA,NA,NA,NA,1,9,NA,50,0,1,20,NA,NA,NA,NA,NA,NA,NA,NA,NA,NA,NA,NA,"",NA,NA,NA,NA,NA,NA,NA,NA,NA,2025-11-19 04:44:44
"18274.09999999404","https://psyc-201.github.io/xiang2023/exp/index1.html?PROLIFIC_PID=REDACTED&STUDY_ID=69168b21477cff9ada6cb980&SESSION_ID=691d4503fc50310430a752bc","survey-html-form",42,1296506,"0.0-356.0","MP/HG8wdvE8V1K5b1eSx81Bnsf1Cdi+tx9SxBAA/Kcihfnn/+Y8XR5e/4gjSKb/OQgu3qEW5mo632t5ubYWjNUIYFrDVO7/Y4eWNpHoHkZ8K+08TiQOP7QNLzlV8Dq/8ljALgqI+TxMlBwtiIzttTKVB8uL8JAwocd2Iy6p0UeQNCQ3em5eTSzToQnFdcOAy9uFhVdx4qzFC0/PiqCKb2xM1JQCtySd4epxq4eDEr8rtl2wyaN0xRMF2E4lpEx7xRKUfz+gBMOAVBRxB6uAVHOEqqcnwJHc5vv5MaZ3TA92DXyOgIpb3hPBQy1/ZYip9LHFwEV2+WcG60/KI85sR/w==","69168b21477cff9ada6cb980","691d4503fc50310430a752bc","index1","<span style='color:red'>Fail,<span style='color:red'>Fail,<span style='color:green'>Lift,<span style='color:green'>Lift,<span style='color:red'>Fail,<span style='color:red'>Fail,<span style='color:red'>Fail,<span style='color:red'>Fail,<span style='color:red'>Fail,<span style='color:green'>Lift,<span style='color:red'>Fail,<span style='color:green'>Lift","<span style='color:red'>Fail,<span style='color:red'>Fail,<span style='color:green'>Lift,<span style='color:green'>Lift,<span style='color:green'>Lift,<span style='color:green'>Lift,<span style='color:red'>Fail,<span style='color:green'>Lift,<span style='color:green'>Lift,<span style='color:green'>Lift,<span style='color:red'>Fail,<span style='color:green'>Lift","<span style='color:red'>Fail,<span style='color:green'>Lift,<span style='color:green'>Lift,<span style='color:red'>Fail,<span style='color:green'>Lift,<span style='color:green'>Lift","0,0,1,1,0,0,0,0,0,1,0,1","0,0,1,1,1,1,0,1,1,1,0,1","0,1,1,0,1,1",10,20,20,"","","","","{""box1"":""20""}","",6,"round3_ready",4,6,3,NA,NA,NA,NA,NA,NA,NA,NA,NA,NA,NA,NA,NA,NA,20,20,NA,NA,NA,NA,NA,NA,NA,NA,NA,20,20,NA,NA,NA,NA,NA,NA,NA,NA,NA,NA,"",NA,NA,NA,NA,NA,NA,NA,NA,NA,2025-11-19 04:44:44
"34208.90000000596","https://psyc-201.github.io/xiang2023/exp/index1.html?PROLIFIC_PID=REDACTED&STUDY_ID=69168b21477cff9ada6cb980&SESSION_ID=691d4503fc50310430a752bc","survey-html-form",43,1330719,"0.0-357.0-0.0","MP/HG8wdvE8V1K5b1eSx81Bnsf1Cdi+tx9SxBAA/Kcihfnn/+Y8XR5e/4gjSKb/OQgu3qEW5mo632t5ubYWjNUIYFrDVO7/Y4eWNpHoHkZ8K+08TiQOP7QNLzlV8Dq/8ljALgqI+TxMlBwtiIzttTKVB8uL8JAwocd2Iy6p0UeQNCQ3em5eTSzToQnFdcOAy9uFhVdx4qzFC0/PiqCKb2xM1JQCtySd4epxq4eDEr8rtl2wyaN0xRMF2E4lpEx7xRKUfz+gBMOAVBRxB6uAVHOEqqcnwJHc5vv5MaZ3TA92DXyOgIpb3hPBQy1/ZYip9LHFwEV2+WcG60/KI85sR/w==","69168b21477cff9ada6cb980","691d4503fc50310430a752bc","index1","<span style='color:red'>Fail,<span style='color:red'>Fail,<span style='color:green'>Lift,<span style='color:green'>Lift,<span style='color:red'>Fail,<span style='color:red'>Fail,<span style='color:red'>Fail,<span style='color:red'>Fail,<span style='color:red'>Fail,<span style='color:green'>Lift,<span style='color:red'>Fail,<span style='color:green'>Lift","<span style='color:red'>Fail,<span style='color:red'>Fail,<span style='color:green'>Lift,<span style='color:green'>Lift,<span style='color:green'>Lift,<span style='color:green'>Lift,<span style='color:red'>Fail,<span style='color:green'>Lift,<span style='color:green'>Lift,<span style='color:green'>Lift,<span style='color:red'>Fail,<span style='color:green'>Lift","<span style='color:red'>Fail,<span style='color:green'>Lift,<span style='color:green'>Lift,<span style='color:red'>Fail,<span style='color:green'>Lift,<span style='color:green'>Lift","0,0,1,1,0,0,0,0,0,1,0,1","0,0,1,1,1,1,0,1,1,1,0,1","0,1,1,0,1,1",10,20,20,"","","","","{""box1"":""2"",""box2"":""10"",""box3"":""15"",""box4"":""65""}","",6,"round3_lift",5,6,3,2,10,15,65,1,1,20,NA,NA,NA,NA,NA,NA,NA,NA,NA,NA,NA,NA,NA,NA,NA,NA,NA,NA,NA,NA,2,10,15,65,1,1,20,NA,NA,NA,"",NA,NA,NA,NA,NA,NA,NA,NA,NA,2025-11-19 04:44:44
"92199.59999999404","https://psyc-201.github.io/xiang2023/exp/index1.html?PROLIFIC_PID=REDACTED&STUDY_ID=69168b21477cff9ada6cb980&SESSION_ID=691d4503fc50310430a752bc","survey-text",44,1422923,"0.0-361.0","MP/HG8wdvE8V1K5b1eSx81Bnsf1Cdi+tx9SxBAA/Kcihfnn/+Y8XR5e/4gjSKb/OQgu3qEW5mo632t5ubYWjNUIYFrDVO7/Y4eWNpHoHkZ8K+08TiQOP7QNLzlV8Dq/8ljALgqI+TxMlBwtiIzttTKVB8uL8JAwocd2Iy6p0UeQNCQ3em5eTSzToQnFdcOAy9uFhVdx4qzFC0/PiqCKb2xM1JQCtySd4epxq4eDEr8rtl2wyaN0xRMF2E4lpEx7xRKUfz+gBMOAVBRxB6uAVHOEqqcnwJHc5vv5MaZ3TA92DXyOgIpb3hPBQy1/ZYip9LHFwEV2+WcG60/KI85sR/w==","69168b21477cff9ada6cb980","691d4503fc50310430a752bc","index1","<span style='color:red'>Fail,<span style='color:red'>Fail,<span style='color:green'>Lift,<span style='color:green'>Lift,<span style='color:red'>Fail,<span style='color:red'>Fail,<span style='color:red'>Fail,<span style='color:red'>Fail,<span style='color:red'>Fail,<span style='color:green'>Lift,<span style='color:red'>Fail,<span style='color:green'>Lift","<span style='color:red'>Fail,<span style='color:red'>Fail,<span style='color:green'>Lift,<span style='color:green'>Lift,<span style='color:green'>Lift,<span style='color:green'>Lift,<span style='color:red'>Fail,<span style='color:green'>Lift,<span style='color:green'>Lift,<span style='color:green'>Lift,<span style='color:red'>Fail,<span style='color:green'>Lift","<span style='color:red'>Fail,<span style='color:green'>Lift,<span style='color:green'>Lift,<span style='color:red'>Fail,<span style='color:green'>Lift,<span style='color:green'>Lift","0,0,1,1,0,0,0,0,0,1,0,1","0,0,1,1,1,1,0,1,1,1,0,1","0,1,1,0,1,1",10,20,20,"","","","","{""Q0"":""I have been making guesses as to how strong the contestants are. I have chosen on a scale of 1-10 their perceived strength and assigned a percentage to their effort at lifting the box.""}","",NA,"",NA,NA,NA,NA,NA,NA,NA,NA,NA,NA,NA,NA,NA,NA,NA,NA,NA,NA,NA,NA,NA,NA,NA,NA,NA,NA,NA,NA,NA,NA,NA,NA,NA,NA,NA,NA,NA,NA,NA,NA,"",NA,NA,NA,NA,NA,NA,NA,NA,NA,2025-11-19 04:44:44
"124256.20000001788","https://psyc-201.github.io/xiang2023/exp/index1.html?PROLIFIC_PID=REDACTED&STUDY_ID=69168b21477cff9ada6cb980&SESSION_ID=691d4503fc50310430a752bc","survey-text",45,1547183,"0.0-362.0","MP/HG8wdvE8V1K5b1eSx81Bnsf1Cdi+tx9SxBAA/Kcihfnn/+Y8XR5e/4gjSKb/OQgu3qEW5mo632t5ubYWjNUIYFrDVO7/Y4eWNpHoHkZ8K+08TiQOP7QNLzlV8Dq/8ljALgqI+TxMlBwtiIzttTKVB8uL8JAwocd2Iy6p0UeQNCQ3em5eTSzToQnFdcOAy9uFhVdx4qzFC0/PiqCKb2xM1JQCtySd4epxq4eDEr8rtl2wyaN0xRMF2E4lpEx7xRKUfz+gBMOAVBRxB6uAVHOEqqcnwJHc5vv5MaZ3TA92DXyOgIpb3hPBQy1/ZYip9LHFwEV2+WcG60/KI85sR/w==","69168b21477cff9ada6cb980","691d4503fc50310430a752bc","index1","<span style='color:red'>Fail,<span style='color:red'>Fail,<span style='color:green'>Lift,<span style='color:green'>Lift,<span style='color:red'>Fail,<span style='color:red'>Fail,<span style='color:red'>Fail,<span style='color:red'>Fail,<span style='color:red'>Fail,<span style='color:green'>Lift,<span style='color:red'>Fail,<span style='color:green'>Lift","<span style='color:red'>Fail,<span style='color:red'>Fail,<span style='color:green'>Lift,<span style='color:green'>Lift,<span style='color:green'>Lift,<span style='color:green'>Lift,<span style='color:red'>Fail,<span style='color:green'>Lift,<span style='color:green'>Lift,<span style='color:green'>Lift,<span style='color:red'>Fail,<span style='color:green'>Lift","<span style='color:red'>Fail,<span style='color:green'>Lift,<span style='color:green'>Lift,<span style='color:red'>Fail,<span style='color:green'>Lift,<span style='color:green'>Lift","0,0,1,1,0,0,0,0,0,1,0,1","0,0,1,1,1,1,0,1,1,1,0,1","0,1,1,0,1,1",10,20,20,"","","","","{""Q0"":""I think it went very well, except that I apparently missed an attention check by being TOO focused on the percentages :( but I think the explanations and everything were clear and detailed and I had no issues in understanding the task.""}","",NA,"",NA,NA,NA,NA,NA,NA,NA,NA,NA,NA,NA,NA,NA,NA,NA,NA,NA,NA,NA,NA,NA,NA,NA,NA,NA,NA,NA,NA,NA,NA,NA,NA,NA,NA,NA,NA,NA,NA,NA,NA,"[{""event"":""fullscreenenter"",""trial"":1,""time"":98443}]",4,2,1,50,1,0.5,NA,NA,NA,2025-11-19 04:44:44
"13668.600000023842","https://psyc-201.github.io/xiang2023/exp/index1.html?PROLIFIC_PID=REDACTED&STUDY_ID=69168b21477cff9ada6cb980&SESSION_ID=691d4503fc50310430a752bc","html-button-response",46,1560855,"0.0-363.0","MP/HG8wdvE8V1K5b1eSx81Bnsf1Cdi+tx9SxBAA/Kcihfnn/+Y8XR5e/4gjSKb/OQgu3qEW5mo632t5ubYWjNUIYFrDVO7/Y4eWNpHoHkZ8K+08TiQOP7QNLzlV8Dq/8ljALgqI+TxMlBwtiIzttTKVB8uL8JAwocd2Iy6p0UeQNCQ3em5eTSzToQnFdcOAy9uFhVdx4qzFC0/PiqCKb2xM1JQCtySd4epxq4eDEr8rtl2wyaN0xRMF2E4lpEx7xRKUfz+gBMOAVBRxB6uAVHOEqqcnwJHc5vv5MaZ3TA92DXyOgIpb3hPBQy1/ZYip9LHFwEV2+WcG60/KI85sR/w==","69168b21477cff9ada6cb980","691d4503fc50310430a752bc","index1","<span style='color:red'>Fail,<span style='color:red'>Fail,<span style='color:green'>Lift,<span style='color:green'>Lift,<span style='color:red'>Fail,<span style='color:red'>Fail,<span style='color:red'>Fail,<span style='color:red'>Fail,<span style='color:red'>Fail,<span style='color:green'>Lift,<span style='color:red'>Fail,<span style='color:green'>Lift","<span style='color:red'>Fail,<span style='color:red'>Fail,<span style='color:green'>Lift,<span style='color:green'>Lift,<span style='color:green'>Lift,<span style='color:green'>Lift,<span style='color:red'>Fail,<span style='color:green'>Lift,<span style='color:green'>Lift,<span style='color:green'>Lift,<span style='color:red'>Fail,<span style='color:green'>Lift","<span style='color:red'>Fail,<span style='color:green'>Lift,<span style='color:green'>Lift,<span style='color:red'>Fail,<span style='color:green'>Lift,<span style='color:green'>Lift","0,0,1,1,0,0,0,0,0,1,0,1","0,0,1,1,1,1,0,1,1,1,0,1","0,1,1,0,1,1",10,20,20,"","","<p> We randomly picked <b>Contest 4, Round 2</b> to calculate your bonus. </p><p> The outcome of Contestant H on that round is <span style='color:green'>Lift</span>. </p><p> The probability you entered was 50. </p><p><b> You won a bonus of $0.50!</b></p><p> IMPORTANT: Please click 'Next' to complete the game.</p>","","","",NA,"",NA,NA,NA,NA,NA,NA,NA,NA,NA,NA,NA,NA,NA,NA,NA,NA,NA,NA,NA,NA,NA,NA,NA,NA,NA,NA,NA,NA,NA,NA,NA,NA,NA,NA,NA,NA,NA,NA,NA,NA,"",NA,NA,NA,NA,NA,NA,0,1,0,2025-11-19 04:44:44
