"rt","url","trial_type","trial_index","time_elapsed","internal_node_id","encryptedProlificId","studyId","sessionId","expIndex","round1_outcomes","round2_outcomes","round3_outcomes","round1_o","round2_o","round3_o","round1_reward","round2_reward","round3_reward","success","view_history","stimulus","key_press","responses","question_order","button_pressed","j","Stage","stage","contest","round","strength_a","strength_b","effort_a","effort_b","outcome_a","outcome_b","reward","r1_strength_a","r1_strength_b","r1_effort_a","r1_effort_b","r1_outcome_a","r1_outcome_b","r1_reward","probability_a","probability_b","r2_prob_a","r2_prob_b","r2_strength_a","r2_strength_b","r2_effort_a","r2_effort_b","r2_outcome_a","r2_outcome_b","r2_reward","r3_prob_a","r3_prob_b","attention_check","count","r3_strength_a","r3_strength_b","r3_outcome_a","r3_outcome_b","r3_reward","r3_effort_a","r3_effort_b","screen","pick_contest","pick_round","pick_side","trial_probability","trial_outcome","bonus","attention_sum","attention","datapipe_meta.attributes.date_modified"
"7836.299999982119","https://psyc-201.github.io/xiang2023/exp/index1.html?PROLIFIC_PID=REDACTED&STUDY_ID=691f8ca61c6b4dcbb0aeb5f4&SESSION_ID=691fbe931781ab827d249275","external-html",0,7884,"0.0-0.0","iyVIJ3469Z1JPsBW+Z9zGQlEdYzT2m1z2XDBuxEChmeBCo9L/n7fq28R2JrGchhn4+rT/tzWnYohsNztKedERQLsuu8hmvZwZ8m6CGmxS+/Kg4fvFaYURQUpSWguHrRxaxi0WbOMzKb4KakBmqmpx+gbHT4W54z621aF1LnkNr56Sa5i11Wn1D3r8OH/y9iA++xxzwvHkU5GvGn9BjxhNBHpRfGB+H2DkJY6unOi0YRcujxhBTgIAgS3ELmR6QlPQy9ERuDvT4Iss8o58IVElhyisFv7TCHCazQ0SYQ6r6Xpb38Mxi5PcD6JcOUh2NmidKK4MM0iY1r6oDeggHGUiQ==","691f8ca61c6b4dcbb0aeb5f4","691fbe931781ab827d249275","index1","<span style='color:red'>Fail,<span style='color:red'>Fail,<span style='color:green'>Lift,<span style='color:green'>Lift,<span style='color:red'>Fail,<span style='color:red'>Fail,<span style='color:red'>Fail,<span style='color:red'>Fail,<span style='color:red'>Fail,<span style='color:green'>Lift,<span style='color:green'>Lift,<span style='color:red'>Fail","<span style='color:red'>Fail,<span style='color:red'>Fail,<span style='color:green'>Lift,<span style='color:green'>Lift,<span style='color:green'>Lift,<span style='color:green'>Lift,<span style='color:green'>Lift,<span style='color:red'>Fail,<span style='color:green'>Lift,<span style='color:green'>Lift,<span style='color:green'>Lift,<span style='color:red'>Fail","<span style='color:red'>Fail,<span style='color:green'>Lift,<span style='color:green'>Lift,<span style='color:red'>Fail,<span style='color:green'>Lift,<span style='color:green'>Lift","0,0,1,1,0,0,0,0,0,1,1,0","0,0,1,1,1,1,1,0,1,1,1,0","0,1,1,0,1,1",10,20,20,"","","","","","",NA,NA,"",NA,NA,NA,NA,NA,NA,NA,NA,NA,NA,NA,NA,NA,NA,NA,NA,NA,NA,NA,NA,NA,NA,NA,NA,NA,NA,NA,NA,NA,NA,NA,NA,NA,NA,NA,NA,NA,NA,NA,"",NA,NA,NA,NA,NA,NA,NA,NA,2025-11-21 01:35:00
"","https://psyc-201.github.io/xiang2023/exp/index1.html?PROLIFIC_PID=REDACTED&STUDY_ID=691f8ca61c6b4dcbb0aeb5f4&SESSION_ID=691fbe931781ab827d249275","fullscreen",1,13277,"0.0-1.0","iyVIJ3469Z1JPsBW+Z9zGQlEdYzT2m1z2XDBuxEChmeBCo9L/n7fq28R2JrGchhn4+rT/tzWnYohsNztKedERQLsuu8hmvZwZ8m6CGmxS+/Kg4fvFaYURQUpSWguHrRxaxi0WbOMzKb4KakBmqmpx+gbHT4W54z621aF1LnkNr56Sa5i11Wn1D3r8OH/y9iA++xxzwvHkU5GvGn9BjxhNBHpRfGB+H2DkJY6unOi0YRcujxhBTgIAgS3ELmR6QlPQy9ERuDvT4Iss8o58IVElhyisFv7TCHCazQ0SYQ6r6Xpb38Mxi5PcD6JcOUh2NmidKK4MM0iY1r6oDeggHGUiQ==","691f8ca61c6b4dcbb0aeb5f4","691fbe931781ab827d249275","index1","<span style='color:red'>Fail,<span style='color:red'>Fail,<span style='color:green'>Lift,<span style='color:green'>Lift,<span style='color:red'>Fail,<span style='color:red'>Fail,<span style='color:red'>Fail,<span style='color:red'>Fail,<span style='color:red'>Fail,<span style='color:green'>Lift,<span style='color:green'>Lift,<span style='color:red'>Fail","<span style='color:red'>Fail,<span style='color:red'>Fail,<span style='color:green'>Lift,<span style='color:green'>Lift,<span style='color:green'>Lift,<span style='color:green'>Lift,<span style='color:green'>Lift,<span style='color:red'>Fail,<span style='color:green'>Lift,<span style='color:green'>Lift,<span style='color:green'>Lift,<span style='color:red'>Fail","<span style='color:red'>Fail,<span style='color:green'>Lift,<span style='color:green'>Lift,<span style='color:red'>Fail,<span style='color:green'>Lift,<span style='color:green'>Lift","0,0,1,1,0,0,0,0,0,1,1,0","0,0,1,1,1,1,1,0,1,1,1,0","0,1,1,0,1,1",10,20,20,"true","","","","","",NA,NA,"",NA,NA,NA,NA,NA,NA,NA,NA,NA,NA,NA,NA,NA,NA,NA,NA,NA,NA,NA,NA,NA,NA,NA,NA,NA,NA,NA,NA,NA,NA,NA,NA,NA,NA,NA,NA,NA,NA,NA,"",NA,NA,NA,NA,NA,NA,NA,NA,2025-11-21 01:35:00
"202596.10000002384","https://psyc-201.github.io/xiang2023/exp/index1.html?PROLIFIC_PID=REDACTED&STUDY_ID=691f8ca61c6b4dcbb0aeb5f4&SESSION_ID=691fbe931781ab827d249275","instructions",2,215875,"0.0-2.0","iyVIJ3469Z1JPsBW+Z9zGQlEdYzT2m1z2XDBuxEChmeBCo9L/n7fq28R2JrGchhn4+rT/tzWnYohsNztKedERQLsuu8hmvZwZ8m6CGmxS+/Kg4fvFaYURQUpSWguHrRxaxi0WbOMzKb4KakBmqmpx+gbHT4W54z621aF1LnkNr56Sa5i11Wn1D3r8OH/y9iA++xxzwvHkU5GvGn9BjxhNBHpRfGB+H2DkJY6unOi0YRcujxhBTgIAgS3ELmR6QlPQy9ERuDvT4Iss8o58IVElhyisFv7TCHCazQ0SYQ6r6Xpb38Mxi5PcD6JcOUh2NmidKK4MM0iY1r6oDeggHGUiQ==","691f8ca61c6b4dcbb0aeb5f4","691fbe931781ab827d249275","index1","<span style='color:red'>Fail,<span style='color:red'>Fail,<span style='color:green'>Lift,<span style='color:green'>Lift,<span style='color:red'>Fail,<span style='color:red'>Fail,<span style='color:red'>Fail,<span style='color:red'>Fail,<span style='color:red'>Fail,<span style='color:green'>Lift,<span style='color:green'>Lift,<span style='color:red'>Fail","<span style='color:red'>Fail,<span style='color:red'>Fail,<span style='color:green'>Lift,<span style='color:green'>Lift,<span style='color:green'>Lift,<span style='color:green'>Lift,<span style='color:green'>Lift,<span style='color:red'>Fail,<span style='color:green'>Lift,<span style='color:green'>Lift,<span style='color:green'>Lift,<span style='color:red'>Fail","<span style='color:red'>Fail,<span style='color:green'>Lift,<span style='color:green'>Lift,<span style='color:red'>Fail,<span style='color:green'>Lift,<span style='color:green'>Lift","0,0,1,1,0,0,0,0,0,1,1,0","0,0,1,1,1,1,1,0,1,1,1,0","0,1,1,0,1,1",10,20,20,"","[{""page_index"":0,""viewing_time"":12940.700000017881},{""page_index"":1,""viewing_time"":21110.29999998212},{""page_index"":2,""viewing_time"":13462.800000011921},{""page_index"":3,""viewing_time"":16689.90000000596},{""page_index"":4,""viewing_time"":14321.799999982119},{""page_index"":5,""viewing_time"":27279.90000000596},{""page_index"":6,""viewing_time"":6178},{""page_index"":5,""viewing_time"":666.3000000119209},{""page_index"":4,""viewing_time"":292.59999999403954},{""page_index"":3,""viewing_time"":1467},{""page_index"":2,""viewing_time"":2113.5999999940395},{""page_index"":1,""viewing_time"":2579.300000011921},{""page_index"":0,""viewing_time"":17161.19999998808},{""page_index"":1,""viewing_time"":6232},{""page_index"":2,""viewing_time"":8382.5},{""page_index"":3,""viewing_time"":25686},{""page_index"":4,""viewing_time"":11416.5},{""page_index"":5,""viewing_time"":12777.40000000596},{""page_index"":6,""viewing_time"":1837.5999999940395}]","","","","",NA,NA,"",NA,NA,NA,NA,NA,NA,NA,NA,NA,NA,NA,NA,NA,NA,NA,NA,NA,NA,NA,NA,NA,NA,NA,NA,NA,NA,NA,NA,NA,NA,NA,NA,NA,NA,NA,NA,NA,NA,NA,"",NA,NA,NA,NA,NA,NA,NA,NA,2025-11-21 01:35:00
"null","https://psyc-201.github.io/xiang2023/exp/index1.html?PROLIFIC_PID=REDACTED&STUDY_ID=691f8ca61c6b4dcbb0aeb5f4&SESSION_ID=691fbe931781ab827d249275","html-keyboard-response",3,216888,"0.0-3.0","iyVIJ3469Z1JPsBW+Z9zGQlEdYzT2m1z2XDBuxEChmeBCo9L/n7fq28R2JrGchhn4+rT/tzWnYohsNztKedERQLsuu8hmvZwZ8m6CGmxS+/Kg4fvFaYURQUpSWguHrRxaxi0WbOMzKb4KakBmqmpx+gbHT4W54z621aF1LnkNr56Sa5i11Wn1D3r8OH/y9iA++xxzwvHkU5GvGn9BjxhNBHpRfGB+H2DkJY6unOi0YRcujxhBTgIAgS3ELmR6QlPQy9ERuDvT4Iss8o58IVElhyisFv7TCHCazQ0SYQ6r6Xpb38Mxi5PcD6JcOUh2NmidKK4MM0iY1r6oDeggHGUiQ==","691f8ca61c6b4dcbb0aeb5f4","691fbe931781ab827d249275","index1","<span style='color:red'>Fail,<span style='color:red'>Fail,<span style='color:green'>Lift,<span style='color:green'>Lift,<span style='color:red'>Fail,<span style='color:red'>Fail,<span style='color:red'>Fail,<span style='color:red'>Fail,<span style='color:red'>Fail,<span style='color:green'>Lift,<span style='color:green'>Lift,<span style='color:red'>Fail","<span style='color:red'>Fail,<span style='color:red'>Fail,<span style='color:green'>Lift,<span style='color:green'>Lift,<span style='color:green'>Lift,<span style='color:green'>Lift,<span style='color:green'>Lift,<span style='color:red'>Fail,<span style='color:green'>Lift,<span style='color:green'>Lift,<span style='color:green'>Lift,<span style='color:red'>Fail","<span style='color:red'>Fail,<span style='color:green'>Lift,<span style='color:green'>Lift,<span style='color:red'>Fail,<span style='color:green'>Lift,<span style='color:green'>Lift","0,0,1,1,0,0,0,0,0,1,1,0","0,0,1,1,1,1,1,0,1,1,1,0","0,1,1,0,1,1",10,20,20,"",""," ","null","","",NA,NA,"",NA,NA,NA,NA,NA,NA,NA,NA,NA,NA,NA,NA,NA,NA,NA,NA,NA,NA,NA,NA,NA,NA,NA,NA,NA,NA,NA,NA,NA,NA,NA,NA,NA,NA,NA,NA,NA,NA,NA,"",NA,NA,NA,NA,NA,NA,NA,NA,2025-11-21 01:35:00
"28945.70000001788","https://psyc-201.github.io/xiang2023/exp/index1.html?PROLIFIC_PID=REDACTED&STUDY_ID=691f8ca61c6b4dcbb0aeb5f4&SESSION_ID=691fbe931781ab827d249275","survey-multi-choice",4,245835,"0.0-4.0","iyVIJ3469Z1JPsBW+Z9zGQlEdYzT2m1z2XDBuxEChmeBCo9L/n7fq28R2JrGchhn4+rT/tzWnYohsNztKedERQLsuu8hmvZwZ8m6CGmxS+/Kg4fvFaYURQUpSWguHrRxaxi0WbOMzKb4KakBmqmpx+gbHT4W54z621aF1LnkNr56Sa5i11Wn1D3r8OH/y9iA++xxzwvHkU5GvGn9BjxhNBHpRfGB+H2DkJY6unOi0YRcujxhBTgIAgS3ELmR6QlPQy9ERuDvT4Iss8o58IVElhyisFv7TCHCazQ0SYQ6r6Xpb38Mxi5PcD6JcOUh2NmidKK4MM0iY1r6oDeggHGUiQ==","691f8ca61c6b4dcbb0aeb5f4","691fbe931781ab827d249275","index1","<span style='color:red'>Fail,<span style='color:red'>Fail,<span style='color:green'>Lift,<span style='color:green'>Lift,<span style='color:red'>Fail,<span style='color:red'>Fail,<span style='color:red'>Fail,<span style='color:red'>Fail,<span style='color:red'>Fail,<span style='color:green'>Lift,<span style='color:green'>Lift,<span style='color:red'>Fail","<span style='color:red'>Fail,<span style='color:red'>Fail,<span style='color:green'>Lift,<span style='color:green'>Lift,<span style='color:green'>Lift,<span style='color:green'>Lift,<span style='color:green'>Lift,<span style='color:red'>Fail,<span style='color:green'>Lift,<span style='color:green'>Lift,<span style='color:green'>Lift,<span style='color:red'>Fail","<span style='color:red'>Fail,<span style='color:green'>Lift,<span style='color:green'>Lift,<span style='color:red'>Fail,<span style='color:green'>Lift,<span style='color:green'>Lift","0,0,1,1,0,0,0,0,0,1,1,0","0,0,1,1,1,1,1,0,1,1,1,0","0,1,1,0,1,1",10,20,20,"","","","","{""Q0"":""It consists of multiple contests, each contest with three rounds."",""Q1"":""When a new contest begins."",""Q2"":""The box weight changes across contests, but not across rounds within each contest."",""Q3"":""Each will get $20."",""Q4"":""How close my guesses are to the actual outcome.""}","[0,1,2,3,4]",NA,NA,"",NA,NA,NA,NA,NA,NA,NA,NA,NA,NA,NA,NA,NA,NA,NA,NA,NA,NA,NA,NA,NA,NA,NA,NA,NA,NA,NA,NA,NA,NA,NA,NA,NA,NA,NA,NA,NA,NA,NA,"",NA,NA,NA,NA,NA,NA,NA,NA,2025-11-21 01:35:00
"3272.0999999940395","https://psyc-201.github.io/xiang2023/exp/index1.html?PROLIFIC_PID=REDACTED&STUDY_ID=691f8ca61c6b4dcbb0aeb5f4&SESSION_ID=691fbe931781ab827d249275","html-button-response",5,249109,"0.0-5.0-1.0","iyVIJ3469Z1JPsBW+Z9zGQlEdYzT2m1z2XDBuxEChmeBCo9L/n7fq28R2JrGchhn4+rT/tzWnYohsNztKedERQLsuu8hmvZwZ8m6CGmxS+/Kg4fvFaYURQUpSWguHrRxaxi0WbOMzKb4KakBmqmpx+gbHT4W54z621aF1LnkNr56Sa5i11Wn1D3r8OH/y9iA++xxzwvHkU5GvGn9BjxhNBHpRfGB+H2DkJY6unOi0YRcujxhBTgIAgS3ELmR6QlPQy9ERuDvT4Iss8o58IVElhyisFv7TCHCazQ0SYQ6r6Xpb38Mxi5PcD6JcOUh2NmidKK4MM0iY1r6oDeggHGUiQ==","691f8ca61c6b4dcbb0aeb5f4","691fbe931781ab827d249275","index1","<span style='color:red'>Fail,<span style='color:red'>Fail,<span style='color:green'>Lift,<span style='color:green'>Lift,<span style='color:red'>Fail,<span style='color:red'>Fail,<span style='color:red'>Fail,<span style='color:red'>Fail,<span style='color:red'>Fail,<span style='color:green'>Lift,<span style='color:green'>Lift,<span style='color:red'>Fail","<span style='color:red'>Fail,<span style='color:red'>Fail,<span style='color:green'>Lift,<span style='color:green'>Lift,<span style='color:green'>Lift,<span style='color:green'>Lift,<span style='color:green'>Lift,<span style='color:red'>Fail,<span style='color:green'>Lift,<span style='color:green'>Lift,<span style='color:green'>Lift,<span style='color:red'>Fail","<span style='color:red'>Fail,<span style='color:green'>Lift,<span style='color:green'>Lift,<span style='color:red'>Fail,<span style='color:green'>Lift,<span style='color:green'>Lift","0,0,1,1,0,0,0,0,0,1,1,0","0,0,1,1,1,1,1,0,1,1,1,0","0,1,1,0,1,1",10,20,20,"","","<p> Oops! You did not pass the comprehension check. <b>Please note that you have only 1 attempt(s) left.</b> </p>","","","",1,NA,"",NA,NA,NA,NA,NA,NA,NA,NA,NA,NA,NA,NA,NA,NA,NA,NA,NA,NA,NA,NA,NA,NA,NA,NA,NA,NA,NA,NA,NA,NA,NA,NA,NA,NA,NA,NA,NA,NA,NA,"",NA,NA,NA,NA,NA,NA,NA,NA,2025-11-21 01:35:00
"83391.80000001192","https://psyc-201.github.io/xiang2023/exp/index1.html?PROLIFIC_PID=REDACTED&STUDY_ID=691f8ca61c6b4dcbb0aeb5f4&SESSION_ID=691fbe931781ab827d249275","instructions",6,332502,"0.0-6.0-0.0","iyVIJ3469Z1JPsBW+Z9zGQlEdYzT2m1z2XDBuxEChmeBCo9L/n7fq28R2JrGchhn4+rT/tzWnYohsNztKedERQLsuu8hmvZwZ8m6CGmxS+/Kg4fvFaYURQUpSWguHrRxaxi0WbOMzKb4KakBmqmpx+gbHT4W54z621aF1LnkNr56Sa5i11Wn1D3r8OH/y9iA++xxzwvHkU5GvGn9BjxhNBHpRfGB+H2DkJY6unOi0YRcujxhBTgIAgS3ELmR6QlPQy9ERuDvT4Iss8o58IVElhyisFv7TCHCazQ0SYQ6r6Xpb38Mxi5PcD6JcOUh2NmidKK4MM0iY1r6oDeggHGUiQ==","691f8ca61c6b4dcbb0aeb5f4","691fbe931781ab827d249275","index1","<span style='color:red'>Fail,<span style='color:red'>Fail,<span style='color:green'>Lift,<span style='color:green'>Lift,<span style='color:red'>Fail,<span style='color:red'>Fail,<span style='color:red'>Fail,<span style='color:red'>Fail,<span style='color:red'>Fail,<span style='color:green'>Lift,<span style='color:green'>Lift,<span style='color:red'>Fail","<span style='color:red'>Fail,<span style='color:red'>Fail,<span style='color:green'>Lift,<span style='color:green'>Lift,<span style='color:green'>Lift,<span style='color:green'>Lift,<span style='color:green'>Lift,<span style='color:red'>Fail,<span style='color:green'>Lift,<span style='color:green'>Lift,<span style='color:green'>Lift,<span style='color:red'>Fail","<span style='color:red'>Fail,<span style='color:green'>Lift,<span style='color:green'>Lift,<span style='color:red'>Fail,<span style='color:green'>Lift,<span style='color:green'>Lift","0,0,1,1,0,0,0,0,0,1,1,0","0,0,1,1,1,1,1,0,1,1,1,0","0,1,1,0,1,1",10,20,20,"","[{""page_index"":0,""viewing_time"":4297.100000023842},{""page_index"":1,""viewing_time"":4983.799999982119},{""page_index"":0,""viewing_time"":8006.4000000059605},{""page_index"":1,""viewing_time"":6234.0999999940395},{""page_index"":2,""viewing_time"":6368.200000017881},{""page_index"":3,""viewing_time"":1582.0999999940395},{""page_index"":4,""viewing_time"":1559},{""page_index"":3,""viewing_time"":200.5},{""page_index"":2,""viewing_time"":176.5},{""page_index"":1,""viewing_time"":189.90000000596046},{""page_index"":0,""viewing_time"":13842.399999976158},{""page_index"":1,""viewing_time"":6169.4000000059605},{""page_index"":2,""viewing_time"":8353.90000000596},{""page_index"":3,""viewing_time"":3533.5},{""page_index"":4,""viewing_time"":7585.699999988079},{""page_index"":5,""viewing_time"":7865.100000023842},{""page_index"":6,""viewing_time"":2444.0999999940395}]","","","","",NA,NA,"",NA,NA,NA,NA,NA,NA,NA,NA,NA,NA,NA,NA,NA,NA,NA,NA,NA,NA,NA,NA,NA,NA,NA,NA,NA,NA,NA,NA,NA,NA,NA,NA,NA,NA,NA,NA,NA,NA,NA,"",NA,NA,NA,NA,NA,NA,NA,NA,2025-11-21 01:35:00
"null","https://psyc-201.github.io/xiang2023/exp/index1.html?PROLIFIC_PID=REDACTED&STUDY_ID=691f8ca61c6b4dcbb0aeb5f4&SESSION_ID=691fbe931781ab827d249275","html-keyboard-response",7,333507,"0.0-6.0-1.0","iyVIJ3469Z1JPsBW+Z9zGQlEdYzT2m1z2XDBuxEChmeBCo9L/n7fq28R2JrGchhn4+rT/tzWnYohsNztKedERQLsuu8hmvZwZ8m6CGmxS+/Kg4fvFaYURQUpSWguHrRxaxi0WbOMzKb4KakBmqmpx+gbHT4W54z621aF1LnkNr56Sa5i11Wn1D3r8OH/y9iA++xxzwvHkU5GvGn9BjxhNBHpRfGB+H2DkJY6unOi0YRcujxhBTgIAgS3ELmR6QlPQy9ERuDvT4Iss8o58IVElhyisFv7TCHCazQ0SYQ6r6Xpb38Mxi5PcD6JcOUh2NmidKK4MM0iY1r6oDeggHGUiQ==","691f8ca61c6b4dcbb0aeb5f4","691fbe931781ab827d249275","index1","<span style='color:red'>Fail,<span style='color:red'>Fail,<span style='color:green'>Lift,<span style='color:green'>Lift,<span style='color:red'>Fail,<span style='color:red'>Fail,<span style='color:red'>Fail,<span style='color:red'>Fail,<span style='color:red'>Fail,<span style='color:green'>Lift,<span style='color:green'>Lift,<span style='color:red'>Fail","<span style='color:red'>Fail,<span style='color:red'>Fail,<span style='color:green'>Lift,<span style='color:green'>Lift,<span style='color:green'>Lift,<span style='color:green'>Lift,<span style='color:green'>Lift,<span style='color:red'>Fail,<span style='color:green'>Lift,<span style='color:green'>Lift,<span style='color:green'>Lift,<span style='color:red'>Fail","<span style='color:red'>Fail,<span style='color:green'>Lift,<span style='color:green'>Lift,<span style='color:red'>Fail,<span style='color:green'>Lift,<span style='color:green'>Lift","0,0,1,1,0,0,0,0,0,1,1,0","0,0,1,1,1,1,1,0,1,1,1,0","0,1,1,0,1,1",10,20,20,"",""," ","null","","",NA,NA,"",NA,NA,NA,NA,NA,NA,NA,NA,NA,NA,NA,NA,NA,NA,NA,NA,NA,NA,NA,NA,NA,NA,NA,NA,NA,NA,NA,NA,NA,NA,NA,NA,NA,NA,NA,NA,NA,NA,NA,"",NA,NA,NA,NA,NA,NA,NA,NA,2025-11-21 01:35:00
"22104","https://psyc-201.github.io/xiang2023/exp/index1.html?PROLIFIC_PID=REDACTED&STUDY_ID=691f8ca61c6b4dcbb0aeb5f4&SESSION_ID=691fbe931781ab827d249275","survey-multi-choice",8,355613,"0.0-7.0-0.0","iyVIJ3469Z1JPsBW+Z9zGQlEdYzT2m1z2XDBuxEChmeBCo9L/n7fq28R2JrGchhn4+rT/tzWnYohsNztKedERQLsuu8hmvZwZ8m6CGmxS+/Kg4fvFaYURQUpSWguHrRxaxi0WbOMzKb4KakBmqmpx+gbHT4W54z621aF1LnkNr56Sa5i11Wn1D3r8OH/y9iA++xxzwvHkU5GvGn9BjxhNBHpRfGB+H2DkJY6unOi0YRcujxhBTgIAgS3ELmR6QlPQy9ERuDvT4Iss8o58IVElhyisFv7TCHCazQ0SYQ6r6Xpb38Mxi5PcD6JcOUh2NmidKK4MM0iY1r6oDeggHGUiQ==","691f8ca61c6b4dcbb0aeb5f4","691fbe931781ab827d249275","index1","<span style='color:red'>Fail,<span style='color:red'>Fail,<span style='color:green'>Lift,<span style='color:green'>Lift,<span style='color:red'>Fail,<span style='color:red'>Fail,<span style='color:red'>Fail,<span style='color:red'>Fail,<span style='color:red'>Fail,<span style='color:green'>Lift,<span style='color:green'>Lift,<span style='color:red'>Fail","<span style='color:red'>Fail,<span style='color:red'>Fail,<span style='color:green'>Lift,<span style='color:green'>Lift,<span style='color:green'>Lift,<span style='color:green'>Lift,<span style='color:green'>Lift,<span style='color:red'>Fail,<span style='color:green'>Lift,<span style='color:green'>Lift,<span style='color:green'>Lift,<span style='color:red'>Fail","<span style='color:red'>Fail,<span style='color:green'>Lift,<span style='color:green'>Lift,<span style='color:red'>Fail,<span style='color:green'>Lift,<span style='color:green'>Lift","0,0,1,1,0,0,0,0,0,1,1,0","0,0,1,1,1,1,1,0,1,1,1,0","0,1,1,0,1,1",10,20,20,"","","","","{""Q0"":""It consists of multiple contests, each contest with three rounds."",""Q1"":""When a new contest begins."",""Q2"":""The box weight always stays the same (equivalent to strength of 5)."",""Q3"":""Each will get $20."",""Q4"":""How close my guesses are to the actual outcome.""}","[0,1,2,3,4]",NA,NA,"",NA,NA,NA,NA,NA,NA,NA,NA,NA,NA,NA,NA,NA,NA,NA,NA,NA,NA,NA,NA,NA,NA,NA,NA,NA,NA,NA,NA,NA,NA,NA,NA,NA,NA,NA,NA,NA,NA,NA,"",NA,NA,NA,NA,NA,NA,NA,NA,2025-11-21 01:35:00
"8550","https://psyc-201.github.io/xiang2023/exp/index1.html?PROLIFIC_PID=REDACTED&STUDY_ID=691f8ca61c6b4dcbb0aeb5f4&SESSION_ID=691fbe931781ab827d249275","instructions",9,364166,"0.0-305.0","iyVIJ3469Z1JPsBW+Z9zGQlEdYzT2m1z2XDBuxEChmeBCo9L/n7fq28R2JrGchhn4+rT/tzWnYohsNztKedERQLsuu8hmvZwZ8m6CGmxS+/Kg4fvFaYURQUpSWguHrRxaxi0WbOMzKb4KakBmqmpx+gbHT4W54z621aF1LnkNr56Sa5i11Wn1D3r8OH/y9iA++xxzwvHkU5GvGn9BjxhNBHpRfGB+H2DkJY6unOi0YRcujxhBTgIAgS3ELmR6QlPQy9ERuDvT4Iss8o58IVElhyisFv7TCHCazQ0SYQ6r6Xpb38Mxi5PcD6JcOUh2NmidKK4MM0iY1r6oDeggHGUiQ==","691f8ca61c6b4dcbb0aeb5f4","691fbe931781ab827d249275","index1","<span style='color:red'>Fail,<span style='color:red'>Fail,<span style='color:green'>Lift,<span style='color:green'>Lift,<span style='color:red'>Fail,<span style='color:red'>Fail,<span style='color:red'>Fail,<span style='color:red'>Fail,<span style='color:red'>Fail,<span style='color:green'>Lift,<span style='color:green'>Lift,<span style='color:red'>Fail","<span style='color:red'>Fail,<span style='color:red'>Fail,<span style='color:green'>Lift,<span style='color:green'>Lift,<span style='color:green'>Lift,<span style='color:green'>Lift,<span style='color:green'>Lift,<span style='color:red'>Fail,<span style='color:green'>Lift,<span style='color:green'>Lift,<span style='color:green'>Lift,<span style='color:red'>Fail","<span style='color:red'>Fail,<span style='color:green'>Lift,<span style='color:green'>Lift,<span style='color:red'>Fail,<span style='color:green'>Lift,<span style='color:green'>Lift","0,0,1,1,0,0,0,0,0,1,1,0","0,0,1,1,1,1,1,0,1,1,1,0","0,1,1,0,1,1",10,20,20,"","[{""page_index"":0,""viewing_time"":4588.899999976158},{""page_index"":1,""viewing_time"":3960.800000011921}]","","","","",NA,NA,"",NA,NA,NA,NA,NA,NA,NA,NA,NA,NA,NA,NA,NA,NA,NA,NA,NA,NA,NA,NA,NA,NA,NA,NA,NA,NA,NA,NA,NA,NA,NA,NA,NA,NA,NA,NA,NA,NA,NA,"",NA,NA,NA,NA,NA,NA,NA,NA,2025-11-21 01:35:00
"null","https://psyc-201.github.io/xiang2023/exp/index1.html?PROLIFIC_PID=REDACTED&STUDY_ID=691f8ca61c6b4dcbb0aeb5f4&SESSION_ID=691fbe931781ab827d249275","html-keyboard-response",10,365177,"0.0-306.0","iyVIJ3469Z1JPsBW+Z9zGQlEdYzT2m1z2XDBuxEChmeBCo9L/n7fq28R2JrGchhn4+rT/tzWnYohsNztKedERQLsuu8hmvZwZ8m6CGmxS+/Kg4fvFaYURQUpSWguHrRxaxi0WbOMzKb4KakBmqmpx+gbHT4W54z621aF1LnkNr56Sa5i11Wn1D3r8OH/y9iA++xxzwvHkU5GvGn9BjxhNBHpRfGB+H2DkJY6unOi0YRcujxhBTgIAgS3ELmR6QlPQy9ERuDvT4Iss8o58IVElhyisFv7TCHCazQ0SYQ6r6Xpb38Mxi5PcD6JcOUh2NmidKK4MM0iY1r6oDeggHGUiQ==","691f8ca61c6b4dcbb0aeb5f4","691fbe931781ab827d249275","index1","<span style='color:red'>Fail,<span style='color:red'>Fail,<span style='color:green'>Lift,<span style='color:green'>Lift,<span style='color:red'>Fail,<span style='color:red'>Fail,<span style='color:red'>Fail,<span style='color:red'>Fail,<span style='color:red'>Fail,<span style='color:green'>Lift,<span style='color:green'>Lift,<span style='color:red'>Fail","<span style='color:red'>Fail,<span style='color:red'>Fail,<span style='color:green'>Lift,<span style='color:green'>Lift,<span style='color:green'>Lift,<span style='color:green'>Lift,<span style='color:green'>Lift,<span style='color:red'>Fail,<span style='color:green'>Lift,<span style='color:green'>Lift,<span style='color:green'>Lift,<span style='color:red'>Fail","<span style='color:red'>Fail,<span style='color:green'>Lift,<span style='color:green'>Lift,<span style='color:red'>Fail,<span style='color:green'>Lift,<span style='color:green'>Lift","0,0,1,1,0,0,0,0,0,1,1,0","0,0,1,1,1,1,1,0,1,1,1,0","0,1,1,0,1,1",10,20,20,"",""," ","null","","",NA,1,"",NA,NA,NA,NA,NA,NA,NA,NA,NA,NA,NA,NA,NA,NA,NA,NA,NA,NA,NA,NA,NA,NA,NA,NA,NA,NA,NA,NA,NA,NA,NA,NA,NA,NA,NA,NA,NA,NA,NA,"",NA,NA,NA,NA,NA,NA,NA,NA,2025-11-21 01:35:00
"null","https://psyc-201.github.io/xiang2023/exp/index1.html?PROLIFIC_PID=REDACTED&STUDY_ID=691f8ca61c6b4dcbb0aeb5f4&SESSION_ID=691fbe931781ab827d249275","html-keyboard-response",11,368191,"0.0-307.0","iyVIJ3469Z1JPsBW+Z9zGQlEdYzT2m1z2XDBuxEChmeBCo9L/n7fq28R2JrGchhn4+rT/tzWnYohsNztKedERQLsuu8hmvZwZ8m6CGmxS+/Kg4fvFaYURQUpSWguHrRxaxi0WbOMzKb4KakBmqmpx+gbHT4W54z621aF1LnkNr56Sa5i11Wn1D3r8OH/y9iA++xxzwvHkU5GvGn9BjxhNBHpRfGB+H2DkJY6unOi0YRcujxhBTgIAgS3ELmR6QlPQy9ERuDvT4Iss8o58IVElhyisFv7TCHCazQ0SYQ6r6Xpb38Mxi5PcD6JcOUh2NmidKK4MM0iY1r6oDeggHGUiQ==","691f8ca61c6b4dcbb0aeb5f4","691fbe931781ab827d249275","index1","<span style='color:red'>Fail,<span style='color:red'>Fail,<span style='color:green'>Lift,<span style='color:green'>Lift,<span style='color:red'>Fail,<span style='color:red'>Fail,<span style='color:red'>Fail,<span style='color:red'>Fail,<span style='color:red'>Fail,<span style='color:green'>Lift,<span style='color:green'>Lift,<span style='color:red'>Fail","<span style='color:red'>Fail,<span style='color:red'>Fail,<span style='color:green'>Lift,<span style='color:green'>Lift,<span style='color:green'>Lift,<span style='color:green'>Lift,<span style='color:green'>Lift,<span style='color:red'>Fail,<span style='color:green'>Lift,<span style='color:green'>Lift,<span style='color:green'>Lift,<span style='color:red'>Fail","<span style='color:red'>Fail,<span style='color:green'>Lift,<span style='color:green'>Lift,<span style='color:red'>Fail,<span style='color:green'>Lift,<span style='color:green'>Lift","0,0,1,1,0,0,0,0,0,1,1,0","0,0,1,1,1,1,1,0,1,1,1,0","0,1,1,0,1,1",10,20,20,"","","<p style='font-size:30px'><b> New Contest! </b></p>","null","","",NA,1,"",NA,NA,NA,NA,NA,NA,NA,NA,NA,NA,NA,NA,NA,NA,NA,NA,NA,NA,NA,NA,NA,NA,NA,NA,NA,NA,NA,NA,NA,NA,NA,NA,NA,NA,NA,NA,NA,NA,NA,"",NA,NA,NA,NA,NA,NA,NA,NA,2025-11-21 01:35:00
"36609.60000002384","https://psyc-201.github.io/xiang2023/exp/index1.html?PROLIFIC_PID=REDACTED&STUDY_ID=691f8ca61c6b4dcbb0aeb5f4&SESSION_ID=691fbe931781ab827d249275","survey-html-form",12,404803,"0.0-308.0","iyVIJ3469Z1JPsBW+Z9zGQlEdYzT2m1z2XDBuxEChmeBCo9L/n7fq28R2JrGchhn4+rT/tzWnYohsNztKedERQLsuu8hmvZwZ8m6CGmxS+/Kg4fvFaYURQUpSWguHrRxaxi0WbOMzKb4KakBmqmpx+gbHT4W54z621aF1LnkNr56Sa5i11Wn1D3r8OH/y9iA++xxzwvHkU5GvGn9BjxhNBHpRfGB+H2DkJY6unOi0YRcujxhBTgIAgS3ELmR6QlPQy9ERuDvT4Iss8o58IVElhyisFv7TCHCazQ0SYQ6r6Xpb38Mxi5PcD6JcOUh2NmidKK4MM0iY1r6oDeggHGUiQ==","691f8ca61c6b4dcbb0aeb5f4","691fbe931781ab827d249275","index1","<span style='color:red'>Fail,<span style='color:red'>Fail,<span style='color:green'>Lift,<span style='color:green'>Lift,<span style='color:red'>Fail,<span style='color:red'>Fail,<span style='color:red'>Fail,<span style='color:red'>Fail,<span style='color:red'>Fail,<span style='color:green'>Lift,<span style='color:green'>Lift,<span style='color:red'>Fail","<span style='color:red'>Fail,<span style='color:red'>Fail,<span style='color:green'>Lift,<span style='color:green'>Lift,<span style='color:green'>Lift,<span style='color:green'>Lift,<span style='color:green'>Lift,<span style='color:red'>Fail,<span style='color:green'>Lift,<span style='color:green'>Lift,<span style='color:green'>Lift,<span style='color:red'>Fail","<span style='color:red'>Fail,<span style='color:green'>Lift,<span style='color:green'>Lift,<span style='color:red'>Fail,<span style='color:green'>Lift,<span style='color:green'>Lift","0,0,1,1,0,0,0,0,0,1,1,0","0,0,1,1,1,1,1,0,1,1,1,0","0,1,1,0,1,1",10,20,20,"","","","","{""box1"":""3"",""box2"":""3""}","",NA,1,"round1_outcome",1,1,1,3,3,NA,NA,0,0,10,3,3,NA,NA,0,0,10,NA,NA,NA,NA,NA,NA,NA,NA,NA,NA,NA,NA,NA,NA,NA,NA,NA,NA,NA,NA,NA,NA,"",NA,NA,NA,NA,NA,NA,NA,NA,2025-11-21 01:35:00
"9320.699999988079","https://psyc-201.github.io/xiang2023/exp/index1.html?PROLIFIC_PID=REDACTED&STUDY_ID=691f8ca61c6b4dcbb0aeb5f4&SESSION_ID=691fbe931781ab827d249275","survey-html-form",13,414125,"0.0-309.0","iyVIJ3469Z1JPsBW+Z9zGQlEdYzT2m1z2XDBuxEChmeBCo9L/n7fq28R2JrGchhn4+rT/tzWnYohsNztKedERQLsuu8hmvZwZ8m6CGmxS+/Kg4fvFaYURQUpSWguHrRxaxi0WbOMzKb4KakBmqmpx+gbHT4W54z621aF1LnkNr56Sa5i11Wn1D3r8OH/y9iA++xxzwvHkU5GvGn9BjxhNBHpRfGB+H2DkJY6unOi0YRcujxhBTgIAgS3ELmR6QlPQy9ERuDvT4Iss8o58IVElhyisFv7TCHCazQ0SYQ6r6Xpb38Mxi5PcD6JcOUh2NmidKK4MM0iY1r6oDeggHGUiQ==","691f8ca61c6b4dcbb0aeb5f4","691fbe931781ab827d249275","index1","<span style='color:red'>Fail,<span style='color:red'>Fail,<span style='color:green'>Lift,<span style='color:green'>Lift,<span style='color:red'>Fail,<span style='color:red'>Fail,<span style='color:red'>Fail,<span style='color:red'>Fail,<span style='color:red'>Fail,<span style='color:green'>Lift,<span style='color:green'>Lift,<span style='color:red'>Fail","<span style='color:red'>Fail,<span style='color:red'>Fail,<span style='color:green'>Lift,<span style='color:green'>Lift,<span style='color:green'>Lift,<span style='color:green'>Lift,<span style='color:green'>Lift,<span style='color:red'>Fail,<span style='color:green'>Lift,<span style='color:green'>Lift,<span style='color:green'>Lift,<span style='color:red'>Fail","<span style='color:red'>Fail,<span style='color:green'>Lift,<span style='color:green'>Lift,<span style='color:red'>Fail,<span style='color:green'>Lift,<span style='color:green'>Lift","0,0,1,1,0,0,0,0,0,1,1,0","0,0,1,1,1,1,1,0,1,1,1,0","0,1,1,0,1,1",10,20,20,"","","","","{""box1"":""50"",""box2"":""50""}","",NA,1,"round2_ready",2,1,2,NA,NA,NA,NA,NA,NA,NA,NA,NA,NA,NA,NA,NA,NA,50,50,50,50,NA,NA,NA,NA,NA,NA,NA,NA,NA,NA,NA,NA,NA,NA,NA,NA,NA,NA,"",NA,NA,NA,NA,NA,NA,NA,NA,2025-11-21 01:35:00
"7924.0999999940395","https://psyc-201.github.io/xiang2023/exp/index1.html?PROLIFIC_PID=REDACTED&STUDY_ID=691f8ca61c6b4dcbb0aeb5f4&SESSION_ID=691fbe931781ab827d249275","survey-html-form",14,422051,"0.0-310.0","iyVIJ3469Z1JPsBW+Z9zGQlEdYzT2m1z2XDBuxEChmeBCo9L/n7fq28R2JrGchhn4+rT/tzWnYohsNztKedERQLsuu8hmvZwZ8m6CGmxS+/Kg4fvFaYURQUpSWguHrRxaxi0WbOMzKb4KakBmqmpx+gbHT4W54z621aF1LnkNr56Sa5i11Wn1D3r8OH/y9iA++xxzwvHkU5GvGn9BjxhNBHpRfGB+H2DkJY6unOi0YRcujxhBTgIAgS3ELmR6QlPQy9ERuDvT4Iss8o58IVElhyisFv7TCHCazQ0SYQ6r6Xpb38Mxi5PcD6JcOUh2NmidKK4MM0iY1r6oDeggHGUiQ==","691f8ca61c6b4dcbb0aeb5f4","691fbe931781ab827d249275","index1","<span style='color:red'>Fail,<span style='color:red'>Fail,<span style='color:green'>Lift,<span style='color:green'>Lift,<span style='color:red'>Fail,<span style='color:red'>Fail,<span style='color:red'>Fail,<span style='color:red'>Fail,<span style='color:red'>Fail,<span style='color:green'>Lift,<span style='color:green'>Lift,<span style='color:red'>Fail","<span style='color:red'>Fail,<span style='color:red'>Fail,<span style='color:green'>Lift,<span style='color:green'>Lift,<span style='color:green'>Lift,<span style='color:green'>Lift,<span style='color:green'>Lift,<span style='color:red'>Fail,<span style='color:green'>Lift,<span style='color:green'>Lift,<span style='color:green'>Lift,<span style='color:red'>Fail","<span style='color:red'>Fail,<span style='color:green'>Lift,<span style='color:green'>Lift,<span style='color:red'>Fail,<span style='color:green'>Lift,<span style='color:green'>Lift","0,0,1,1,0,0,0,0,0,1,1,0","0,0,1,1,1,1,1,0,1,1,1,0","0,1,1,0,1,1",10,20,20,"","","","","{""box1"":""2"",""box2"":""2""}","",NA,1,"round2_outcome",3,1,2,2,2,NA,NA,0,0,20,NA,NA,NA,NA,NA,NA,NA,NA,NA,NA,NA,2,2,NA,NA,0,0,20,NA,NA,NA,NA,NA,NA,NA,NA,NA,NA,NA,"",NA,NA,NA,NA,NA,NA,NA,NA,2025-11-21 01:35:00
"4252.199999988079","https://psyc-201.github.io/xiang2023/exp/index1.html?PROLIFIC_PID=REDACTED&STUDY_ID=691f8ca61c6b4dcbb0aeb5f4&SESSION_ID=691fbe931781ab827d249275","survey-html-form",15,426305,"0.0-311.0","iyVIJ3469Z1JPsBW+Z9zGQlEdYzT2m1z2XDBuxEChmeBCo9L/n7fq28R2JrGchhn4+rT/tzWnYohsNztKedERQLsuu8hmvZwZ8m6CGmxS+/Kg4fvFaYURQUpSWguHrRxaxi0WbOMzKb4KakBmqmpx+gbHT4W54z621aF1LnkNr56Sa5i11Wn1D3r8OH/y9iA++xxzwvHkU5GvGn9BjxhNBHpRfGB+H2DkJY6unOi0YRcujxhBTgIAgS3ELmR6QlPQy9ERuDvT4Iss8o58IVElhyisFv7TCHCazQ0SYQ6r6Xpb38Mxi5PcD6JcOUh2NmidKK4MM0iY1r6oDeggHGUiQ==","691f8ca61c6b4dcbb0aeb5f4","691fbe931781ab827d249275","index1","<span style='color:red'>Fail,<span style='color:red'>Fail,<span style='color:green'>Lift,<span style='color:green'>Lift,<span style='color:red'>Fail,<span style='color:red'>Fail,<span style='color:red'>Fail,<span style='color:red'>Fail,<span style='color:red'>Fail,<span style='color:green'>Lift,<span style='color:green'>Lift,<span style='color:red'>Fail","<span style='color:red'>Fail,<span style='color:red'>Fail,<span style='color:green'>Lift,<span style='color:green'>Lift,<span style='color:green'>Lift,<span style='color:green'>Lift,<span style='color:green'>Lift,<span style='color:red'>Fail,<span style='color:green'>Lift,<span style='color:green'>Lift,<span style='color:green'>Lift,<span style='color:red'>Fail","<span style='color:red'>Fail,<span style='color:green'>Lift,<span style='color:green'>Lift,<span style='color:red'>Fail,<span style='color:green'>Lift,<span style='color:green'>Lift","0,0,1,1,0,0,0,0,0,1,1,0","0,0,1,1,1,1,1,0,1,1,1,0","0,1,1,0,1,1",10,20,20,"","","","","{""box1"":""4""}","",NA,1,"round3_ready",4,1,3,NA,NA,NA,NA,NA,NA,NA,NA,NA,NA,NA,NA,NA,NA,4,4,NA,NA,NA,NA,NA,NA,NA,NA,NA,4,4,NA,NA,NA,NA,NA,NA,NA,NA,NA,"",NA,NA,NA,NA,NA,NA,NA,NA,2025-11-21 01:35:00
"15888.299999982119","https://psyc-201.github.io/xiang2023/exp/index1.html?PROLIFIC_PID=REDACTED&STUDY_ID=691f8ca61c6b4dcbb0aeb5f4&SESSION_ID=691fbe931781ab827d249275","survey-html-form",16,442195,"0.0-313.0-0.0","iyVIJ3469Z1JPsBW+Z9zGQlEdYzT2m1z2XDBuxEChmeBCo9L/n7fq28R2JrGchhn4+rT/tzWnYohsNztKedERQLsuu8hmvZwZ8m6CGmxS+/Kg4fvFaYURQUpSWguHrRxaxi0WbOMzKb4KakBmqmpx+gbHT4W54z621aF1LnkNr56Sa5i11Wn1D3r8OH/y9iA++xxzwvHkU5GvGn9BjxhNBHpRfGB+H2DkJY6unOi0YRcujxhBTgIAgS3ELmR6QlPQy9ERuDvT4Iss8o58IVElhyisFv7TCHCazQ0SYQ6r6Xpb38Mxi5PcD6JcOUh2NmidKK4MM0iY1r6oDeggHGUiQ==","691f8ca61c6b4dcbb0aeb5f4","691fbe931781ab827d249275","index1","<span style='color:red'>Fail,<span style='color:red'>Fail,<span style='color:green'>Lift,<span style='color:green'>Lift,<span style='color:red'>Fail,<span style='color:red'>Fail,<span style='color:red'>Fail,<span style='color:red'>Fail,<span style='color:red'>Fail,<span style='color:green'>Lift,<span style='color:green'>Lift,<span style='color:red'>Fail","<span style='color:red'>Fail,<span style='color:red'>Fail,<span style='color:green'>Lift,<span style='color:green'>Lift,<span style='color:green'>Lift,<span style='color:green'>Lift,<span style='color:green'>Lift,<span style='color:red'>Fail,<span style='color:green'>Lift,<span style='color:green'>Lift,<span style='color:green'>Lift,<span style='color:red'>Fail","<span style='color:red'>Fail,<span style='color:green'>Lift,<span style='color:green'>Lift,<span style='color:red'>Fail,<span style='color:green'>Lift,<span style='color:green'>Lift","0,0,1,1,0,0,0,0,0,1,1,0","0,0,1,1,1,1,1,0,1,1,1,0","0,1,1,0,1,1",10,20,20,"","","","","{""box1"":""3"",""box2"":""3"",""box3"":""999"",""box4"":""999""}","",NA,2,"round3_fail",5,1,3,3,3,NA,NA,0,0,20,NA,NA,NA,NA,NA,NA,NA,NA,NA,NA,NA,NA,NA,NA,NA,NA,NA,NA,NA,NA,1,1,3,3,0,0,20,NA,NA,"",NA,NA,NA,NA,NA,NA,NA,NA,2025-11-21 01:35:00
"null","https://psyc-201.github.io/xiang2023/exp/index1.html?PROLIFIC_PID=REDACTED&STUDY_ID=691f8ca61c6b4dcbb0aeb5f4&SESSION_ID=691fbe931781ab827d249275","html-keyboard-response",17,445200,"0.0-316.0","iyVIJ3469Z1JPsBW+Z9zGQlEdYzT2m1z2XDBuxEChmeBCo9L/n7fq28R2JrGchhn4+rT/tzWnYohsNztKedERQLsuu8hmvZwZ8m6CGmxS+/Kg4fvFaYURQUpSWguHrRxaxi0WbOMzKb4KakBmqmpx+gbHT4W54z621aF1LnkNr56Sa5i11Wn1D3r8OH/y9iA++xxzwvHkU5GvGn9BjxhNBHpRfGB+H2DkJY6unOi0YRcujxhBTgIAgS3ELmR6QlPQy9ERuDvT4Iss8o58IVElhyisFv7TCHCazQ0SYQ6r6Xpb38Mxi5PcD6JcOUh2NmidKK4MM0iY1r6oDeggHGUiQ==","691f8ca61c6b4dcbb0aeb5f4","691fbe931781ab827d249275","index1","<span style='color:red'>Fail,<span style='color:red'>Fail,<span style='color:green'>Lift,<span style='color:green'>Lift,<span style='color:red'>Fail,<span style='color:red'>Fail,<span style='color:red'>Fail,<span style='color:red'>Fail,<span style='color:red'>Fail,<span style='color:green'>Lift,<span style='color:green'>Lift,<span style='color:red'>Fail","<span style='color:red'>Fail,<span style='color:red'>Fail,<span style='color:green'>Lift,<span style='color:green'>Lift,<span style='color:green'>Lift,<span style='color:green'>Lift,<span style='color:green'>Lift,<span style='color:red'>Fail,<span style='color:green'>Lift,<span style='color:green'>Lift,<span style='color:green'>Lift,<span style='color:red'>Fail","<span style='color:red'>Fail,<span style='color:green'>Lift,<span style='color:green'>Lift,<span style='color:red'>Fail,<span style='color:green'>Lift,<span style='color:green'>Lift","0,0,1,1,0,0,0,0,0,1,1,0","0,0,1,1,1,1,1,0,1,1,1,0","0,1,1,0,1,1",10,20,20,"","","<p style='font-size:30px'><b> New Contest! </b></p>","null","","",NA,2,"",NA,NA,NA,NA,NA,NA,NA,NA,NA,NA,NA,NA,NA,NA,NA,NA,NA,NA,NA,NA,NA,NA,NA,NA,NA,NA,NA,NA,NA,NA,NA,NA,NA,NA,NA,NA,NA,NA,NA,"",NA,NA,NA,NA,NA,NA,NA,NA,2025-11-21 01:35:00
"7941.199999988079","https://psyc-201.github.io/xiang2023/exp/index1.html?PROLIFIC_PID=REDACTED&STUDY_ID=691f8ca61c6b4dcbb0aeb5f4&SESSION_ID=691fbe931781ab827d249275","survey-html-form",18,453143,"0.0-317.0","iyVIJ3469Z1JPsBW+Z9zGQlEdYzT2m1z2XDBuxEChmeBCo9L/n7fq28R2JrGchhn4+rT/tzWnYohsNztKedERQLsuu8hmvZwZ8m6CGmxS+/Kg4fvFaYURQUpSWguHrRxaxi0WbOMzKb4KakBmqmpx+gbHT4W54z621aF1LnkNr56Sa5i11Wn1D3r8OH/y9iA++xxzwvHkU5GvGn9BjxhNBHpRfGB+H2DkJY6unOi0YRcujxhBTgIAgS3ELmR6QlPQy9ERuDvT4Iss8o58IVElhyisFv7TCHCazQ0SYQ6r6Xpb38Mxi5PcD6JcOUh2NmidKK4MM0iY1r6oDeggHGUiQ==","691f8ca61c6b4dcbb0aeb5f4","691fbe931781ab827d249275","index1","<span style='color:red'>Fail,<span style='color:red'>Fail,<span style='color:green'>Lift,<span style='color:green'>Lift,<span style='color:red'>Fail,<span style='color:red'>Fail,<span style='color:red'>Fail,<span style='color:red'>Fail,<span style='color:red'>Fail,<span style='color:green'>Lift,<span style='color:green'>Lift,<span style='color:red'>Fail","<span style='color:red'>Fail,<span style='color:red'>Fail,<span style='color:green'>Lift,<span style='color:green'>Lift,<span style='color:green'>Lift,<span style='color:green'>Lift,<span style='color:green'>Lift,<span style='color:red'>Fail,<span style='color:green'>Lift,<span style='color:green'>Lift,<span style='color:green'>Lift,<span style='color:red'>Fail","<span style='color:red'>Fail,<span style='color:green'>Lift,<span style='color:green'>Lift,<span style='color:red'>Fail,<span style='color:green'>Lift,<span style='color:green'>Lift","0,0,1,1,0,0,0,0,0,1,1,0","0,0,1,1,1,1,1,0,1,1,1,0","0,1,1,0,1,1",10,20,20,"","","","","{""box1"":""4"",""box2"":""4""}","",NA,2,"round1_outcome",1,2,1,4,4,NA,NA,0,0,10,4,4,NA,NA,0,0,10,NA,NA,NA,NA,NA,NA,NA,NA,NA,NA,NA,NA,NA,NA,NA,NA,NA,NA,NA,NA,NA,NA,"",NA,NA,NA,NA,NA,NA,NA,NA,2025-11-21 01:35:00
"6020.9000000059605","https://psyc-201.github.io/xiang2023/exp/index1.html?PROLIFIC_PID=REDACTED&STUDY_ID=691f8ca61c6b4dcbb0aeb5f4&SESSION_ID=691fbe931781ab827d249275","survey-html-form",19,459165,"0.0-318.0","iyVIJ3469Z1JPsBW+Z9zGQlEdYzT2m1z2XDBuxEChmeBCo9L/n7fq28R2JrGchhn4+rT/tzWnYohsNztKedERQLsuu8hmvZwZ8m6CGmxS+/Kg4fvFaYURQUpSWguHrRxaxi0WbOMzKb4KakBmqmpx+gbHT4W54z621aF1LnkNr56Sa5i11Wn1D3r8OH/y9iA++xxzwvHkU5GvGn9BjxhNBHpRfGB+H2DkJY6unOi0YRcujxhBTgIAgS3ELmR6QlPQy9ERuDvT4Iss8o58IVElhyisFv7TCHCazQ0SYQ6r6Xpb38Mxi5PcD6JcOUh2NmidKK4MM0iY1r6oDeggHGUiQ==","691f8ca61c6b4dcbb0aeb5f4","691fbe931781ab827d249275","index1","<span style='color:red'>Fail,<span style='color:red'>Fail,<span style='color:green'>Lift,<span style='color:green'>Lift,<span style='color:red'>Fail,<span style='color:red'>Fail,<span style='color:red'>Fail,<span style='color:red'>Fail,<span style='color:red'>Fail,<span style='color:green'>Lift,<span style='color:green'>Lift,<span style='color:red'>Fail","<span style='color:red'>Fail,<span style='color:red'>Fail,<span style='color:green'>Lift,<span style='color:green'>Lift,<span style='color:green'>Lift,<span style='color:green'>Lift,<span style='color:green'>Lift,<span style='color:red'>Fail,<span style='color:green'>Lift,<span style='color:green'>Lift,<span style='color:green'>Lift,<span style='color:red'>Fail","<span style='color:red'>Fail,<span style='color:green'>Lift,<span style='color:green'>Lift,<span style='color:red'>Fail,<span style='color:green'>Lift,<span style='color:green'>Lift","0,0,1,1,0,0,0,0,0,1,1,0","0,0,1,1,1,1,1,0,1,1,1,0","0,1,1,0,1,1",10,20,20,"","","","","{""box1"":""50"",""box2"":""50""}","",NA,2,"round2_ready",2,2,2,NA,NA,NA,NA,NA,NA,NA,NA,NA,NA,NA,NA,NA,NA,50,50,50,50,NA,NA,NA,NA,NA,NA,NA,NA,NA,NA,NA,NA,NA,NA,NA,NA,NA,NA,"",NA,NA,NA,NA,NA,NA,NA,NA,2025-11-21 01:35:00
"15915.59999999404","https://psyc-201.github.io/xiang2023/exp/index1.html?PROLIFIC_PID=REDACTED&STUDY_ID=691f8ca61c6b4dcbb0aeb5f4&SESSION_ID=691fbe931781ab827d249275","survey-html-form",20,475082,"0.0-319.0","iyVIJ3469Z1JPsBW+Z9zGQlEdYzT2m1z2XDBuxEChmeBCo9L/n7fq28R2JrGchhn4+rT/tzWnYohsNztKedERQLsuu8hmvZwZ8m6CGmxS+/Kg4fvFaYURQUpSWguHrRxaxi0WbOMzKb4KakBmqmpx+gbHT4W54z621aF1LnkNr56Sa5i11Wn1D3r8OH/y9iA++xxzwvHkU5GvGn9BjxhNBHpRfGB+H2DkJY6unOi0YRcujxhBTgIAgS3ELmR6QlPQy9ERuDvT4Iss8o58IVElhyisFv7TCHCazQ0SYQ6r6Xpb38Mxi5PcD6JcOUh2NmidKK4MM0iY1r6oDeggHGUiQ==","691f8ca61c6b4dcbb0aeb5f4","691fbe931781ab827d249275","index1","<span style='color:red'>Fail,<span style='color:red'>Fail,<span style='color:green'>Lift,<span style='color:green'>Lift,<span style='color:red'>Fail,<span style='color:red'>Fail,<span style='color:red'>Fail,<span style='color:red'>Fail,<span style='color:red'>Fail,<span style='color:green'>Lift,<span style='color:green'>Lift,<span style='color:red'>Fail","<span style='color:red'>Fail,<span style='color:red'>Fail,<span style='color:green'>Lift,<span style='color:green'>Lift,<span style='color:green'>Lift,<span style='color:green'>Lift,<span style='color:green'>Lift,<span style='color:red'>Fail,<span style='color:green'>Lift,<span style='color:green'>Lift,<span style='color:green'>Lift,<span style='color:red'>Fail","<span style='color:red'>Fail,<span style='color:green'>Lift,<span style='color:green'>Lift,<span style='color:red'>Fail,<span style='color:green'>Lift,<span style='color:green'>Lift","0,0,1,1,0,0,0,0,0,1,1,0","0,0,1,1,1,1,1,0,1,1,1,0","0,1,1,0,1,1",10,20,20,"","","","","{""box1"":""5"",""box2"":""5"",""box3"":""75"",""box4"":""75""}","",NA,2,"round2_outcome",3,2,2,5,5,75,75,1,1,20,NA,NA,NA,NA,NA,NA,NA,NA,NA,NA,NA,5,5,75,75,1,1,20,NA,NA,NA,NA,NA,NA,NA,NA,NA,NA,NA,"",NA,NA,NA,NA,NA,NA,NA,NA,2025-11-21 01:35:00
"4852.199999988079","https://psyc-201.github.io/xiang2023/exp/index1.html?PROLIFIC_PID=REDACTED&STUDY_ID=691f8ca61c6b4dcbb0aeb5f4&SESSION_ID=691fbe931781ab827d249275","survey-html-form",21,479935,"0.0-320.0","iyVIJ3469Z1JPsBW+Z9zGQlEdYzT2m1z2XDBuxEChmeBCo9L/n7fq28R2JrGchhn4+rT/tzWnYohsNztKedERQLsuu8hmvZwZ8m6CGmxS+/Kg4fvFaYURQUpSWguHrRxaxi0WbOMzKb4KakBmqmpx+gbHT4W54z621aF1LnkNr56Sa5i11Wn1D3r8OH/y9iA++xxzwvHkU5GvGn9BjxhNBHpRfGB+H2DkJY6unOi0YRcujxhBTgIAgS3ELmR6QlPQy9ERuDvT4Iss8o58IVElhyisFv7TCHCazQ0SYQ6r6Xpb38Mxi5PcD6JcOUh2NmidKK4MM0iY1r6oDeggHGUiQ==","691f8ca61c6b4dcbb0aeb5f4","691fbe931781ab827d249275","index1","<span style='color:red'>Fail,<span style='color:red'>Fail,<span style='color:green'>Lift,<span style='color:green'>Lift,<span style='color:red'>Fail,<span style='color:red'>Fail,<span style='color:red'>Fail,<span style='color:red'>Fail,<span style='color:red'>Fail,<span style='color:green'>Lift,<span style='color:green'>Lift,<span style='color:red'>Fail","<span style='color:red'>Fail,<span style='color:red'>Fail,<span style='color:green'>Lift,<span style='color:green'>Lift,<span style='color:green'>Lift,<span style='color:green'>Lift,<span style='color:green'>Lift,<span style='color:red'>Fail,<span style='color:green'>Lift,<span style='color:green'>Lift,<span style='color:green'>Lift,<span style='color:red'>Fail","<span style='color:red'>Fail,<span style='color:green'>Lift,<span style='color:green'>Lift,<span style='color:red'>Fail,<span style='color:green'>Lift,<span style='color:green'>Lift","0,0,1,1,0,0,0,0,0,1,1,0","0,0,1,1,1,1,1,0,1,1,1,0","0,1,1,0,1,1",10,20,20,"","","","","{""box1"":""90""}","",NA,2,"round3_ready",4,2,3,NA,NA,NA,NA,NA,NA,NA,NA,NA,NA,NA,NA,NA,NA,90,90,NA,NA,NA,NA,NA,NA,NA,NA,NA,90,90,NA,NA,NA,NA,NA,NA,NA,NA,NA,"",NA,NA,NA,NA,NA,NA,NA,NA,2025-11-21 01:35:00
"13694.5","https://psyc-201.github.io/xiang2023/exp/index1.html?PROLIFIC_PID=REDACTED&STUDY_ID=691f8ca61c6b4dcbb0aeb5f4&SESSION_ID=691fbe931781ab827d249275","survey-html-form",22,493631,"0.0-321.0-0.0","iyVIJ3469Z1JPsBW+Z9zGQlEdYzT2m1z2XDBuxEChmeBCo9L/n7fq28R2JrGchhn4+rT/tzWnYohsNztKedERQLsuu8hmvZwZ8m6CGmxS+/Kg4fvFaYURQUpSWguHrRxaxi0WbOMzKb4KakBmqmpx+gbHT4W54z621aF1LnkNr56Sa5i11Wn1D3r8OH/y9iA++xxzwvHkU5GvGn9BjxhNBHpRfGB+H2DkJY6unOi0YRcujxhBTgIAgS3ELmR6QlPQy9ERuDvT4Iss8o58IVElhyisFv7TCHCazQ0SYQ6r6Xpb38Mxi5PcD6JcOUh2NmidKK4MM0iY1r6oDeggHGUiQ==","691f8ca61c6b4dcbb0aeb5f4","691fbe931781ab827d249275","index1","<span style='color:red'>Fail,<span style='color:red'>Fail,<span style='color:green'>Lift,<span style='color:green'>Lift,<span style='color:red'>Fail,<span style='color:red'>Fail,<span style='color:red'>Fail,<span style='color:red'>Fail,<span style='color:red'>Fail,<span style='color:green'>Lift,<span style='color:green'>Lift,<span style='color:red'>Fail","<span style='color:red'>Fail,<span style='color:red'>Fail,<span style='color:green'>Lift,<span style='color:green'>Lift,<span style='color:green'>Lift,<span style='color:green'>Lift,<span style='color:green'>Lift,<span style='color:red'>Fail,<span style='color:green'>Lift,<span style='color:green'>Lift,<span style='color:green'>Lift,<span style='color:red'>Fail","<span style='color:red'>Fail,<span style='color:green'>Lift,<span style='color:green'>Lift,<span style='color:red'>Fail,<span style='color:green'>Lift,<span style='color:green'>Lift","0,0,1,1,0,0,0,0,0,1,1,0","0,0,1,1,1,1,1,0,1,1,1,0","0,1,1,0,1,1",10,20,20,"","","","","{""box1"":""5"",""box2"":""5"",""box3"":""50"",""box4"":""50""}","",NA,3,"round3_lift",5,2,3,5,5,50,50,1,1,20,NA,NA,NA,NA,NA,NA,NA,NA,NA,NA,NA,NA,NA,NA,NA,NA,NA,NA,NA,NA,NA,NA,5,5,1,1,20,50,50,"",NA,NA,NA,NA,NA,NA,NA,NA,2025-11-21 01:35:00
"null","https://psyc-201.github.io/xiang2023/exp/index1.html?PROLIFIC_PID=REDACTED&STUDY_ID=691f8ca61c6b4dcbb0aeb5f4&SESSION_ID=691fbe931781ab827d249275","html-keyboard-response",23,496639,"0.0-325.0","iyVIJ3469Z1JPsBW+Z9zGQlEdYzT2m1z2XDBuxEChmeBCo9L/n7fq28R2JrGchhn4+rT/tzWnYohsNztKedERQLsuu8hmvZwZ8m6CGmxS+/Kg4fvFaYURQUpSWguHrRxaxi0WbOMzKb4KakBmqmpx+gbHT4W54z621aF1LnkNr56Sa5i11Wn1D3r8OH/y9iA++xxzwvHkU5GvGn9BjxhNBHpRfGB+H2DkJY6unOi0YRcujxhBTgIAgS3ELmR6QlPQy9ERuDvT4Iss8o58IVElhyisFv7TCHCazQ0SYQ6r6Xpb38Mxi5PcD6JcOUh2NmidKK4MM0iY1r6oDeggHGUiQ==","691f8ca61c6b4dcbb0aeb5f4","691fbe931781ab827d249275","index1","<span style='color:red'>Fail,<span style='color:red'>Fail,<span style='color:green'>Lift,<span style='color:green'>Lift,<span style='color:red'>Fail,<span style='color:red'>Fail,<span style='color:red'>Fail,<span style='color:red'>Fail,<span style='color:red'>Fail,<span style='color:green'>Lift,<span style='color:green'>Lift,<span style='color:red'>Fail","<span style='color:red'>Fail,<span style='color:red'>Fail,<span style='color:green'>Lift,<span style='color:green'>Lift,<span style='color:green'>Lift,<span style='color:green'>Lift,<span style='color:green'>Lift,<span style='color:red'>Fail,<span style='color:green'>Lift,<span style='color:green'>Lift,<span style='color:green'>Lift,<span style='color:red'>Fail","<span style='color:red'>Fail,<span style='color:green'>Lift,<span style='color:green'>Lift,<span style='color:red'>Fail,<span style='color:green'>Lift,<span style='color:green'>Lift","0,0,1,1,0,0,0,0,0,1,1,0","0,0,1,1,1,1,1,0,1,1,1,0","0,1,1,0,1,1",10,20,20,"","","<p style='font-size:30px'><b> New Contest! </b></p>","null","","",NA,3,"",NA,NA,NA,NA,NA,NA,NA,NA,NA,NA,NA,NA,NA,NA,NA,NA,NA,NA,NA,NA,NA,NA,NA,NA,NA,NA,NA,NA,NA,NA,NA,NA,NA,NA,NA,NA,NA,NA,NA,"",NA,NA,NA,NA,NA,NA,NA,NA,2025-11-21 01:35:00
"9933.09999999404","https://psyc-201.github.io/xiang2023/exp/index1.html?PROLIFIC_PID=REDACTED&STUDY_ID=691f8ca61c6b4dcbb0aeb5f4&SESSION_ID=691fbe931781ab827d249275","survey-html-form",24,506574,"0.0-326.0","iyVIJ3469Z1JPsBW+Z9zGQlEdYzT2m1z2XDBuxEChmeBCo9L/n7fq28R2JrGchhn4+rT/tzWnYohsNztKedERQLsuu8hmvZwZ8m6CGmxS+/Kg4fvFaYURQUpSWguHrRxaxi0WbOMzKb4KakBmqmpx+gbHT4W54z621aF1LnkNr56Sa5i11Wn1D3r8OH/y9iA++xxzwvHkU5GvGn9BjxhNBHpRfGB+H2DkJY6unOi0YRcujxhBTgIAgS3ELmR6QlPQy9ERuDvT4Iss8o58IVElhyisFv7TCHCazQ0SYQ6r6Xpb38Mxi5PcD6JcOUh2NmidKK4MM0iY1r6oDeggHGUiQ==","691f8ca61c6b4dcbb0aeb5f4","691fbe931781ab827d249275","index1","<span style='color:red'>Fail,<span style='color:red'>Fail,<span style='color:green'>Lift,<span style='color:green'>Lift,<span style='color:red'>Fail,<span style='color:red'>Fail,<span style='color:red'>Fail,<span style='color:red'>Fail,<span style='color:red'>Fail,<span style='color:green'>Lift,<span style='color:green'>Lift,<span style='color:red'>Fail","<span style='color:red'>Fail,<span style='color:red'>Fail,<span style='color:green'>Lift,<span style='color:green'>Lift,<span style='color:green'>Lift,<span style='color:green'>Lift,<span style='color:green'>Lift,<span style='color:red'>Fail,<span style='color:green'>Lift,<span style='color:green'>Lift,<span style='color:green'>Lift,<span style='color:red'>Fail","<span style='color:red'>Fail,<span style='color:green'>Lift,<span style='color:green'>Lift,<span style='color:red'>Fail,<span style='color:green'>Lift,<span style='color:green'>Lift","0,0,1,1,0,0,0,0,0,1,1,0","0,0,1,1,1,1,1,0,1,1,1,0","0,1,1,0,1,1",10,20,20,"","","","","{""box1"":""7"",""box2"":""7"",""box3"":""50"",""box4"":""50""}","",NA,3,"round1_outcome",1,3,1,7,7,50,50,1,1,10,7,7,50,50,1,1,10,NA,NA,NA,NA,NA,NA,NA,NA,NA,NA,NA,NA,NA,NA,NA,NA,NA,NA,NA,NA,NA,NA,"",NA,NA,NA,NA,NA,NA,NA,NA,2025-11-21 01:35:00
"8689","https://psyc-201.github.io/xiang2023/exp/index1.html?PROLIFIC_PID=REDACTED&STUDY_ID=691f8ca61c6b4dcbb0aeb5f4&SESSION_ID=691fbe931781ab827d249275","survey-html-form",25,515265,"0.0-327.0","iyVIJ3469Z1JPsBW+Z9zGQlEdYzT2m1z2XDBuxEChmeBCo9L/n7fq28R2JrGchhn4+rT/tzWnYohsNztKedERQLsuu8hmvZwZ8m6CGmxS+/Kg4fvFaYURQUpSWguHrRxaxi0WbOMzKb4KakBmqmpx+gbHT4W54z621aF1LnkNr56Sa5i11Wn1D3r8OH/y9iA++xxzwvHkU5GvGn9BjxhNBHpRfGB+H2DkJY6unOi0YRcujxhBTgIAgS3ELmR6QlPQy9ERuDvT4Iss8o58IVElhyisFv7TCHCazQ0SYQ6r6Xpb38Mxi5PcD6JcOUh2NmidKK4MM0iY1r6oDeggHGUiQ==","691f8ca61c6b4dcbb0aeb5f4","691fbe931781ab827d249275","index1","<span style='color:red'>Fail,<span style='color:red'>Fail,<span style='color:green'>Lift,<span style='color:green'>Lift,<span style='color:red'>Fail,<span style='color:red'>Fail,<span style='color:red'>Fail,<span style='color:red'>Fail,<span style='color:red'>Fail,<span style='color:green'>Lift,<span style='color:green'>Lift,<span style='color:red'>Fail","<span style='color:red'>Fail,<span style='color:red'>Fail,<span style='color:green'>Lift,<span style='color:green'>Lift,<span style='color:green'>Lift,<span style='color:green'>Lift,<span style='color:green'>Lift,<span style='color:red'>Fail,<span style='color:green'>Lift,<span style='color:green'>Lift,<span style='color:green'>Lift,<span style='color:red'>Fail","<span style='color:red'>Fail,<span style='color:green'>Lift,<span style='color:green'>Lift,<span style='color:red'>Fail,<span style='color:green'>Lift,<span style='color:green'>Lift","0,0,1,1,0,0,0,0,0,1,1,0","0,0,1,1,1,1,1,0,1,1,1,0","0,1,1,0,1,1",10,20,20,"","","","","{""box1"":""90"",""box2"":""90""}","",NA,3,"round2_ready",2,3,2,NA,NA,NA,NA,NA,NA,NA,NA,NA,NA,NA,NA,NA,NA,90,90,90,90,NA,NA,NA,NA,NA,NA,NA,NA,NA,NA,NA,NA,NA,NA,NA,NA,NA,NA,"",NA,NA,NA,NA,NA,NA,NA,NA,2025-11-21 01:35:00
"20078.30000001192","https://psyc-201.github.io/xiang2023/exp/index1.html?PROLIFIC_PID=REDACTED&STUDY_ID=691f8ca61c6b4dcbb0aeb5f4&SESSION_ID=691fbe931781ab827d249275","survey-html-form",26,535346,"0.0-328.0","iyVIJ3469Z1JPsBW+Z9zGQlEdYzT2m1z2XDBuxEChmeBCo9L/n7fq28R2JrGchhn4+rT/tzWnYohsNztKedERQLsuu8hmvZwZ8m6CGmxS+/Kg4fvFaYURQUpSWguHrRxaxi0WbOMzKb4KakBmqmpx+gbHT4W54z621aF1LnkNr56Sa5i11Wn1D3r8OH/y9iA++xxzwvHkU5GvGn9BjxhNBHpRfGB+H2DkJY6unOi0YRcujxhBTgIAgS3ELmR6QlPQy9ERuDvT4Iss8o58IVElhyisFv7TCHCazQ0SYQ6r6Xpb38Mxi5PcD6JcOUh2NmidKK4MM0iY1r6oDeggHGUiQ==","691f8ca61c6b4dcbb0aeb5f4","691fbe931781ab827d249275","index1","<span style='color:red'>Fail,<span style='color:red'>Fail,<span style='color:green'>Lift,<span style='color:green'>Lift,<span style='color:red'>Fail,<span style='color:red'>Fail,<span style='color:red'>Fail,<span style='color:red'>Fail,<span style='color:red'>Fail,<span style='color:green'>Lift,<span style='color:green'>Lift,<span style='color:red'>Fail","<span style='color:red'>Fail,<span style='color:red'>Fail,<span style='color:green'>Lift,<span style='color:green'>Lift,<span style='color:green'>Lift,<span style='color:green'>Lift,<span style='color:green'>Lift,<span style='color:red'>Fail,<span style='color:green'>Lift,<span style='color:green'>Lift,<span style='color:green'>Lift,<span style='color:red'>Fail","<span style='color:red'>Fail,<span style='color:green'>Lift,<span style='color:green'>Lift,<span style='color:red'>Fail,<span style='color:green'>Lift,<span style='color:green'>Lift","0,0,1,1,0,0,0,0,0,1,1,0","0,0,1,1,1,1,1,0,1,1,1,0","0,1,1,0,1,1",10,20,20,"","","","","{""box1"":""7"",""box2"":""7"",""box3"":""60"",""box4"":""60""}","",NA,3,"round2_outcome",3,3,2,7,7,60,60,1,1,20,NA,NA,NA,NA,NA,NA,NA,NA,NA,NA,NA,7,7,60,60,1,1,20,NA,NA,NA,NA,NA,NA,NA,NA,NA,NA,NA,"",NA,NA,NA,NA,NA,NA,NA,NA,2025-11-21 01:35:00
"4855.200000017881","https://psyc-201.github.io/xiang2023/exp/index1.html?PROLIFIC_PID=REDACTED&STUDY_ID=691f8ca61c6b4dcbb0aeb5f4&SESSION_ID=691fbe931781ab827d249275","survey-html-form",27,540205,"0.0-329.0","iyVIJ3469Z1JPsBW+Z9zGQlEdYzT2m1z2XDBuxEChmeBCo9L/n7fq28R2JrGchhn4+rT/tzWnYohsNztKedERQLsuu8hmvZwZ8m6CGmxS+/Kg4fvFaYURQUpSWguHrRxaxi0WbOMzKb4KakBmqmpx+gbHT4W54z621aF1LnkNr56Sa5i11Wn1D3r8OH/y9iA++xxzwvHkU5GvGn9BjxhNBHpRfGB+H2DkJY6unOi0YRcujxhBTgIAgS3ELmR6QlPQy9ERuDvT4Iss8o58IVElhyisFv7TCHCazQ0SYQ6r6Xpb38Mxi5PcD6JcOUh2NmidKK4MM0iY1r6oDeggHGUiQ==","691f8ca61c6b4dcbb0aeb5f4","691fbe931781ab827d249275","index1","<span style='color:red'>Fail,<span style='color:red'>Fail,<span style='color:green'>Lift,<span style='color:green'>Lift,<span style='color:red'>Fail,<span style='color:red'>Fail,<span style='color:red'>Fail,<span style='color:red'>Fail,<span style='color:red'>Fail,<span style='color:green'>Lift,<span style='color:green'>Lift,<span style='color:red'>Fail","<span style='color:red'>Fail,<span style='color:red'>Fail,<span style='color:green'>Lift,<span style='color:green'>Lift,<span style='color:green'>Lift,<span style='color:green'>Lift,<span style='color:green'>Lift,<span style='color:red'>Fail,<span style='color:green'>Lift,<span style='color:green'>Lift,<span style='color:green'>Lift,<span style='color:red'>Fail","<span style='color:red'>Fail,<span style='color:green'>Lift,<span style='color:green'>Lift,<span style='color:red'>Fail,<span style='color:green'>Lift,<span style='color:green'>Lift","0,0,1,1,0,0,0,0,0,1,1,0","0,0,1,1,1,1,1,0,1,1,1,0","0,1,1,0,1,1",10,20,20,"","","","","{""box1"":""95""}","",NA,3,"round3_ready",4,3,3,NA,NA,NA,NA,NA,NA,NA,NA,NA,NA,NA,NA,NA,NA,95,95,NA,NA,NA,NA,NA,NA,NA,NA,NA,95,95,NA,NA,NA,NA,NA,NA,NA,NA,NA,"",NA,NA,NA,NA,NA,NA,NA,NA,2025-11-21 01:35:00
"11755.699999988079","https://psyc-201.github.io/xiang2023/exp/index1.html?PROLIFIC_PID=REDACTED&STUDY_ID=691f8ca61c6b4dcbb0aeb5f4&SESSION_ID=691fbe931781ab827d249275","survey-html-form",28,551962,"0.0-330.0-0.0","iyVIJ3469Z1JPsBW+Z9zGQlEdYzT2m1z2XDBuxEChmeBCo9L/n7fq28R2JrGchhn4+rT/tzWnYohsNztKedERQLsuu8hmvZwZ8m6CGmxS+/Kg4fvFaYURQUpSWguHrRxaxi0WbOMzKb4KakBmqmpx+gbHT4W54z621aF1LnkNr56Sa5i11Wn1D3r8OH/y9iA++xxzwvHkU5GvGn9BjxhNBHpRfGB+H2DkJY6unOi0YRcujxhBTgIAgS3ELmR6QlPQy9ERuDvT4Iss8o58IVElhyisFv7TCHCazQ0SYQ6r6Xpb38Mxi5PcD6JcOUh2NmidKK4MM0iY1r6oDeggHGUiQ==","691f8ca61c6b4dcbb0aeb5f4","691fbe931781ab827d249275","index1","<span style='color:red'>Fail,<span style='color:red'>Fail,<span style='color:green'>Lift,<span style='color:green'>Lift,<span style='color:red'>Fail,<span style='color:red'>Fail,<span style='color:red'>Fail,<span style='color:red'>Fail,<span style='color:red'>Fail,<span style='color:green'>Lift,<span style='color:green'>Lift,<span style='color:red'>Fail","<span style='color:red'>Fail,<span style='color:red'>Fail,<span style='color:green'>Lift,<span style='color:green'>Lift,<span style='color:green'>Lift,<span style='color:green'>Lift,<span style='color:green'>Lift,<span style='color:red'>Fail,<span style='color:green'>Lift,<span style='color:green'>Lift,<span style='color:green'>Lift,<span style='color:red'>Fail","<span style='color:red'>Fail,<span style='color:green'>Lift,<span style='color:green'>Lift,<span style='color:red'>Fail,<span style='color:green'>Lift,<span style='color:green'>Lift","0,0,1,1,0,0,0,0,0,1,1,0","0,0,1,1,1,1,1,0,1,1,1,0","0,1,1,0,1,1",10,20,20,"","","","","{""box1"":""7"",""box2"":""7"",""box3"":""60"",""box4"":""60""}","",NA,4,"round3_lift",5,3,3,7,7,60,60,1,1,20,NA,NA,NA,NA,NA,NA,NA,NA,NA,NA,NA,NA,NA,NA,NA,NA,NA,NA,NA,NA,NA,NA,7,7,1,1,20,60,60,"",NA,NA,NA,NA,NA,NA,NA,NA,2025-11-21 01:35:00
"null","https://psyc-201.github.io/xiang2023/exp/index1.html?PROLIFIC_PID=REDACTED&STUDY_ID=691f8ca61c6b4dcbb0aeb5f4&SESSION_ID=691fbe931781ab827d249275","html-keyboard-response",29,554968,"0.0-334.0","iyVIJ3469Z1JPsBW+Z9zGQlEdYzT2m1z2XDBuxEChmeBCo9L/n7fq28R2JrGchhn4+rT/tzWnYohsNztKedERQLsuu8hmvZwZ8m6CGmxS+/Kg4fvFaYURQUpSWguHrRxaxi0WbOMzKb4KakBmqmpx+gbHT4W54z621aF1LnkNr56Sa5i11Wn1D3r8OH/y9iA++xxzwvHkU5GvGn9BjxhNBHpRfGB+H2DkJY6unOi0YRcujxhBTgIAgS3ELmR6QlPQy9ERuDvT4Iss8o58IVElhyisFv7TCHCazQ0SYQ6r6Xpb38Mxi5PcD6JcOUh2NmidKK4MM0iY1r6oDeggHGUiQ==","691f8ca61c6b4dcbb0aeb5f4","691fbe931781ab827d249275","index1","<span style='color:red'>Fail,<span style='color:red'>Fail,<span style='color:green'>Lift,<span style='color:green'>Lift,<span style='color:red'>Fail,<span style='color:red'>Fail,<span style='color:red'>Fail,<span style='color:red'>Fail,<span style='color:red'>Fail,<span style='color:green'>Lift,<span style='color:green'>Lift,<span style='color:red'>Fail","<span style='color:red'>Fail,<span style='color:red'>Fail,<span style='color:green'>Lift,<span style='color:green'>Lift,<span style='color:green'>Lift,<span style='color:green'>Lift,<span style='color:green'>Lift,<span style='color:red'>Fail,<span style='color:green'>Lift,<span style='color:green'>Lift,<span style='color:green'>Lift,<span style='color:red'>Fail","<span style='color:red'>Fail,<span style='color:green'>Lift,<span style='color:green'>Lift,<span style='color:red'>Fail,<span style='color:green'>Lift,<span style='color:green'>Lift","0,0,1,1,0,0,0,0,0,1,1,0","0,0,1,1,1,1,1,0,1,1,1,0","0,1,1,0,1,1",10,20,20,"","","<p style='font-size:30px'><b> New Contest! </b></p>","null","","",NA,4,"",NA,NA,NA,NA,NA,NA,NA,NA,NA,NA,NA,NA,NA,NA,NA,NA,NA,NA,NA,NA,NA,NA,NA,NA,NA,NA,NA,NA,NA,NA,NA,NA,NA,NA,NA,NA,NA,NA,NA,"",NA,NA,NA,NA,NA,NA,NA,NA,2025-11-21 01:35:00
"18221.69999998808","https://psyc-201.github.io/xiang2023/exp/index1.html?PROLIFIC_PID=REDACTED&STUDY_ID=691f8ca61c6b4dcbb0aeb5f4&SESSION_ID=691fbe931781ab827d249275","survey-html-form",30,573191,"0.0-335.0","iyVIJ3469Z1JPsBW+Z9zGQlEdYzT2m1z2XDBuxEChmeBCo9L/n7fq28R2JrGchhn4+rT/tzWnYohsNztKedERQLsuu8hmvZwZ8m6CGmxS+/Kg4fvFaYURQUpSWguHrRxaxi0WbOMzKb4KakBmqmpx+gbHT4W54z621aF1LnkNr56Sa5i11Wn1D3r8OH/y9iA++xxzwvHkU5GvGn9BjxhNBHpRfGB+H2DkJY6unOi0YRcujxhBTgIAgS3ELmR6QlPQy9ERuDvT4Iss8o58IVElhyisFv7TCHCazQ0SYQ6r6Xpb38Mxi5PcD6JcOUh2NmidKK4MM0iY1r6oDeggHGUiQ==","691f8ca61c6b4dcbb0aeb5f4","691fbe931781ab827d249275","index1","<span style='color:red'>Fail,<span style='color:red'>Fail,<span style='color:green'>Lift,<span style='color:green'>Lift,<span style='color:red'>Fail,<span style='color:red'>Fail,<span style='color:red'>Fail,<span style='color:red'>Fail,<span style='color:red'>Fail,<span style='color:green'>Lift,<span style='color:green'>Lift,<span style='color:red'>Fail","<span style='color:red'>Fail,<span style='color:red'>Fail,<span style='color:green'>Lift,<span style='color:green'>Lift,<span style='color:green'>Lift,<span style='color:green'>Lift,<span style='color:green'>Lift,<span style='color:red'>Fail,<span style='color:green'>Lift,<span style='color:green'>Lift,<span style='color:green'>Lift,<span style='color:red'>Fail","<span style='color:red'>Fail,<span style='color:green'>Lift,<span style='color:green'>Lift,<span style='color:red'>Fail,<span style='color:green'>Lift,<span style='color:green'>Lift","0,0,1,1,0,0,0,0,0,1,1,0","0,0,1,1,1,1,1,0,1,1,1,0","0,1,1,0,1,1",10,20,20,"","","","","{""box1"":""4"",""box2"":""6"",""box4"":""60""}","",NA,4,"round1_outcome",1,4,1,4,6,NA,60,0,1,10,4,6,NA,60,0,1,10,NA,NA,NA,NA,NA,NA,NA,NA,NA,NA,NA,NA,NA,NA,NA,NA,NA,NA,NA,NA,NA,NA,"",NA,NA,NA,NA,NA,NA,NA,NA,2025-11-21 01:35:00
"7758.899999976158","https://psyc-201.github.io/xiang2023/exp/index1.html?PROLIFIC_PID=REDACTED&STUDY_ID=691f8ca61c6b4dcbb0aeb5f4&SESSION_ID=691fbe931781ab827d249275","survey-html-form",31,580951,"0.0-336.0","iyVIJ3469Z1JPsBW+Z9zGQlEdYzT2m1z2XDBuxEChmeBCo9L/n7fq28R2JrGchhn4+rT/tzWnYohsNztKedERQLsuu8hmvZwZ8m6CGmxS+/Kg4fvFaYURQUpSWguHrRxaxi0WbOMzKb4KakBmqmpx+gbHT4W54z621aF1LnkNr56Sa5i11Wn1D3r8OH/y9iA++xxzwvHkU5GvGn9BjxhNBHpRfGB+H2DkJY6unOi0YRcujxhBTgIAgS3ELmR6QlPQy9ERuDvT4Iss8o58IVElhyisFv7TCHCazQ0SYQ6r6Xpb38Mxi5PcD6JcOUh2NmidKK4MM0iY1r6oDeggHGUiQ==","691f8ca61c6b4dcbb0aeb5f4","691fbe931781ab827d249275","index1","<span style='color:red'>Fail,<span style='color:red'>Fail,<span style='color:green'>Lift,<span style='color:green'>Lift,<span style='color:red'>Fail,<span style='color:red'>Fail,<span style='color:red'>Fail,<span style='color:red'>Fail,<span style='color:red'>Fail,<span style='color:green'>Lift,<span style='color:green'>Lift,<span style='color:red'>Fail","<span style='color:red'>Fail,<span style='color:red'>Fail,<span style='color:green'>Lift,<span style='color:green'>Lift,<span style='color:green'>Lift,<span style='color:green'>Lift,<span style='color:green'>Lift,<span style='color:red'>Fail,<span style='color:green'>Lift,<span style='color:green'>Lift,<span style='color:green'>Lift,<span style='color:red'>Fail","<span style='color:red'>Fail,<span style='color:green'>Lift,<span style='color:green'>Lift,<span style='color:red'>Fail,<span style='color:green'>Lift,<span style='color:green'>Lift","0,0,1,1,0,0,0,0,0,1,1,0","0,0,1,1,1,1,1,0,1,1,1,0","0,1,1,0,1,1",10,20,20,"","","","","{""box1"":""60"",""box2"":""80""}","",NA,4,"round2_ready",2,4,2,NA,NA,NA,NA,NA,NA,NA,NA,NA,NA,NA,NA,NA,NA,60,80,60,80,NA,NA,NA,NA,NA,NA,NA,NA,NA,NA,NA,NA,NA,NA,NA,NA,NA,NA,"",NA,NA,NA,NA,NA,NA,NA,NA,2025-11-21 01:35:00
"14113.700000017881","https://psyc-201.github.io/xiang2023/exp/index1.html?PROLIFIC_PID=REDACTED&STUDY_ID=691f8ca61c6b4dcbb0aeb5f4&SESSION_ID=691fbe931781ab827d249275","survey-html-form",32,595067,"0.0-337.0","iyVIJ3469Z1JPsBW+Z9zGQlEdYzT2m1z2XDBuxEChmeBCo9L/n7fq28R2JrGchhn4+rT/tzWnYohsNztKedERQLsuu8hmvZwZ8m6CGmxS+/Kg4fvFaYURQUpSWguHrRxaxi0WbOMzKb4KakBmqmpx+gbHT4W54z621aF1LnkNr56Sa5i11Wn1D3r8OH/y9iA++xxzwvHkU5GvGn9BjxhNBHpRfGB+H2DkJY6unOi0YRcujxhBTgIAgS3ELmR6QlPQy9ERuDvT4Iss8o58IVElhyisFv7TCHCazQ0SYQ6r6Xpb38Mxi5PcD6JcOUh2NmidKK4MM0iY1r6oDeggHGUiQ==","691f8ca61c6b4dcbb0aeb5f4","691fbe931781ab827d249275","index1","<span style='color:red'>Fail,<span style='color:red'>Fail,<span style='color:green'>Lift,<span style='color:green'>Lift,<span style='color:red'>Fail,<span style='color:red'>Fail,<span style='color:red'>Fail,<span style='color:red'>Fail,<span style='color:red'>Fail,<span style='color:green'>Lift,<span style='color:green'>Lift,<span style='color:red'>Fail","<span style='color:red'>Fail,<span style='color:red'>Fail,<span style='color:green'>Lift,<span style='color:green'>Lift,<span style='color:green'>Lift,<span style='color:green'>Lift,<span style='color:green'>Lift,<span style='color:red'>Fail,<span style='color:green'>Lift,<span style='color:green'>Lift,<span style='color:green'>Lift,<span style='color:red'>Fail","<span style='color:red'>Fail,<span style='color:green'>Lift,<span style='color:green'>Lift,<span style='color:red'>Fail,<span style='color:green'>Lift,<span style='color:green'>Lift","0,0,1,1,0,0,0,0,0,1,1,0","0,0,1,1,1,1,1,0,1,1,1,0","0,1,1,0,1,1",10,20,20,"","","","","{""box1"":""4"",""box2"":""7"",""box3"":""60"",""box4"":""50""}","",NA,4,"round2_outcome",3,4,2,4,7,60,50,1,1,20,NA,NA,NA,NA,NA,NA,NA,NA,NA,NA,NA,4,7,60,50,1,1,20,NA,NA,NA,NA,NA,NA,NA,NA,NA,NA,NA,"",NA,NA,NA,NA,NA,NA,NA,NA,2025-11-21 01:35:00
"10606.100000023842","https://psyc-201.github.io/xiang2023/exp/index1.html?PROLIFIC_PID=REDACTED&STUDY_ID=691f8ca61c6b4dcbb0aeb5f4&SESSION_ID=691fbe931781ab827d249275","survey-html-form",33,605675,"0.0-338.0","iyVIJ3469Z1JPsBW+Z9zGQlEdYzT2m1z2XDBuxEChmeBCo9L/n7fq28R2JrGchhn4+rT/tzWnYohsNztKedERQLsuu8hmvZwZ8m6CGmxS+/Kg4fvFaYURQUpSWguHrRxaxi0WbOMzKb4KakBmqmpx+gbHT4W54z621aF1LnkNr56Sa5i11Wn1D3r8OH/y9iA++xxzwvHkU5GvGn9BjxhNBHpRfGB+H2DkJY6unOi0YRcujxhBTgIAgS3ELmR6QlPQy9ERuDvT4Iss8o58IVElhyisFv7TCHCazQ0SYQ6r6Xpb38Mxi5PcD6JcOUh2NmidKK4MM0iY1r6oDeggHGUiQ==","691f8ca61c6b4dcbb0aeb5f4","691fbe931781ab827d249275","index1","<span style='color:red'>Fail,<span style='color:red'>Fail,<span style='color:green'>Lift,<span style='color:green'>Lift,<span style='color:red'>Fail,<span style='color:red'>Fail,<span style='color:red'>Fail,<span style='color:red'>Fail,<span style='color:red'>Fail,<span style='color:green'>Lift,<span style='color:green'>Lift,<span style='color:red'>Fail","<span style='color:red'>Fail,<span style='color:red'>Fail,<span style='color:green'>Lift,<span style='color:green'>Lift,<span style='color:green'>Lift,<span style='color:green'>Lift,<span style='color:green'>Lift,<span style='color:red'>Fail,<span style='color:green'>Lift,<span style='color:green'>Lift,<span style='color:green'>Lift,<span style='color:red'>Fail","<span style='color:red'>Fail,<span style='color:green'>Lift,<span style='color:green'>Lift,<span style='color:red'>Fail,<span style='color:green'>Lift,<span style='color:green'>Lift","0,0,1,1,0,0,0,0,0,1,1,0","0,0,1,1,1,1,1,0,1,1,1,0","0,1,1,0,1,1",10,20,20,"","","","","{""box1"":""80""}","",NA,4,"round3_ready",4,4,3,NA,NA,NA,NA,NA,NA,NA,NA,NA,NA,NA,NA,NA,NA,80,80,NA,NA,NA,NA,NA,NA,NA,NA,NA,80,80,NA,NA,NA,NA,NA,NA,NA,NA,NA,"",NA,NA,NA,NA,NA,NA,NA,NA,2025-11-21 01:35:00
"11958.40000000596","https://psyc-201.github.io/xiang2023/exp/index1.html?PROLIFIC_PID=REDACTED&STUDY_ID=691f8ca61c6b4dcbb0aeb5f4&SESSION_ID=691fbe931781ab827d249275","survey-html-form",34,617635,"0.0-339.0-0.0","iyVIJ3469Z1JPsBW+Z9zGQlEdYzT2m1z2XDBuxEChmeBCo9L/n7fq28R2JrGchhn4+rT/tzWnYohsNztKedERQLsuu8hmvZwZ8m6CGmxS+/Kg4fvFaYURQUpSWguHrRxaxi0WbOMzKb4KakBmqmpx+gbHT4W54z621aF1LnkNr56Sa5i11Wn1D3r8OH/y9iA++xxzwvHkU5GvGn9BjxhNBHpRfGB+H2DkJY6unOi0YRcujxhBTgIAgS3ELmR6QlPQy9ERuDvT4Iss8o58IVElhyisFv7TCHCazQ0SYQ6r6Xpb38Mxi5PcD6JcOUh2NmidKK4MM0iY1r6oDeggHGUiQ==","691f8ca61c6b4dcbb0aeb5f4","691fbe931781ab827d249275","index1","<span style='color:red'>Fail,<span style='color:red'>Fail,<span style='color:green'>Lift,<span style='color:green'>Lift,<span style='color:red'>Fail,<span style='color:red'>Fail,<span style='color:red'>Fail,<span style='color:red'>Fail,<span style='color:red'>Fail,<span style='color:green'>Lift,<span style='color:green'>Lift,<span style='color:red'>Fail","<span style='color:red'>Fail,<span style='color:red'>Fail,<span style='color:green'>Lift,<span style='color:green'>Lift,<span style='color:green'>Lift,<span style='color:green'>Lift,<span style='color:green'>Lift,<span style='color:red'>Fail,<span style='color:green'>Lift,<span style='color:green'>Lift,<span style='color:green'>Lift,<span style='color:red'>Fail","<span style='color:red'>Fail,<span style='color:green'>Lift,<span style='color:green'>Lift,<span style='color:red'>Fail,<span style='color:green'>Lift,<span style='color:green'>Lift","0,0,1,1,0,0,0,0,0,1,1,0","0,0,1,1,1,1,1,0,1,1,1,0","0,1,1,0,1,1",10,20,20,"","","","","{""box1"":""5"",""box2"":""7"",""box3"":""50"",""box4"":""40""}","",NA,5,"round3_lift",5,4,3,5,7,50,40,1,1,20,NA,NA,NA,NA,NA,NA,NA,NA,NA,NA,NA,NA,NA,NA,NA,NA,NA,NA,NA,NA,NA,NA,5,7,1,1,20,50,40,"",NA,NA,NA,NA,NA,NA,NA,NA,2025-11-21 01:35:00
"null","https://psyc-201.github.io/xiang2023/exp/index1.html?PROLIFIC_PID=REDACTED&STUDY_ID=691f8ca61c6b4dcbb0aeb5f4&SESSION_ID=691fbe931781ab827d249275","html-keyboard-response",35,620646,"0.0-343.0","iyVIJ3469Z1JPsBW+Z9zGQlEdYzT2m1z2XDBuxEChmeBCo9L/n7fq28R2JrGchhn4+rT/tzWnYohsNztKedERQLsuu8hmvZwZ8m6CGmxS+/Kg4fvFaYURQUpSWguHrRxaxi0WbOMzKb4KakBmqmpx+gbHT4W54z621aF1LnkNr56Sa5i11Wn1D3r8OH/y9iA++xxzwvHkU5GvGn9BjxhNBHpRfGB+H2DkJY6unOi0YRcujxhBTgIAgS3ELmR6QlPQy9ERuDvT4Iss8o58IVElhyisFv7TCHCazQ0SYQ6r6Xpb38Mxi5PcD6JcOUh2NmidKK4MM0iY1r6oDeggHGUiQ==","691f8ca61c6b4dcbb0aeb5f4","691fbe931781ab827d249275","index1","<span style='color:red'>Fail,<span style='color:red'>Fail,<span style='color:green'>Lift,<span style='color:green'>Lift,<span style='color:red'>Fail,<span style='color:red'>Fail,<span style='color:red'>Fail,<span style='color:red'>Fail,<span style='color:red'>Fail,<span style='color:green'>Lift,<span style='color:green'>Lift,<span style='color:red'>Fail","<span style='color:red'>Fail,<span style='color:red'>Fail,<span style='color:green'>Lift,<span style='color:green'>Lift,<span style='color:green'>Lift,<span style='color:green'>Lift,<span style='color:green'>Lift,<span style='color:red'>Fail,<span style='color:green'>Lift,<span style='color:green'>Lift,<span style='color:green'>Lift,<span style='color:red'>Fail","<span style='color:red'>Fail,<span style='color:green'>Lift,<span style='color:green'>Lift,<span style='color:red'>Fail,<span style='color:green'>Lift,<span style='color:green'>Lift","0,0,1,1,0,0,0,0,0,1,1,0","0,0,1,1,1,1,1,0,1,1,1,0","0,1,1,0,1,1",10,20,20,"","","<p style='font-size:30px'><b> New Contest! </b></p>","null","","",NA,5,"",NA,NA,NA,NA,NA,NA,NA,NA,NA,NA,NA,NA,NA,NA,NA,NA,NA,NA,NA,NA,NA,NA,NA,NA,NA,NA,NA,NA,NA,NA,NA,NA,NA,NA,NA,NA,NA,NA,NA,"",NA,NA,NA,NA,NA,NA,NA,NA,2025-11-21 01:35:00
"15472","https://psyc-201.github.io/xiang2023/exp/index1.html?PROLIFIC_PID=REDACTED&STUDY_ID=691f8ca61c6b4dcbb0aeb5f4&SESSION_ID=691fbe931781ab827d249275","survey-html-form",36,636119,"0.0-344.0","iyVIJ3469Z1JPsBW+Z9zGQlEdYzT2m1z2XDBuxEChmeBCo9L/n7fq28R2JrGchhn4+rT/tzWnYohsNztKedERQLsuu8hmvZwZ8m6CGmxS+/Kg4fvFaYURQUpSWguHrRxaxi0WbOMzKb4KakBmqmpx+gbHT4W54z621aF1LnkNr56Sa5i11Wn1D3r8OH/y9iA++xxzwvHkU5GvGn9BjxhNBHpRfGB+H2DkJY6unOi0YRcujxhBTgIAgS3ELmR6QlPQy9ERuDvT4Iss8o58IVElhyisFv7TCHCazQ0SYQ6r6Xpb38Mxi5PcD6JcOUh2NmidKK4MM0iY1r6oDeggHGUiQ==","691f8ca61c6b4dcbb0aeb5f4","691fbe931781ab827d249275","index1","<span style='color:red'>Fail,<span style='color:red'>Fail,<span style='color:green'>Lift,<span style='color:green'>Lift,<span style='color:red'>Fail,<span style='color:red'>Fail,<span style='color:red'>Fail,<span style='color:red'>Fail,<span style='color:red'>Fail,<span style='color:green'>Lift,<span style='color:green'>Lift,<span style='color:red'>Fail","<span style='color:red'>Fail,<span style='color:red'>Fail,<span style='color:green'>Lift,<span style='color:green'>Lift,<span style='color:green'>Lift,<span style='color:green'>Lift,<span style='color:green'>Lift,<span style='color:red'>Fail,<span style='color:green'>Lift,<span style='color:green'>Lift,<span style='color:green'>Lift,<span style='color:red'>Fail","<span style='color:red'>Fail,<span style='color:green'>Lift,<span style='color:green'>Lift,<span style='color:red'>Fail,<span style='color:green'>Lift,<span style='color:green'>Lift","0,0,1,1,0,0,0,0,0,1,1,0","0,0,1,1,1,1,1,0,1,1,1,0","0,1,1,0,1,1",10,20,20,"","","","","{""box1"":""7"",""box2"":""5"",""box3"":""60""}","",NA,5,"round1_outcome",1,5,1,7,5,60,NA,1,0,10,7,5,60,NA,1,0,10,NA,NA,NA,NA,NA,NA,NA,NA,NA,NA,NA,NA,NA,NA,NA,NA,NA,NA,NA,NA,NA,NA,"",NA,NA,NA,NA,NA,NA,NA,NA,2025-11-21 01:35:00
"52914.20000001788","https://psyc-201.github.io/xiang2023/exp/index1.html?PROLIFIC_PID=REDACTED&STUDY_ID=691f8ca61c6b4dcbb0aeb5f4&SESSION_ID=691fbe931781ab827d249275","survey-html-form",37,689035,"0.0-345.0","iyVIJ3469Z1JPsBW+Z9zGQlEdYzT2m1z2XDBuxEChmeBCo9L/n7fq28R2JrGchhn4+rT/tzWnYohsNztKedERQLsuu8hmvZwZ8m6CGmxS+/Kg4fvFaYURQUpSWguHrRxaxi0WbOMzKb4KakBmqmpx+gbHT4W54z621aF1LnkNr56Sa5i11Wn1D3r8OH/y9iA++xxzwvHkU5GvGn9BjxhNBHpRfGB+H2DkJY6unOi0YRcujxhBTgIAgS3ELmR6QlPQy9ERuDvT4Iss8o58IVElhyisFv7TCHCazQ0SYQ6r6Xpb38Mxi5PcD6JcOUh2NmidKK4MM0iY1r6oDeggHGUiQ==","691f8ca61c6b4dcbb0aeb5f4","691fbe931781ab827d249275","index1","<span style='color:red'>Fail,<span style='color:red'>Fail,<span style='color:green'>Lift,<span style='color:green'>Lift,<span style='color:red'>Fail,<span style='color:red'>Fail,<span style='color:red'>Fail,<span style='color:red'>Fail,<span style='color:red'>Fail,<span style='color:green'>Lift,<span style='color:green'>Lift,<span style='color:red'>Fail","<span style='color:red'>Fail,<span style='color:red'>Fail,<span style='color:green'>Lift,<span style='color:green'>Lift,<span style='color:green'>Lift,<span style='color:green'>Lift,<span style='color:green'>Lift,<span style='color:red'>Fail,<span style='color:green'>Lift,<span style='color:green'>Lift,<span style='color:green'>Lift,<span style='color:red'>Fail","<span style='color:red'>Fail,<span style='color:green'>Lift,<span style='color:green'>Lift,<span style='color:red'>Fail,<span style='color:green'>Lift,<span style='color:green'>Lift","0,0,1,1,0,0,0,0,0,1,1,0","0,0,1,1,1,1,1,0,1,1,1,0","0,1,1,0,1,1",10,20,20,"","","","","{""box1"":""75"",""box2"":""50""}","",NA,5,"round2_ready",2,5,2,NA,NA,NA,NA,NA,NA,NA,NA,NA,NA,NA,NA,NA,NA,75,50,75,50,NA,NA,NA,NA,NA,NA,NA,NA,NA,NA,NA,NA,NA,NA,NA,NA,NA,NA,"",NA,NA,NA,NA,NA,NA,NA,NA,2025-11-21 01:35:00
"14118.300000011921","https://psyc-201.github.io/xiang2023/exp/index1.html?PROLIFIC_PID=REDACTED&STUDY_ID=691f8ca61c6b4dcbb0aeb5f4&SESSION_ID=691fbe931781ab827d249275","survey-html-form",38,703155,"0.0-346.0","iyVIJ3469Z1JPsBW+Z9zGQlEdYzT2m1z2XDBuxEChmeBCo9L/n7fq28R2JrGchhn4+rT/tzWnYohsNztKedERQLsuu8hmvZwZ8m6CGmxS+/Kg4fvFaYURQUpSWguHrRxaxi0WbOMzKb4KakBmqmpx+gbHT4W54z621aF1LnkNr56Sa5i11Wn1D3r8OH/y9iA++xxzwvHkU5GvGn9BjxhNBHpRfGB+H2DkJY6unOi0YRcujxhBTgIAgS3ELmR6QlPQy9ERuDvT4Iss8o58IVElhyisFv7TCHCazQ0SYQ6r6Xpb38Mxi5PcD6JcOUh2NmidKK4MM0iY1r6oDeggHGUiQ==","691f8ca61c6b4dcbb0aeb5f4","691fbe931781ab827d249275","index1","<span style='color:red'>Fail,<span style='color:red'>Fail,<span style='color:green'>Lift,<span style='color:green'>Lift,<span style='color:red'>Fail,<span style='color:red'>Fail,<span style='color:red'>Fail,<span style='color:red'>Fail,<span style='color:red'>Fail,<span style='color:green'>Lift,<span style='color:green'>Lift,<span style='color:red'>Fail","<span style='color:red'>Fail,<span style='color:red'>Fail,<span style='color:green'>Lift,<span style='color:green'>Lift,<span style='color:green'>Lift,<span style='color:green'>Lift,<span style='color:green'>Lift,<span style='color:red'>Fail,<span style='color:green'>Lift,<span style='color:green'>Lift,<span style='color:green'>Lift,<span style='color:red'>Fail","<span style='color:red'>Fail,<span style='color:green'>Lift,<span style='color:green'>Lift,<span style='color:red'>Fail,<span style='color:green'>Lift,<span style='color:green'>Lift","0,0,1,1,0,0,0,0,0,1,1,0","0,0,1,1,1,1,1,0,1,1,1,0","0,1,1,0,1,1",10,20,20,"","","","","{""box1"":""7"",""box2"":""3"",""box3"":""60""}","",NA,5,"round2_outcome",3,5,2,7,3,60,NA,1,0,20,NA,NA,NA,NA,NA,NA,NA,NA,NA,NA,NA,7,3,60,NA,1,0,20,NA,NA,NA,NA,NA,NA,NA,NA,NA,NA,NA,"",NA,NA,NA,NA,NA,NA,NA,NA,2025-11-21 01:35:00
"4873.199999988079","https://psyc-201.github.io/xiang2023/exp/index1.html?PROLIFIC_PID=REDACTED&STUDY_ID=691f8ca61c6b4dcbb0aeb5f4&SESSION_ID=691fbe931781ab827d249275","survey-html-form",39,708030,"0.0-347.0","iyVIJ3469Z1JPsBW+Z9zGQlEdYzT2m1z2XDBuxEChmeBCo9L/n7fq28R2JrGchhn4+rT/tzWnYohsNztKedERQLsuu8hmvZwZ8m6CGmxS+/Kg4fvFaYURQUpSWguHrRxaxi0WbOMzKb4KakBmqmpx+gbHT4W54z621aF1LnkNr56Sa5i11Wn1D3r8OH/y9iA++xxzwvHkU5GvGn9BjxhNBHpRfGB+H2DkJY6unOi0YRcujxhBTgIAgS3ELmR6QlPQy9ERuDvT4Iss8o58IVElhyisFv7TCHCazQ0SYQ6r6Xpb38Mxi5PcD6JcOUh2NmidKK4MM0iY1r6oDeggHGUiQ==","691f8ca61c6b4dcbb0aeb5f4","691fbe931781ab827d249275","index1","<span style='color:red'>Fail,<span style='color:red'>Fail,<span style='color:green'>Lift,<span style='color:green'>Lift,<span style='color:red'>Fail,<span style='color:red'>Fail,<span style='color:red'>Fail,<span style='color:red'>Fail,<span style='color:red'>Fail,<span style='color:green'>Lift,<span style='color:green'>Lift,<span style='color:red'>Fail","<span style='color:red'>Fail,<span style='color:red'>Fail,<span style='color:green'>Lift,<span style='color:green'>Lift,<span style='color:green'>Lift,<span style='color:green'>Lift,<span style='color:green'>Lift,<span style='color:red'>Fail,<span style='color:green'>Lift,<span style='color:green'>Lift,<span style='color:green'>Lift,<span style='color:red'>Fail","<span style='color:red'>Fail,<span style='color:green'>Lift,<span style='color:green'>Lift,<span style='color:red'>Fail,<span style='color:green'>Lift,<span style='color:green'>Lift","0,0,1,1,0,0,0,0,0,1,1,0","0,0,1,1,1,1,1,0,1,1,1,0","0,1,1,0,1,1",10,20,20,"","","","","{""box1"":""75""}","",NA,5,"round3_ready",4,5,3,NA,NA,NA,NA,NA,NA,NA,NA,NA,NA,NA,NA,NA,NA,75,75,NA,NA,NA,NA,NA,NA,NA,NA,NA,75,75,NA,NA,NA,NA,NA,NA,NA,NA,NA,"",NA,NA,NA,NA,NA,NA,NA,NA,2025-11-21 01:35:00
"12105.5","https://psyc-201.github.io/xiang2023/exp/index1.html?PROLIFIC_PID=REDACTED&STUDY_ID=691f8ca61c6b4dcbb0aeb5f4&SESSION_ID=691fbe931781ab827d249275","survey-html-form",40,720138,"0.0-348.0-0.0","iyVIJ3469Z1JPsBW+Z9zGQlEdYzT2m1z2XDBuxEChmeBCo9L/n7fq28R2JrGchhn4+rT/tzWnYohsNztKedERQLsuu8hmvZwZ8m6CGmxS+/Kg4fvFaYURQUpSWguHrRxaxi0WbOMzKb4KakBmqmpx+gbHT4W54z621aF1LnkNr56Sa5i11Wn1D3r8OH/y9iA++xxzwvHkU5GvGn9BjxhNBHpRfGB+H2DkJY6unOi0YRcujxhBTgIAgS3ELmR6QlPQy9ERuDvT4Iss8o58IVElhyisFv7TCHCazQ0SYQ6r6Xpb38Mxi5PcD6JcOUh2NmidKK4MM0iY1r6oDeggHGUiQ==","691f8ca61c6b4dcbb0aeb5f4","691fbe931781ab827d249275","index1","<span style='color:red'>Fail,<span style='color:red'>Fail,<span style='color:green'>Lift,<span style='color:green'>Lift,<span style='color:red'>Fail,<span style='color:red'>Fail,<span style='color:red'>Fail,<span style='color:red'>Fail,<span style='color:red'>Fail,<span style='color:green'>Lift,<span style='color:green'>Lift,<span style='color:red'>Fail","<span style='color:red'>Fail,<span style='color:red'>Fail,<span style='color:green'>Lift,<span style='color:green'>Lift,<span style='color:green'>Lift,<span style='color:green'>Lift,<span style='color:green'>Lift,<span style='color:red'>Fail,<span style='color:green'>Lift,<span style='color:green'>Lift,<span style='color:green'>Lift,<span style='color:red'>Fail","<span style='color:red'>Fail,<span style='color:green'>Lift,<span style='color:green'>Lift,<span style='color:red'>Fail,<span style='color:green'>Lift,<span style='color:green'>Lift","0,0,1,1,0,0,0,0,0,1,1,0","0,0,1,1,1,1,1,0,1,1,1,0","0,1,1,0,1,1",10,20,20,"","","","","{""box1"":""7"",""box2"":""3"",""box3"":""50"",""box4"":""75""}","",NA,6,"round3_lift",5,5,3,7,3,50,75,1,1,20,NA,NA,NA,NA,NA,NA,NA,NA,NA,NA,NA,NA,NA,NA,NA,NA,NA,NA,NA,NA,NA,NA,7,3,1,1,20,50,75,"",NA,NA,NA,NA,NA,NA,NA,NA,2025-11-21 01:35:00
"null","https://psyc-201.github.io/xiang2023/exp/index1.html?PROLIFIC_PID=REDACTED&STUDY_ID=691f8ca61c6b4dcbb0aeb5f4&SESSION_ID=691fbe931781ab827d249275","html-keyboard-response",41,723145,"0.0-352.0","iyVIJ3469Z1JPsBW+Z9zGQlEdYzT2m1z2XDBuxEChmeBCo9L/n7fq28R2JrGchhn4+rT/tzWnYohsNztKedERQLsuu8hmvZwZ8m6CGmxS+/Kg4fvFaYURQUpSWguHrRxaxi0WbOMzKb4KakBmqmpx+gbHT4W54z621aF1LnkNr56Sa5i11Wn1D3r8OH/y9iA++xxzwvHkU5GvGn9BjxhNBHpRfGB+H2DkJY6unOi0YRcujxhBTgIAgS3ELmR6QlPQy9ERuDvT4Iss8o58IVElhyisFv7TCHCazQ0SYQ6r6Xpb38Mxi5PcD6JcOUh2NmidKK4MM0iY1r6oDeggHGUiQ==","691f8ca61c6b4dcbb0aeb5f4","691fbe931781ab827d249275","index1","<span style='color:red'>Fail,<span style='color:red'>Fail,<span style='color:green'>Lift,<span style='color:green'>Lift,<span style='color:red'>Fail,<span style='color:red'>Fail,<span style='color:red'>Fail,<span style='color:red'>Fail,<span style='color:red'>Fail,<span style='color:green'>Lift,<span style='color:green'>Lift,<span style='color:red'>Fail","<span style='color:red'>Fail,<span style='color:red'>Fail,<span style='color:green'>Lift,<span style='color:green'>Lift,<span style='color:green'>Lift,<span style='color:green'>Lift,<span style='color:green'>Lift,<span style='color:red'>Fail,<span style='color:green'>Lift,<span style='color:green'>Lift,<span style='color:green'>Lift,<span style='color:red'>Fail","<span style='color:red'>Fail,<span style='color:green'>Lift,<span style='color:green'>Lift,<span style='color:red'>Fail,<span style='color:green'>Lift,<span style='color:green'>Lift","0,0,1,1,0,0,0,0,0,1,1,0","0,0,1,1,1,1,1,0,1,1,1,0","0,1,1,0,1,1",10,20,20,"","","<p style='font-size:30px'><b> New Contest! </b></p>","null","","",NA,6,"",NA,NA,NA,NA,NA,NA,NA,NA,NA,NA,NA,NA,NA,NA,NA,NA,NA,NA,NA,NA,NA,NA,NA,NA,NA,NA,NA,NA,NA,NA,NA,NA,NA,NA,NA,NA,NA,NA,NA,"",NA,NA,NA,NA,NA,NA,NA,NA,2025-11-21 01:35:00
"4855.299999982119","https://psyc-201.github.io/xiang2023/exp/index1.html?PROLIFIC_PID=REDACTED&STUDY_ID=691f8ca61c6b4dcbb0aeb5f4&SESSION_ID=691fbe931781ab827d249275","survey-html-form",42,728001,"0.0-353.0","iyVIJ3469Z1JPsBW+Z9zGQlEdYzT2m1z2XDBuxEChmeBCo9L/n7fq28R2JrGchhn4+rT/tzWnYohsNztKedERQLsuu8hmvZwZ8m6CGmxS+/Kg4fvFaYURQUpSWguHrRxaxi0WbOMzKb4KakBmqmpx+gbHT4W54z621aF1LnkNr56Sa5i11Wn1D3r8OH/y9iA++xxzwvHkU5GvGn9BjxhNBHpRfGB+H2DkJY6unOi0YRcujxhBTgIAgS3ELmR6QlPQy9ERuDvT4Iss8o58IVElhyisFv7TCHCazQ0SYQ6r6Xpb38Mxi5PcD6JcOUh2NmidKK4MM0iY1r6oDeggHGUiQ==","691f8ca61c6b4dcbb0aeb5f4","691fbe931781ab827d249275","index1","<span style='color:red'>Fail,<span style='color:red'>Fail,<span style='color:green'>Lift,<span style='color:green'>Lift,<span style='color:red'>Fail,<span style='color:red'>Fail,<span style='color:red'>Fail,<span style='color:red'>Fail,<span style='color:red'>Fail,<span style='color:green'>Lift,<span style='color:green'>Lift,<span style='color:red'>Fail","<span style='color:red'>Fail,<span style='color:red'>Fail,<span style='color:green'>Lift,<span style='color:green'>Lift,<span style='color:green'>Lift,<span style='color:green'>Lift,<span style='color:green'>Lift,<span style='color:red'>Fail,<span style='color:green'>Lift,<span style='color:green'>Lift,<span style='color:green'>Lift,<span style='color:red'>Fail","<span style='color:red'>Fail,<span style='color:green'>Lift,<span style='color:green'>Lift,<span style='color:red'>Fail,<span style='color:green'>Lift,<span style='color:green'>Lift","0,0,1,1,0,0,0,0,0,1,1,0","0,0,1,1,1,1,1,0,1,1,1,0","0,1,1,0,1,1",10,20,20,"","","","","{""box1"":""3"",""box2"":""3""}","",NA,6,"round1_outcome",1,6,1,3,3,NA,NA,0,0,10,3,3,NA,NA,0,0,10,NA,NA,NA,NA,NA,NA,NA,NA,NA,NA,NA,NA,NA,NA,NA,NA,NA,NA,NA,NA,NA,NA,"",NA,NA,NA,NA,NA,NA,NA,NA,2025-11-21 01:35:00
"6933.0999999940395","https://psyc-201.github.io/xiang2023/exp/index1.html?PROLIFIC_PID=REDACTED&STUDY_ID=691f8ca61c6b4dcbb0aeb5f4&SESSION_ID=691fbe931781ab827d249275","survey-html-form",43,734936,"0.0-354.0","iyVIJ3469Z1JPsBW+Z9zGQlEdYzT2m1z2XDBuxEChmeBCo9L/n7fq28R2JrGchhn4+rT/tzWnYohsNztKedERQLsuu8hmvZwZ8m6CGmxS+/Kg4fvFaYURQUpSWguHrRxaxi0WbOMzKb4KakBmqmpx+gbHT4W54z621aF1LnkNr56Sa5i11Wn1D3r8OH/y9iA++xxzwvHkU5GvGn9BjxhNBHpRfGB+H2DkJY6unOi0YRcujxhBTgIAgS3ELmR6QlPQy9ERuDvT4Iss8o58IVElhyisFv7TCHCazQ0SYQ6r6Xpb38Mxi5PcD6JcOUh2NmidKK4MM0iY1r6oDeggHGUiQ==","691f8ca61c6b4dcbb0aeb5f4","691fbe931781ab827d249275","index1","<span style='color:red'>Fail,<span style='color:red'>Fail,<span style='color:green'>Lift,<span style='color:green'>Lift,<span style='color:red'>Fail,<span style='color:red'>Fail,<span style='color:red'>Fail,<span style='color:red'>Fail,<span style='color:red'>Fail,<span style='color:green'>Lift,<span style='color:green'>Lift,<span style='color:red'>Fail","<span style='color:red'>Fail,<span style='color:red'>Fail,<span style='color:green'>Lift,<span style='color:green'>Lift,<span style='color:green'>Lift,<span style='color:green'>Lift,<span style='color:green'>Lift,<span style='color:red'>Fail,<span style='color:green'>Lift,<span style='color:green'>Lift,<span style='color:green'>Lift,<span style='color:red'>Fail","<span style='color:red'>Fail,<span style='color:green'>Lift,<span style='color:green'>Lift,<span style='color:red'>Fail,<span style='color:green'>Lift,<span style='color:green'>Lift","0,0,1,1,0,0,0,0,0,1,1,0","0,0,1,1,1,1,1,0,1,1,1,0","0,1,1,0,1,1",10,20,20,"","","","","{""box1"":""50"",""box2"":""50""}","",NA,6,"round2_ready",2,6,2,NA,NA,NA,NA,NA,NA,NA,NA,NA,NA,NA,NA,NA,NA,50,50,50,50,NA,NA,NA,NA,NA,NA,NA,NA,NA,NA,NA,NA,NA,NA,NA,NA,NA,NA,"",NA,NA,NA,NA,NA,NA,NA,NA,2025-11-21 01:35:00
"13431.799999982119","https://psyc-201.github.io/xiang2023/exp/index1.html?PROLIFIC_PID=REDACTED&STUDY_ID=691f8ca61c6b4dcbb0aeb5f4&SESSION_ID=691fbe931781ab827d249275","survey-html-form",44,748369,"0.0-355.0","iyVIJ3469Z1JPsBW+Z9zGQlEdYzT2m1z2XDBuxEChmeBCo9L/n7fq28R2JrGchhn4+rT/tzWnYohsNztKedERQLsuu8hmvZwZ8m6CGmxS+/Kg4fvFaYURQUpSWguHrRxaxi0WbOMzKb4KakBmqmpx+gbHT4W54z621aF1LnkNr56Sa5i11Wn1D3r8OH/y9iA++xxzwvHkU5GvGn9BjxhNBHpRfGB+H2DkJY6unOi0YRcujxhBTgIAgS3ELmR6QlPQy9ERuDvT4Iss8o58IVElhyisFv7TCHCazQ0SYQ6r6Xpb38Mxi5PcD6JcOUh2NmidKK4MM0iY1r6oDeggHGUiQ==","691f8ca61c6b4dcbb0aeb5f4","691fbe931781ab827d249275","index1","<span style='color:red'>Fail,<span style='color:red'>Fail,<span style='color:green'>Lift,<span style='color:green'>Lift,<span style='color:red'>Fail,<span style='color:red'>Fail,<span style='color:red'>Fail,<span style='color:red'>Fail,<span style='color:red'>Fail,<span style='color:green'>Lift,<span style='color:green'>Lift,<span style='color:red'>Fail","<span style='color:red'>Fail,<span style='color:red'>Fail,<span style='color:green'>Lift,<span style='color:green'>Lift,<span style='color:green'>Lift,<span style='color:green'>Lift,<span style='color:green'>Lift,<span style='color:red'>Fail,<span style='color:green'>Lift,<span style='color:green'>Lift,<span style='color:green'>Lift,<span style='color:red'>Fail","<span style='color:red'>Fail,<span style='color:green'>Lift,<span style='color:green'>Lift,<span style='color:red'>Fail,<span style='color:green'>Lift,<span style='color:green'>Lift","0,0,1,1,0,0,0,0,0,1,1,0","0,0,1,1,1,1,1,0,1,1,1,0","0,1,1,0,1,1",10,20,20,"","","","","{""box1"":""6"",""box2"":""3"",""box3"":""100""}","",NA,6,"round2_outcome",3,6,2,6,3,100,NA,1,0,20,NA,NA,NA,NA,NA,NA,NA,NA,NA,NA,NA,6,3,100,NA,1,0,20,NA,NA,NA,NA,NA,NA,NA,NA,NA,NA,NA,"",NA,NA,NA,NA,NA,NA,NA,NA,2025-11-21 01:35:00
"3634.300000011921","https://psyc-201.github.io/xiang2023/exp/index1.html?PROLIFIC_PID=REDACTED&STUDY_ID=691f8ca61c6b4dcbb0aeb5f4&SESSION_ID=691fbe931781ab827d249275","survey-html-form",45,752004,"0.0-356.0","iyVIJ3469Z1JPsBW+Z9zGQlEdYzT2m1z2XDBuxEChmeBCo9L/n7fq28R2JrGchhn4+rT/tzWnYohsNztKedERQLsuu8hmvZwZ8m6CGmxS+/Kg4fvFaYURQUpSWguHrRxaxi0WbOMzKb4KakBmqmpx+gbHT4W54z621aF1LnkNr56Sa5i11Wn1D3r8OH/y9iA++xxzwvHkU5GvGn9BjxhNBHpRfGB+H2DkJY6unOi0YRcujxhBTgIAgS3ELmR6QlPQy9ERuDvT4Iss8o58IVElhyisFv7TCHCazQ0SYQ6r6Xpb38Mxi5PcD6JcOUh2NmidKK4MM0iY1r6oDeggHGUiQ==","691f8ca61c6b4dcbb0aeb5f4","691fbe931781ab827d249275","index1","<span style='color:red'>Fail,<span style='color:red'>Fail,<span style='color:green'>Lift,<span style='color:green'>Lift,<span style='color:red'>Fail,<span style='color:red'>Fail,<span style='color:red'>Fail,<span style='color:red'>Fail,<span style='color:red'>Fail,<span style='color:green'>Lift,<span style='color:green'>Lift,<span style='color:red'>Fail","<span style='color:red'>Fail,<span style='color:red'>Fail,<span style='color:green'>Lift,<span style='color:green'>Lift,<span style='color:green'>Lift,<span style='color:green'>Lift,<span style='color:green'>Lift,<span style='color:red'>Fail,<span style='color:green'>Lift,<span style='color:green'>Lift,<span style='color:green'>Lift,<span style='color:red'>Fail","<span style='color:red'>Fail,<span style='color:green'>Lift,<span style='color:green'>Lift,<span style='color:red'>Fail,<span style='color:green'>Lift,<span style='color:green'>Lift","0,0,1,1,0,0,0,0,0,1,1,0","0,0,1,1,1,1,1,0,1,1,1,0","0,1,1,0,1,1",10,20,20,"","","","","{""box1"":""30""}","",NA,6,"round3_ready",4,6,3,NA,NA,NA,NA,NA,NA,NA,NA,NA,NA,NA,NA,NA,NA,30,30,NA,NA,NA,NA,NA,NA,NA,NA,NA,30,30,NA,NA,NA,NA,NA,NA,NA,NA,NA,"",NA,NA,NA,NA,NA,NA,NA,NA,2025-11-21 01:35:00
"12161.90000000596","https://psyc-201.github.io/xiang2023/exp/index1.html?PROLIFIC_PID=REDACTED&STUDY_ID=691f8ca61c6b4dcbb0aeb5f4&SESSION_ID=691fbe931781ab827d249275","survey-html-form",46,764168,"0.0-358.0-0.0","iyVIJ3469Z1JPsBW+Z9zGQlEdYzT2m1z2XDBuxEChmeBCo9L/n7fq28R2JrGchhn4+rT/tzWnYohsNztKedERQLsuu8hmvZwZ8m6CGmxS+/Kg4fvFaYURQUpSWguHrRxaxi0WbOMzKb4KakBmqmpx+gbHT4W54z621aF1LnkNr56Sa5i11Wn1D3r8OH/y9iA++xxzwvHkU5GvGn9BjxhNBHpRfGB+H2DkJY6unOi0YRcujxhBTgIAgS3ELmR6QlPQy9ERuDvT4Iss8o58IVElhyisFv7TCHCazQ0SYQ6r6Xpb38Mxi5PcD6JcOUh2NmidKK4MM0iY1r6oDeggHGUiQ==","691f8ca61c6b4dcbb0aeb5f4","691fbe931781ab827d249275","index1","<span style='color:red'>Fail,<span style='color:red'>Fail,<span style='color:green'>Lift,<span style='color:green'>Lift,<span style='color:red'>Fail,<span style='color:red'>Fail,<span style='color:red'>Fail,<span style='color:red'>Fail,<span style='color:red'>Fail,<span style='color:green'>Lift,<span style='color:green'>Lift,<span style='color:red'>Fail","<span style='color:red'>Fail,<span style='color:red'>Fail,<span style='color:green'>Lift,<span style='color:green'>Lift,<span style='color:green'>Lift,<span style='color:green'>Lift,<span style='color:green'>Lift,<span style='color:red'>Fail,<span style='color:green'>Lift,<span style='color:green'>Lift,<span style='color:green'>Lift,<span style='color:red'>Fail","<span style='color:red'>Fail,<span style='color:green'>Lift,<span style='color:green'>Lift,<span style='color:red'>Fail,<span style='color:green'>Lift,<span style='color:green'>Lift","0,0,1,1,0,0,0,0,0,1,1,0","0,0,1,1,1,1,1,0,1,1,1,0","0,1,1,0,1,1",10,20,20,"","","","","{""box1"":""6"",""box2"":""3"",""box3"":""999"",""box4"":""999""}","",NA,6,"round3_fail",5,6,3,6,3,NA,NA,0,0,20,NA,NA,NA,NA,NA,NA,NA,NA,NA,NA,NA,NA,NA,NA,NA,NA,NA,NA,NA,NA,1,1,6,3,0,0,20,NA,NA,"",NA,NA,NA,NA,NA,NA,NA,NA,2025-11-21 01:35:00
"32733.59999999404","https://psyc-201.github.io/xiang2023/exp/index1.html?PROLIFIC_PID=REDACTED&STUDY_ID=691f8ca61c6b4dcbb0aeb5f4&SESSION_ID=691fbe931781ab827d249275","survey-text",47,796905,"0.0-361.0","iyVIJ3469Z1JPsBW+Z9zGQlEdYzT2m1z2XDBuxEChmeBCo9L/n7fq28R2JrGchhn4+rT/tzWnYohsNztKedERQLsuu8hmvZwZ8m6CGmxS+/Kg4fvFaYURQUpSWguHrRxaxi0WbOMzKb4KakBmqmpx+gbHT4W54z621aF1LnkNr56Sa5i11Wn1D3r8OH/y9iA++xxzwvHkU5GvGn9BjxhNBHpRfGB+H2DkJY6unOi0YRcujxhBTgIAgS3ELmR6QlPQy9ERuDvT4Iss8o58IVElhyisFv7TCHCazQ0SYQ6r6Xpb38Mxi5PcD6JcOUh2NmidKK4MM0iY1r6oDeggHGUiQ==","691f8ca61c6b4dcbb0aeb5f4","691fbe931781ab827d249275","index1","<span style='color:red'>Fail,<span style='color:red'>Fail,<span style='color:green'>Lift,<span style='color:green'>Lift,<span style='color:red'>Fail,<span style='color:red'>Fail,<span style='color:red'>Fail,<span style='color:red'>Fail,<span style='color:red'>Fail,<span style='color:green'>Lift,<span style='color:green'>Lift,<span style='color:red'>Fail","<span style='color:red'>Fail,<span style='color:red'>Fail,<span style='color:green'>Lift,<span style='color:green'>Lift,<span style='color:green'>Lift,<span style='color:green'>Lift,<span style='color:green'>Lift,<span style='color:red'>Fail,<span style='color:green'>Lift,<span style='color:green'>Lift,<span style='color:green'>Lift,<span style='color:red'>Fail","<span style='color:red'>Fail,<span style='color:green'>Lift,<span style='color:green'>Lift,<span style='color:red'>Fail,<span style='color:green'>Lift,<span style='color:green'>Lift","0,0,1,1,0,0,0,0,0,1,1,0","0,0,1,1,1,1,1,0,1,1,1,0","0,1,1,0,1,1",10,20,20,"","","","","{""Q0"":""A contest where to contestants lift a box.   THere are three rounds and preditions are made on strength and probability of success""}","",NA,NA,"",NA,NA,NA,NA,NA,NA,NA,NA,NA,NA,NA,NA,NA,NA,NA,NA,NA,NA,NA,NA,NA,NA,NA,NA,NA,NA,NA,NA,NA,NA,NA,NA,NA,NA,NA,NA,NA,NA,NA,"",NA,NA,NA,NA,NA,NA,NA,NA,2025-11-21 01:35:00
"3603.899999976158","https://psyc-201.github.io/xiang2023/exp/index1.html?PROLIFIC_PID=REDACTED&STUDY_ID=691f8ca61c6b4dcbb0aeb5f4&SESSION_ID=691fbe931781ab827d249275","survey-text",48,800511,"0.0-362.0","iyVIJ3469Z1JPsBW+Z9zGQlEdYzT2m1z2XDBuxEChmeBCo9L/n7fq28R2JrGchhn4+rT/tzWnYohsNztKedERQLsuu8hmvZwZ8m6CGmxS+/Kg4fvFaYURQUpSWguHrRxaxi0WbOMzKb4KakBmqmpx+gbHT4W54z621aF1LnkNr56Sa5i11Wn1D3r8OH/y9iA++xxzwvHkU5GvGn9BjxhNBHpRfGB+H2DkJY6unOi0YRcujxhBTgIAgS3ELmR6QlPQy9ERuDvT4Iss8o58IVElhyisFv7TCHCazQ0SYQ6r6Xpb38Mxi5PcD6JcOUh2NmidKK4MM0iY1r6oDeggHGUiQ==","691f8ca61c6b4dcbb0aeb5f4","691fbe931781ab827d249275","index1","<span style='color:red'>Fail,<span style='color:red'>Fail,<span style='color:green'>Lift,<span style='color:green'>Lift,<span style='color:red'>Fail,<span style='color:red'>Fail,<span style='color:red'>Fail,<span style='color:red'>Fail,<span style='color:red'>Fail,<span style='color:green'>Lift,<span style='color:green'>Lift,<span style='color:red'>Fail","<span style='color:red'>Fail,<span style='color:red'>Fail,<span style='color:green'>Lift,<span style='color:green'>Lift,<span style='color:green'>Lift,<span style='color:green'>Lift,<span style='color:green'>Lift,<span style='color:red'>Fail,<span style='color:green'>Lift,<span style='color:green'>Lift,<span style='color:green'>Lift,<span style='color:red'>Fail","<span style='color:red'>Fail,<span style='color:green'>Lift,<span style='color:green'>Lift,<span style='color:red'>Fail,<span style='color:green'>Lift,<span style='color:green'>Lift","0,0,1,1,0,0,0,0,0,1,1,0","0,0,1,1,1,1,1,0,1,1,1,0","0,1,1,0,1,1",10,20,20,"","","","","{""Q0"":""""}","",NA,NA,"",NA,NA,NA,NA,NA,NA,NA,NA,NA,NA,NA,NA,NA,NA,NA,NA,NA,NA,NA,NA,NA,NA,NA,NA,NA,NA,NA,NA,NA,NA,NA,NA,NA,NA,NA,NA,NA,NA,NA,"[{""event"":""fullscreenenter"",""trial"":1,""time"":12295}]",2,2,1,50,1,0.5,NA,NA,2025-11-21 01:35:00
"4272.5","https://psyc-201.github.io/xiang2023/exp/index1.html?PROLIFIC_PID=REDACTED&STUDY_ID=691f8ca61c6b4dcbb0aeb5f4&SESSION_ID=691fbe931781ab827d249275","html-button-response",49,804786,"0.0-363.0","iyVIJ3469Z1JPsBW+Z9zGQlEdYzT2m1z2XDBuxEChmeBCo9L/n7fq28R2JrGchhn4+rT/tzWnYohsNztKedERQLsuu8hmvZwZ8m6CGmxS+/Kg4fvFaYURQUpSWguHrRxaxi0WbOMzKb4KakBmqmpx+gbHT4W54z621aF1LnkNr56Sa5i11Wn1D3r8OH/y9iA++xxzwvHkU5GvGn9BjxhNBHpRfGB+H2DkJY6unOi0YRcujxhBTgIAgS3ELmR6QlPQy9ERuDvT4Iss8o58IVElhyisFv7TCHCazQ0SYQ6r6Xpb38Mxi5PcD6JcOUh2NmidKK4MM0iY1r6oDeggHGUiQ==","691f8ca61c6b4dcbb0aeb5f4","691fbe931781ab827d249275","index1","<span style='color:red'>Fail,<span style='color:red'>Fail,<span style='color:green'>Lift,<span style='color:green'>Lift,<span style='color:red'>Fail,<span style='color:red'>Fail,<span style='color:red'>Fail,<span style='color:red'>Fail,<span style='color:red'>Fail,<span style='color:green'>Lift,<span style='color:green'>Lift,<span style='color:red'>Fail","<span style='color:red'>Fail,<span style='color:red'>Fail,<span style='color:green'>Lift,<span style='color:green'>Lift,<span style='color:green'>Lift,<span style='color:green'>Lift,<span style='color:green'>Lift,<span style='color:red'>Fail,<span style='color:green'>Lift,<span style='color:green'>Lift,<span style='color:green'>Lift,<span style='color:red'>Fail","<span style='color:red'>Fail,<span style='color:green'>Lift,<span style='color:green'>Lift,<span style='color:red'>Fail,<span style='color:green'>Lift,<span style='color:green'>Lift","0,0,1,1,0,0,0,0,0,1,1,0","0,0,1,1,1,1,1,0,1,1,1,0","0,1,1,0,1,1",10,20,20,"","","<p> We randomly picked <b>Contest 2, Round 2</b> to calculate your bonus. </p><p> The outcome of Contestant D on that round is <span style='color:green'>Lift</span>. </p><p> The probability you entered was 50. </p><p><b> You won a bonus of $0.50!</b></p><p> IMPORTANT: Please click 'Next' to complete the game.</p>","","","",0,NA,"",NA,NA,NA,NA,NA,NA,NA,NA,NA,NA,NA,NA,NA,NA,NA,NA,NA,NA,NA,NA,NA,NA,NA,NA,NA,NA,NA,NA,NA,NA,NA,NA,NA,NA,NA,NA,NA,NA,NA,"",NA,NA,NA,NA,NA,NA,2,1,2025-11-21 01:35:00
