"rt","url","trial_type","trial_index","time_elapsed","internal_node_id","encryptedProlificId","studyId","sessionId","expIndex","round1_outcomes","round2_outcomes","round3_outcomes","round1_o","round2_o","round3_o","round1_reward","round2_reward","round3_reward","success","view_history","stimulus","key_press","responses","question_order","button_pressed","j","Stage","stage","contest","round","strength_a","strength_b","effort_a","effort_b","outcome_a","outcome_b","reward","r1_strength_a","r1_strength_b","r1_effort_a","r1_effort_b","r1_outcome_a","r1_outcome_b","r1_reward","probability_a","probability_b","r2_prob_a","r2_prob_b","r2_strength_a","r2_strength_b","r2_effort_a","r2_effort_b","r2_outcome_a","r2_outcome_b","r2_reward","r3_prob_a","r3_prob_b","r3_strength_a","r3_strength_b","r3_effort_a","r3_effort_b","r3_outcome_a","r3_outcome_b","r3_reward","attention_check","count","already","screen","pick_contest","pick_round","pick_side","trial_probability","trial_outcome","bonus","attention_sum","attention","datapipe_meta.attributes.date_modified"
"27692.70000000298","https://psyc-201.github.io/xiang2023/exp/index1.html?PROLIFIC_PID=REDACTED&STUDY_ID=691f8ca61c6b4dcbb0aeb5f4&SESSION_ID=691fb60ce261ea1dd0ead9cd","external-html",0,27727,"0.0-0.0","ghbrKNJ4SVLoVJn13dR1rrFouqJiG6nnU801K/W6YObuTCqREWF7+Y+AEnsnHQCb52XIbbwNPj8/ogbyVShjXP5Qhfxh6/AZLnxJWy26qZOtIzhrGp0ZSgwnfL1REgbxoKOm/e+IujWVgr216+r4ep7DYoKRvEIaDbwxnDKZVMFtSlhgGrK5f8dUu6c7YFX5rXM34/FFAxGA7p0X12qJtqP7iseycke5sDqpJeoQoEhUDB+Eux1jC4Fxwp4IJsHR8QwatuT6ZlIcUaHkGdrKru/3tYImDXqWT9g+dagtYQvxfJTcKjC5Vt5MWWDGxL12TSMEdYLPBfU66OVRRsuViw==","691f8ca61c6b4dcbb0aeb5f4","691fb60ce261ea1dd0ead9cd","index1","<span style='color:red'>Fail,<span style='color:red'>Fail,<span style='color:green'>Lift,<span style='color:green'>Lift,<span style='color:red'>Fail,<span style='color:red'>Fail,<span style='color:red'>Fail,<span style='color:red'>Fail,<span style='color:green'>Lift,<span style='color:red'>Fail,<span style='color:green'>Lift,<span style='color:red'>Fail","<span style='color:red'>Fail,<span style='color:red'>Fail,<span style='color:green'>Lift,<span style='color:green'>Lift,<span style='color:green'>Lift,<span style='color:green'>Lift,<span style='color:red'>Fail,<span style='color:green'>Lift,<span style='color:green'>Lift,<span style='color:green'>Lift,<span style='color:green'>Lift,<span style='color:red'>Fail","<span style='color:red'>Fail,<span style='color:green'>Lift,<span style='color:green'>Lift,<span style='color:red'>Fail,<span style='color:green'>Lift,<span style='color:green'>Lift","0,0,1,1,0,0,0,0,1,0,1,0","0,0,1,1,1,1,0,1,1,1,1,0","0,1,1,0,1,1",10,20,20,"","","","","","",NA,NA,"",NA,NA,NA,NA,NA,NA,NA,NA,NA,NA,NA,NA,NA,NA,NA,NA,NA,NA,NA,NA,NA,NA,NA,NA,NA,NA,NA,NA,NA,NA,NA,NA,NA,NA,NA,NA,NA,NA,NA,NA,"",NA,NA,NA,NA,NA,NA,NA,NA,2025-11-21 01:03:04
"","https://psyc-201.github.io/xiang2023/exp/index1.html?PROLIFIC_PID=REDACTED&STUDY_ID=691f8ca61c6b4dcbb0aeb5f4&SESSION_ID=691fb60ce261ea1dd0ead9cd","fullscreen",1,41239,"0.0-1.0","ghbrKNJ4SVLoVJn13dR1rrFouqJiG6nnU801K/W6YObuTCqREWF7+Y+AEnsnHQCb52XIbbwNPj8/ogbyVShjXP5Qhfxh6/AZLnxJWy26qZOtIzhrGp0ZSgwnfL1REgbxoKOm/e+IujWVgr216+r4ep7DYoKRvEIaDbwxnDKZVMFtSlhgGrK5f8dUu6c7YFX5rXM34/FFAxGA7p0X12qJtqP7iseycke5sDqpJeoQoEhUDB+Eux1jC4Fxwp4IJsHR8QwatuT6ZlIcUaHkGdrKru/3tYImDXqWT9g+dagtYQvxfJTcKjC5Vt5MWWDGxL12TSMEdYLPBfU66OVRRsuViw==","691f8ca61c6b4dcbb0aeb5f4","691fb60ce261ea1dd0ead9cd","index1","<span style='color:red'>Fail,<span style='color:red'>Fail,<span style='color:green'>Lift,<span style='color:green'>Lift,<span style='color:red'>Fail,<span style='color:red'>Fail,<span style='color:red'>Fail,<span style='color:red'>Fail,<span style='color:green'>Lift,<span style='color:red'>Fail,<span style='color:green'>Lift,<span style='color:red'>Fail","<span style='color:red'>Fail,<span style='color:red'>Fail,<span style='color:green'>Lift,<span style='color:green'>Lift,<span style='color:green'>Lift,<span style='color:green'>Lift,<span style='color:red'>Fail,<span style='color:green'>Lift,<span style='color:green'>Lift,<span style='color:green'>Lift,<span style='color:green'>Lift,<span style='color:red'>Fail","<span style='color:red'>Fail,<span style='color:green'>Lift,<span style='color:green'>Lift,<span style='color:red'>Fail,<span style='color:green'>Lift,<span style='color:green'>Lift","0,0,1,1,0,0,0,0,1,0,1,0","0,0,1,1,1,1,0,1,1,1,1,0","0,1,1,0,1,1",10,20,20,"true","","","","","",NA,NA,"",NA,NA,NA,NA,NA,NA,NA,NA,NA,NA,NA,NA,NA,NA,NA,NA,NA,NA,NA,NA,NA,NA,NA,NA,NA,NA,NA,NA,NA,NA,NA,NA,NA,NA,NA,NA,NA,NA,NA,NA,"",NA,NA,NA,NA,NA,NA,NA,NA,2025-11-21 01:03:04
"366545","https://psyc-201.github.io/xiang2023/exp/index1.html?PROLIFIC_PID=REDACTED&STUDY_ID=691f8ca61c6b4dcbb0aeb5f4&SESSION_ID=691fb60ce261ea1dd0ead9cd","instructions",2,407782,"0.0-2.0","ghbrKNJ4SVLoVJn13dR1rrFouqJiG6nnU801K/W6YObuTCqREWF7+Y+AEnsnHQCb52XIbbwNPj8/ogbyVShjXP5Qhfxh6/AZLnxJWy26qZOtIzhrGp0ZSgwnfL1REgbxoKOm/e+IujWVgr216+r4ep7DYoKRvEIaDbwxnDKZVMFtSlhgGrK5f8dUu6c7YFX5rXM34/FFAxGA7p0X12qJtqP7iseycke5sDqpJeoQoEhUDB+Eux1jC4Fxwp4IJsHR8QwatuT6ZlIcUaHkGdrKru/3tYImDXqWT9g+dagtYQvxfJTcKjC5Vt5MWWDGxL12TSMEdYLPBfU66OVRRsuViw==","691f8ca61c6b4dcbb0aeb5f4","691fb60ce261ea1dd0ead9cd","index1","<span style='color:red'>Fail,<span style='color:red'>Fail,<span style='color:green'>Lift,<span style='color:green'>Lift,<span style='color:red'>Fail,<span style='color:red'>Fail,<span style='color:red'>Fail,<span style='color:red'>Fail,<span style='color:green'>Lift,<span style='color:red'>Fail,<span style='color:green'>Lift,<span style='color:red'>Fail","<span style='color:red'>Fail,<span style='color:red'>Fail,<span style='color:green'>Lift,<span style='color:green'>Lift,<span style='color:green'>Lift,<span style='color:green'>Lift,<span style='color:red'>Fail,<span style='color:green'>Lift,<span style='color:green'>Lift,<span style='color:green'>Lift,<span style='color:green'>Lift,<span style='color:red'>Fail","<span style='color:red'>Fail,<span style='color:green'>Lift,<span style='color:green'>Lift,<span style='color:red'>Fail,<span style='color:green'>Lift,<span style='color:green'>Lift","0,0,1,1,0,0,0,0,1,0,1,0","0,0,1,1,1,1,0,1,1,1,1,0","0,1,1,0,1,1",10,20,20,"","[{""page_index"":0,""viewing_time"":108446.89999999106},{""page_index"":1,""viewing_time"":219595.90000000596},{""page_index"":2,""viewing_time"":9061.40000000596},{""page_index"":3,""viewing_time"":11980.89999999106},{""page_index"":4,""viewing_time"":2072.2999999970198},{""page_index"":5,""viewing_time"":7027.100000008941},{""page_index"":6,""viewing_time"":8359.79999999702}]","","","","",NA,NA,"",NA,NA,NA,NA,NA,NA,NA,NA,NA,NA,NA,NA,NA,NA,NA,NA,NA,NA,NA,NA,NA,NA,NA,NA,NA,NA,NA,NA,NA,NA,NA,NA,NA,NA,NA,NA,NA,NA,NA,NA,"",NA,NA,NA,NA,NA,NA,NA,NA,2025-11-21 01:03:04
"null","https://psyc-201.github.io/xiang2023/exp/index1.html?PROLIFIC_PID=REDACTED&STUDY_ID=691f8ca61c6b4dcbb0aeb5f4&SESSION_ID=691fb60ce261ea1dd0ead9cd","html-keyboard-response",3,408787,"0.0-3.0","ghbrKNJ4SVLoVJn13dR1rrFouqJiG6nnU801K/W6YObuTCqREWF7+Y+AEnsnHQCb52XIbbwNPj8/ogbyVShjXP5Qhfxh6/AZLnxJWy26qZOtIzhrGp0ZSgwnfL1REgbxoKOm/e+IujWVgr216+r4ep7DYoKRvEIaDbwxnDKZVMFtSlhgGrK5f8dUu6c7YFX5rXM34/FFAxGA7p0X12qJtqP7iseycke5sDqpJeoQoEhUDB+Eux1jC4Fxwp4IJsHR8QwatuT6ZlIcUaHkGdrKru/3tYImDXqWT9g+dagtYQvxfJTcKjC5Vt5MWWDGxL12TSMEdYLPBfU66OVRRsuViw==","691f8ca61c6b4dcbb0aeb5f4","691fb60ce261ea1dd0ead9cd","index1","<span style='color:red'>Fail,<span style='color:red'>Fail,<span style='color:green'>Lift,<span style='color:green'>Lift,<span style='color:red'>Fail,<span style='color:red'>Fail,<span style='color:red'>Fail,<span style='color:red'>Fail,<span style='color:green'>Lift,<span style='color:red'>Fail,<span style='color:green'>Lift,<span style='color:red'>Fail","<span style='color:red'>Fail,<span style='color:red'>Fail,<span style='color:green'>Lift,<span style='color:green'>Lift,<span style='color:green'>Lift,<span style='color:green'>Lift,<span style='color:red'>Fail,<span style='color:green'>Lift,<span style='color:green'>Lift,<span style='color:green'>Lift,<span style='color:green'>Lift,<span style='color:red'>Fail","<span style='color:red'>Fail,<span style='color:green'>Lift,<span style='color:green'>Lift,<span style='color:red'>Fail,<span style='color:green'>Lift,<span style='color:green'>Lift","0,0,1,1,0,0,0,0,1,0,1,0","0,0,1,1,1,1,0,1,1,1,1,0","0,1,1,0,1,1",10,20,20,"",""," ","null","","",NA,NA,"",NA,NA,NA,NA,NA,NA,NA,NA,NA,NA,NA,NA,NA,NA,NA,NA,NA,NA,NA,NA,NA,NA,NA,NA,NA,NA,NA,NA,NA,NA,NA,NA,NA,NA,NA,NA,NA,NA,NA,NA,"",NA,NA,NA,NA,NA,NA,NA,NA,2025-11-21 01:03:04
"29938.89999999106","https://psyc-201.github.io/xiang2023/exp/index1.html?PROLIFIC_PID=REDACTED&STUDY_ID=691f8ca61c6b4dcbb0aeb5f4&SESSION_ID=691fb60ce261ea1dd0ead9cd","survey-multi-choice",4,438728,"0.0-4.0","ghbrKNJ4SVLoVJn13dR1rrFouqJiG6nnU801K/W6YObuTCqREWF7+Y+AEnsnHQCb52XIbbwNPj8/ogbyVShjXP5Qhfxh6/AZLnxJWy26qZOtIzhrGp0ZSgwnfL1REgbxoKOm/e+IujWVgr216+r4ep7DYoKRvEIaDbwxnDKZVMFtSlhgGrK5f8dUu6c7YFX5rXM34/FFAxGA7p0X12qJtqP7iseycke5sDqpJeoQoEhUDB+Eux1jC4Fxwp4IJsHR8QwatuT6ZlIcUaHkGdrKru/3tYImDXqWT9g+dagtYQvxfJTcKjC5Vt5MWWDGxL12TSMEdYLPBfU66OVRRsuViw==","691f8ca61c6b4dcbb0aeb5f4","691fb60ce261ea1dd0ead9cd","index1","<span style='color:red'>Fail,<span style='color:red'>Fail,<span style='color:green'>Lift,<span style='color:green'>Lift,<span style='color:red'>Fail,<span style='color:red'>Fail,<span style='color:red'>Fail,<span style='color:red'>Fail,<span style='color:green'>Lift,<span style='color:red'>Fail,<span style='color:green'>Lift,<span style='color:red'>Fail","<span style='color:red'>Fail,<span style='color:red'>Fail,<span style='color:green'>Lift,<span style='color:green'>Lift,<span style='color:green'>Lift,<span style='color:green'>Lift,<span style='color:red'>Fail,<span style='color:green'>Lift,<span style='color:green'>Lift,<span style='color:green'>Lift,<span style='color:green'>Lift,<span style='color:red'>Fail","<span style='color:red'>Fail,<span style='color:green'>Lift,<span style='color:green'>Lift,<span style='color:red'>Fail,<span style='color:green'>Lift,<span style='color:green'>Lift","0,0,1,1,0,0,0,0,1,0,1,0","0,0,1,1,1,1,0,1,1,1,1,0","0,1,1,0,1,1",10,20,20,"","","","","{""Q0"":""It consists of multiple contests, each contest with three rounds."",""Q1"":""When a new round starts."",""Q2"":""The box weight changes across contests, but not across rounds within each contest."",""Q3"":""Each will get $20."",""Q4"":""How close my guesses are to the actual outcome.""}","[0,1,2,3,4]",NA,NA,"",NA,NA,NA,NA,NA,NA,NA,NA,NA,NA,NA,NA,NA,NA,NA,NA,NA,NA,NA,NA,NA,NA,NA,NA,NA,NA,NA,NA,NA,NA,NA,NA,NA,NA,NA,NA,NA,NA,NA,NA,"",NA,NA,NA,NA,NA,NA,NA,NA,2025-11-21 01:03:04
"2420.2999999970198","https://psyc-201.github.io/xiang2023/exp/index1.html?PROLIFIC_PID=REDACTED&STUDY_ID=691f8ca61c6b4dcbb0aeb5f4&SESSION_ID=691fb60ce261ea1dd0ead9cd","html-button-response",5,441149,"0.0-5.0-1.0","ghbrKNJ4SVLoVJn13dR1rrFouqJiG6nnU801K/W6YObuTCqREWF7+Y+AEnsnHQCb52XIbbwNPj8/ogbyVShjXP5Qhfxh6/AZLnxJWy26qZOtIzhrGp0ZSgwnfL1REgbxoKOm/e+IujWVgr216+r4ep7DYoKRvEIaDbwxnDKZVMFtSlhgGrK5f8dUu6c7YFX5rXM34/FFAxGA7p0X12qJtqP7iseycke5sDqpJeoQoEhUDB+Eux1jC4Fxwp4IJsHR8QwatuT6ZlIcUaHkGdrKru/3tYImDXqWT9g+dagtYQvxfJTcKjC5Vt5MWWDGxL12TSMEdYLPBfU66OVRRsuViw==","691f8ca61c6b4dcbb0aeb5f4","691fb60ce261ea1dd0ead9cd","index1","<span style='color:red'>Fail,<span style='color:red'>Fail,<span style='color:green'>Lift,<span style='color:green'>Lift,<span style='color:red'>Fail,<span style='color:red'>Fail,<span style='color:red'>Fail,<span style='color:red'>Fail,<span style='color:green'>Lift,<span style='color:red'>Fail,<span style='color:green'>Lift,<span style='color:red'>Fail","<span style='color:red'>Fail,<span style='color:red'>Fail,<span style='color:green'>Lift,<span style='color:green'>Lift,<span style='color:green'>Lift,<span style='color:green'>Lift,<span style='color:red'>Fail,<span style='color:green'>Lift,<span style='color:green'>Lift,<span style='color:green'>Lift,<span style='color:green'>Lift,<span style='color:red'>Fail","<span style='color:red'>Fail,<span style='color:green'>Lift,<span style='color:green'>Lift,<span style='color:red'>Fail,<span style='color:green'>Lift,<span style='color:green'>Lift","0,0,1,1,0,0,0,0,1,0,1,0","0,0,1,1,1,1,0,1,1,1,1,0","0,1,1,0,1,1",10,20,20,"","","<p> Oops! You did not pass the comprehension check. <b>Please note that you have only 1 attempt(s) left.</b> </p>","","","",1,NA,"",NA,NA,NA,NA,NA,NA,NA,NA,NA,NA,NA,NA,NA,NA,NA,NA,NA,NA,NA,NA,NA,NA,NA,NA,NA,NA,NA,NA,NA,NA,NA,NA,NA,NA,NA,NA,NA,NA,NA,NA,"",NA,NA,NA,NA,NA,NA,NA,NA,2025-11-21 01:03:04
"66401","https://psyc-201.github.io/xiang2023/exp/index1.html?PROLIFIC_PID=REDACTED&STUDY_ID=691f8ca61c6b4dcbb0aeb5f4&SESSION_ID=691fb60ce261ea1dd0ead9cd","instructions",6,507551,"0.0-6.0-0.0","ghbrKNJ4SVLoVJn13dR1rrFouqJiG6nnU801K/W6YObuTCqREWF7+Y+AEnsnHQCb52XIbbwNPj8/ogbyVShjXP5Qhfxh6/AZLnxJWy26qZOtIzhrGp0ZSgwnfL1REgbxoKOm/e+IujWVgr216+r4ep7DYoKRvEIaDbwxnDKZVMFtSlhgGrK5f8dUu6c7YFX5rXM34/FFAxGA7p0X12qJtqP7iseycke5sDqpJeoQoEhUDB+Eux1jC4Fxwp4IJsHR8QwatuT6ZlIcUaHkGdrKru/3tYImDXqWT9g+dagtYQvxfJTcKjC5Vt5MWWDGxL12TSMEdYLPBfU66OVRRsuViw==","691f8ca61c6b4dcbb0aeb5f4","691fb60ce261ea1dd0ead9cd","index1","<span style='color:red'>Fail,<span style='color:red'>Fail,<span style='color:green'>Lift,<span style='color:green'>Lift,<span style='color:red'>Fail,<span style='color:red'>Fail,<span style='color:red'>Fail,<span style='color:red'>Fail,<span style='color:green'>Lift,<span style='color:red'>Fail,<span style='color:green'>Lift,<span style='color:red'>Fail","<span style='color:red'>Fail,<span style='color:red'>Fail,<span style='color:green'>Lift,<span style='color:green'>Lift,<span style='color:green'>Lift,<span style='color:green'>Lift,<span style='color:red'>Fail,<span style='color:green'>Lift,<span style='color:green'>Lift,<span style='color:green'>Lift,<span style='color:green'>Lift,<span style='color:red'>Fail","<span style='color:red'>Fail,<span style='color:green'>Lift,<span style='color:green'>Lift,<span style='color:red'>Fail,<span style='color:green'>Lift,<span style='color:green'>Lift","0,0,1,1,0,0,0,0,1,0,1,0","0,0,1,1,1,1,0,1,1,1,1,0","0,1,1,0,1,1",10,20,20,"","[{""page_index"":0,""viewing_time"":12413.5},{""page_index"":1,""viewing_time"":6426.399999991059},{""page_index"":2,""viewing_time"":5100.600000008941},{""page_index"":3,""viewing_time"":3895.8999999910593},{""page_index"":4,""viewing_time"":7371.9000000059605},{""page_index"":5,""viewing_time"":5863.9000000059605},{""page_index"":4,""viewing_time"":526.5999999940395},{""page_index"":3,""viewing_time"":1306.0999999940395},{""page_index"":2,""viewing_time"":1433.5},{""page_index"":1,""viewing_time"":2163.9000000059605},{""page_index"":0,""viewing_time"":12041.40000000596},{""page_index"":1,""viewing_time"":1863.5999999940395},{""page_index"":2,""viewing_time"":701},{""page_index"":3,""viewing_time"":1147.5999999940395},{""page_index"":4,""viewing_time"":1332.5},{""page_index"":5,""viewing_time"":657.8000000119209},{""page_index"":6,""viewing_time"":2154.5}]","","","","",NA,NA,"",NA,NA,NA,NA,NA,NA,NA,NA,NA,NA,NA,NA,NA,NA,NA,NA,NA,NA,NA,NA,NA,NA,NA,NA,NA,NA,NA,NA,NA,NA,NA,NA,NA,NA,NA,NA,NA,NA,NA,NA,"",NA,NA,NA,NA,NA,NA,NA,NA,2025-11-21 01:03:04
"null","https://psyc-201.github.io/xiang2023/exp/index1.html?PROLIFIC_PID=REDACTED&STUDY_ID=691f8ca61c6b4dcbb0aeb5f4&SESSION_ID=691fb60ce261ea1dd0ead9cd","html-keyboard-response",7,508558,"0.0-6.0-1.0","ghbrKNJ4SVLoVJn13dR1rrFouqJiG6nnU801K/W6YObuTCqREWF7+Y+AEnsnHQCb52XIbbwNPj8/ogbyVShjXP5Qhfxh6/AZLnxJWy26qZOtIzhrGp0ZSgwnfL1REgbxoKOm/e+IujWVgr216+r4ep7DYoKRvEIaDbwxnDKZVMFtSlhgGrK5f8dUu6c7YFX5rXM34/FFAxGA7p0X12qJtqP7iseycke5sDqpJeoQoEhUDB+Eux1jC4Fxwp4IJsHR8QwatuT6ZlIcUaHkGdrKru/3tYImDXqWT9g+dagtYQvxfJTcKjC5Vt5MWWDGxL12TSMEdYLPBfU66OVRRsuViw==","691f8ca61c6b4dcbb0aeb5f4","691fb60ce261ea1dd0ead9cd","index1","<span style='color:red'>Fail,<span style='color:red'>Fail,<span style='color:green'>Lift,<span style='color:green'>Lift,<span style='color:red'>Fail,<span style='color:red'>Fail,<span style='color:red'>Fail,<span style='color:red'>Fail,<span style='color:green'>Lift,<span style='color:red'>Fail,<span style='color:green'>Lift,<span style='color:red'>Fail","<span style='color:red'>Fail,<span style='color:red'>Fail,<span style='color:green'>Lift,<span style='color:green'>Lift,<span style='color:green'>Lift,<span style='color:green'>Lift,<span style='color:red'>Fail,<span style='color:green'>Lift,<span style='color:green'>Lift,<span style='color:green'>Lift,<span style='color:green'>Lift,<span style='color:red'>Fail","<span style='color:red'>Fail,<span style='color:green'>Lift,<span style='color:green'>Lift,<span style='color:red'>Fail,<span style='color:green'>Lift,<span style='color:green'>Lift","0,0,1,1,0,0,0,0,1,0,1,0","0,0,1,1,1,1,0,1,1,1,1,0","0,1,1,0,1,1",10,20,20,"",""," ","null","","",NA,NA,"",NA,NA,NA,NA,NA,NA,NA,NA,NA,NA,NA,NA,NA,NA,NA,NA,NA,NA,NA,NA,NA,NA,NA,NA,NA,NA,NA,NA,NA,NA,NA,NA,NA,NA,NA,NA,NA,NA,NA,NA,"",NA,NA,NA,NA,NA,NA,NA,NA,2025-11-21 01:03:04
"19291.5","https://psyc-201.github.io/xiang2023/exp/index1.html?PROLIFIC_PID=REDACTED&STUDY_ID=691f8ca61c6b4dcbb0aeb5f4&SESSION_ID=691fb60ce261ea1dd0ead9cd","survey-multi-choice",8,527851,"0.0-7.0-0.0","ghbrKNJ4SVLoVJn13dR1rrFouqJiG6nnU801K/W6YObuTCqREWF7+Y+AEnsnHQCb52XIbbwNPj8/ogbyVShjXP5Qhfxh6/AZLnxJWy26qZOtIzhrGp0ZSgwnfL1REgbxoKOm/e+IujWVgr216+r4ep7DYoKRvEIaDbwxnDKZVMFtSlhgGrK5f8dUu6c7YFX5rXM34/FFAxGA7p0X12qJtqP7iseycke5sDqpJeoQoEhUDB+Eux1jC4Fxwp4IJsHR8QwatuT6ZlIcUaHkGdrKru/3tYImDXqWT9g+dagtYQvxfJTcKjC5Vt5MWWDGxL12TSMEdYLPBfU66OVRRsuViw==","691f8ca61c6b4dcbb0aeb5f4","691fb60ce261ea1dd0ead9cd","index1","<span style='color:red'>Fail,<span style='color:red'>Fail,<span style='color:green'>Lift,<span style='color:green'>Lift,<span style='color:red'>Fail,<span style='color:red'>Fail,<span style='color:red'>Fail,<span style='color:red'>Fail,<span style='color:green'>Lift,<span style='color:red'>Fail,<span style='color:green'>Lift,<span style='color:red'>Fail","<span style='color:red'>Fail,<span style='color:red'>Fail,<span style='color:green'>Lift,<span style='color:green'>Lift,<span style='color:green'>Lift,<span style='color:green'>Lift,<span style='color:red'>Fail,<span style='color:green'>Lift,<span style='color:green'>Lift,<span style='color:green'>Lift,<span style='color:green'>Lift,<span style='color:red'>Fail","<span style='color:red'>Fail,<span style='color:green'>Lift,<span style='color:green'>Lift,<span style='color:red'>Fail,<span style='color:green'>Lift,<span style='color:green'>Lift","0,0,1,1,0,0,0,0,1,0,1,0","0,0,1,1,1,1,0,1,1,1,1,0","0,1,1,0,1,1",10,20,20,"","","","","{""Q0"":""It consists of multiple contests, each contest with three rounds."",""Q1"":""When a new contest begins."",""Q2"":""The box weight always stays the same (equivalent to strength of 5)."",""Q3"":""Each will get $20."",""Q4"":""How close my guesses are to the actual outcome.""}","[0,1,2,3,4]",NA,NA,"",NA,NA,NA,NA,NA,NA,NA,NA,NA,NA,NA,NA,NA,NA,NA,NA,NA,NA,NA,NA,NA,NA,NA,NA,NA,NA,NA,NA,NA,NA,NA,NA,NA,NA,NA,NA,NA,NA,NA,NA,"",NA,NA,NA,NA,NA,NA,NA,NA,2025-11-21 01:03:04
"7348.5","https://psyc-201.github.io/xiang2023/exp/index1.html?PROLIFIC_PID=REDACTED&STUDY_ID=691f8ca61c6b4dcbb0aeb5f4&SESSION_ID=691fb60ce261ea1dd0ead9cd","instructions",9,535203,"0.0-305.0","ghbrKNJ4SVLoVJn13dR1rrFouqJiG6nnU801K/W6YObuTCqREWF7+Y+AEnsnHQCb52XIbbwNPj8/ogbyVShjXP5Qhfxh6/AZLnxJWy26qZOtIzhrGp0ZSgwnfL1REgbxoKOm/e+IujWVgr216+r4ep7DYoKRvEIaDbwxnDKZVMFtSlhgGrK5f8dUu6c7YFX5rXM34/FFAxGA7p0X12qJtqP7iseycke5sDqpJeoQoEhUDB+Eux1jC4Fxwp4IJsHR8QwatuT6ZlIcUaHkGdrKru/3tYImDXqWT9g+dagtYQvxfJTcKjC5Vt5MWWDGxL12TSMEdYLPBfU66OVRRsuViw==","691f8ca61c6b4dcbb0aeb5f4","691fb60ce261ea1dd0ead9cd","index1","<span style='color:red'>Fail,<span style='color:red'>Fail,<span style='color:green'>Lift,<span style='color:green'>Lift,<span style='color:red'>Fail,<span style='color:red'>Fail,<span style='color:red'>Fail,<span style='color:red'>Fail,<span style='color:green'>Lift,<span style='color:red'>Fail,<span style='color:green'>Lift,<span style='color:red'>Fail","<span style='color:red'>Fail,<span style='color:red'>Fail,<span style='color:green'>Lift,<span style='color:green'>Lift,<span style='color:green'>Lift,<span style='color:green'>Lift,<span style='color:red'>Fail,<span style='color:green'>Lift,<span style='color:green'>Lift,<span style='color:green'>Lift,<span style='color:green'>Lift,<span style='color:red'>Fail","<span style='color:red'>Fail,<span style='color:green'>Lift,<span style='color:green'>Lift,<span style='color:red'>Fail,<span style='color:green'>Lift,<span style='color:green'>Lift","0,0,1,1,0,0,0,0,1,0,1,0","0,0,1,1,1,1,0,1,1,1,1,0","0,1,1,0,1,1",10,20,20,"","[{""page_index"":0,""viewing_time"":2507.7999999970198},{""page_index"":1,""viewing_time"":4840.4000000059605}]","","","","",NA,NA,"",NA,NA,NA,NA,NA,NA,NA,NA,NA,NA,NA,NA,NA,NA,NA,NA,NA,NA,NA,NA,NA,NA,NA,NA,NA,NA,NA,NA,NA,NA,NA,NA,NA,NA,NA,NA,NA,NA,NA,NA,"",NA,NA,NA,NA,NA,NA,NA,NA,2025-11-21 01:03:04
"null","https://psyc-201.github.io/xiang2023/exp/index1.html?PROLIFIC_PID=REDACTED&STUDY_ID=691f8ca61c6b4dcbb0aeb5f4&SESSION_ID=691fb60ce261ea1dd0ead9cd","html-keyboard-response",10,536209,"0.0-306.0","ghbrKNJ4SVLoVJn13dR1rrFouqJiG6nnU801K/W6YObuTCqREWF7+Y+AEnsnHQCb52XIbbwNPj8/ogbyVShjXP5Qhfxh6/AZLnxJWy26qZOtIzhrGp0ZSgwnfL1REgbxoKOm/e+IujWVgr216+r4ep7DYoKRvEIaDbwxnDKZVMFtSlhgGrK5f8dUu6c7YFX5rXM34/FFAxGA7p0X12qJtqP7iseycke5sDqpJeoQoEhUDB+Eux1jC4Fxwp4IJsHR8QwatuT6ZlIcUaHkGdrKru/3tYImDXqWT9g+dagtYQvxfJTcKjC5Vt5MWWDGxL12TSMEdYLPBfU66OVRRsuViw==","691f8ca61c6b4dcbb0aeb5f4","691fb60ce261ea1dd0ead9cd","index1","<span style='color:red'>Fail,<span style='color:red'>Fail,<span style='color:green'>Lift,<span style='color:green'>Lift,<span style='color:red'>Fail,<span style='color:red'>Fail,<span style='color:red'>Fail,<span style='color:red'>Fail,<span style='color:green'>Lift,<span style='color:red'>Fail,<span style='color:green'>Lift,<span style='color:red'>Fail","<span style='color:red'>Fail,<span style='color:red'>Fail,<span style='color:green'>Lift,<span style='color:green'>Lift,<span style='color:green'>Lift,<span style='color:green'>Lift,<span style='color:red'>Fail,<span style='color:green'>Lift,<span style='color:green'>Lift,<span style='color:green'>Lift,<span style='color:green'>Lift,<span style='color:red'>Fail","<span style='color:red'>Fail,<span style='color:green'>Lift,<span style='color:green'>Lift,<span style='color:red'>Fail,<span style='color:green'>Lift,<span style='color:green'>Lift","0,0,1,1,0,0,0,0,1,0,1,0","0,0,1,1,1,1,0,1,1,1,1,0","0,1,1,0,1,1",10,20,20,"",""," ","null","","",NA,1,"",NA,NA,NA,NA,NA,NA,NA,NA,NA,NA,NA,NA,NA,NA,NA,NA,NA,NA,NA,NA,NA,NA,NA,NA,NA,NA,NA,NA,NA,NA,NA,NA,NA,NA,NA,NA,NA,NA,NA,NA,"",NA,NA,NA,NA,NA,NA,NA,NA,2025-11-21 01:03:04
"null","https://psyc-201.github.io/xiang2023/exp/index1.html?PROLIFIC_PID=REDACTED&STUDY_ID=691f8ca61c6b4dcbb0aeb5f4&SESSION_ID=691fb60ce261ea1dd0ead9cd","html-keyboard-response",11,539217,"0.0-307.0","ghbrKNJ4SVLoVJn13dR1rrFouqJiG6nnU801K/W6YObuTCqREWF7+Y+AEnsnHQCb52XIbbwNPj8/ogbyVShjXP5Qhfxh6/AZLnxJWy26qZOtIzhrGp0ZSgwnfL1REgbxoKOm/e+IujWVgr216+r4ep7DYoKRvEIaDbwxnDKZVMFtSlhgGrK5f8dUu6c7YFX5rXM34/FFAxGA7p0X12qJtqP7iseycke5sDqpJeoQoEhUDB+Eux1jC4Fxwp4IJsHR8QwatuT6ZlIcUaHkGdrKru/3tYImDXqWT9g+dagtYQvxfJTcKjC5Vt5MWWDGxL12TSMEdYLPBfU66OVRRsuViw==","691f8ca61c6b4dcbb0aeb5f4","691fb60ce261ea1dd0ead9cd","index1","<span style='color:red'>Fail,<span style='color:red'>Fail,<span style='color:green'>Lift,<span style='color:green'>Lift,<span style='color:red'>Fail,<span style='color:red'>Fail,<span style='color:red'>Fail,<span style='color:red'>Fail,<span style='color:green'>Lift,<span style='color:red'>Fail,<span style='color:green'>Lift,<span style='color:red'>Fail","<span style='color:red'>Fail,<span style='color:red'>Fail,<span style='color:green'>Lift,<span style='color:green'>Lift,<span style='color:green'>Lift,<span style='color:green'>Lift,<span style='color:red'>Fail,<span style='color:green'>Lift,<span style='color:green'>Lift,<span style='color:green'>Lift,<span style='color:green'>Lift,<span style='color:red'>Fail","<span style='color:red'>Fail,<span style='color:green'>Lift,<span style='color:green'>Lift,<span style='color:red'>Fail,<span style='color:green'>Lift,<span style='color:green'>Lift","0,0,1,1,0,0,0,0,1,0,1,0","0,0,1,1,1,1,0,1,1,1,1,0","0,1,1,0,1,1",10,20,20,"","","<p style='font-size:30px'><b> New Contest! </b></p>","null","","",NA,1,"",NA,NA,NA,NA,NA,NA,NA,NA,NA,NA,NA,NA,NA,NA,NA,NA,NA,NA,NA,NA,NA,NA,NA,NA,NA,NA,NA,NA,NA,NA,NA,NA,NA,NA,NA,NA,NA,NA,NA,NA,"",NA,NA,NA,NA,NA,NA,NA,NA,2025-11-21 01:03:04
"30176","https://psyc-201.github.io/xiang2023/exp/index1.html?PROLIFIC_PID=REDACTED&STUDY_ID=691f8ca61c6b4dcbb0aeb5f4&SESSION_ID=691fb60ce261ea1dd0ead9cd","survey-html-form",12,569395,"0.0-308.0","ghbrKNJ4SVLoVJn13dR1rrFouqJiG6nnU801K/W6YObuTCqREWF7+Y+AEnsnHQCb52XIbbwNPj8/ogbyVShjXP5Qhfxh6/AZLnxJWy26qZOtIzhrGp0ZSgwnfL1REgbxoKOm/e+IujWVgr216+r4ep7DYoKRvEIaDbwxnDKZVMFtSlhgGrK5f8dUu6c7YFX5rXM34/FFAxGA7p0X12qJtqP7iseycke5sDqpJeoQoEhUDB+Eux1jC4Fxwp4IJsHR8QwatuT6ZlIcUaHkGdrKru/3tYImDXqWT9g+dagtYQvxfJTcKjC5Vt5MWWDGxL12TSMEdYLPBfU66OVRRsuViw==","691f8ca61c6b4dcbb0aeb5f4","691fb60ce261ea1dd0ead9cd","index1","<span style='color:red'>Fail,<span style='color:red'>Fail,<span style='color:green'>Lift,<span style='color:green'>Lift,<span style='color:red'>Fail,<span style='color:red'>Fail,<span style='color:red'>Fail,<span style='color:red'>Fail,<span style='color:green'>Lift,<span style='color:red'>Fail,<span style='color:green'>Lift,<span style='color:red'>Fail","<span style='color:red'>Fail,<span style='color:red'>Fail,<span style='color:green'>Lift,<span style='color:green'>Lift,<span style='color:green'>Lift,<span style='color:green'>Lift,<span style='color:red'>Fail,<span style='color:green'>Lift,<span style='color:green'>Lift,<span style='color:green'>Lift,<span style='color:green'>Lift,<span style='color:red'>Fail","<span style='color:red'>Fail,<span style='color:green'>Lift,<span style='color:green'>Lift,<span style='color:red'>Fail,<span style='color:green'>Lift,<span style='color:green'>Lift","0,0,1,1,0,0,0,0,1,0,1,0","0,0,1,1,1,1,0,1,1,1,1,0","0,1,1,0,1,1",10,20,20,"","","","","{""box1"":""5"",""box2"":""5"",""box3"":""100"",""box4"":""100""}","",NA,1,"round1_outcome",1,1,1,5,5,100,100,1,1,10,5,5,100,100,1,1,10,NA,NA,NA,NA,NA,NA,NA,NA,NA,NA,NA,NA,NA,NA,NA,NA,NA,NA,NA,NA,NA,NA,NA,"",NA,NA,NA,NA,NA,NA,NA,NA,2025-11-21 01:03:04
"9148.09999999404","https://psyc-201.github.io/xiang2023/exp/index1.html?PROLIFIC_PID=REDACTED&STUDY_ID=691f8ca61c6b4dcbb0aeb5f4&SESSION_ID=691fb60ce261ea1dd0ead9cd","survey-html-form",13,578544,"0.0-309.0","ghbrKNJ4SVLoVJn13dR1rrFouqJiG6nnU801K/W6YObuTCqREWF7+Y+AEnsnHQCb52XIbbwNPj8/ogbyVShjXP5Qhfxh6/AZLnxJWy26qZOtIzhrGp0ZSgwnfL1REgbxoKOm/e+IujWVgr216+r4ep7DYoKRvEIaDbwxnDKZVMFtSlhgGrK5f8dUu6c7YFX5rXM34/FFAxGA7p0X12qJtqP7iseycke5sDqpJeoQoEhUDB+Eux1jC4Fxwp4IJsHR8QwatuT6ZlIcUaHkGdrKru/3tYImDXqWT9g+dagtYQvxfJTcKjC5Vt5MWWDGxL12TSMEdYLPBfU66OVRRsuViw==","691f8ca61c6b4dcbb0aeb5f4","691fb60ce261ea1dd0ead9cd","index1","<span style='color:red'>Fail,<span style='color:red'>Fail,<span style='color:green'>Lift,<span style='color:green'>Lift,<span style='color:red'>Fail,<span style='color:red'>Fail,<span style='color:red'>Fail,<span style='color:red'>Fail,<span style='color:green'>Lift,<span style='color:red'>Fail,<span style='color:green'>Lift,<span style='color:red'>Fail","<span style='color:red'>Fail,<span style='color:red'>Fail,<span style='color:green'>Lift,<span style='color:green'>Lift,<span style='color:green'>Lift,<span style='color:green'>Lift,<span style='color:red'>Fail,<span style='color:green'>Lift,<span style='color:green'>Lift,<span style='color:green'>Lift,<span style='color:green'>Lift,<span style='color:red'>Fail","<span style='color:red'>Fail,<span style='color:green'>Lift,<span style='color:green'>Lift,<span style='color:red'>Fail,<span style='color:green'>Lift,<span style='color:green'>Lift","0,0,1,1,0,0,0,0,1,0,1,0","0,0,1,1,1,1,0,1,1,1,1,0","0,1,1,0,1,1",10,20,20,"","","","","{""box1"":""50"",""box2"":""50""}","",NA,1,"round2_ready",2,1,2,NA,NA,NA,NA,NA,NA,NA,NA,NA,NA,NA,NA,NA,NA,50,50,50,50,NA,NA,NA,NA,NA,NA,NA,NA,NA,NA,NA,NA,NA,NA,NA,NA,NA,NA,NA,"",NA,NA,NA,NA,NA,NA,NA,NA,2025-11-21 01:03:04
"11439.79999999702","https://psyc-201.github.io/xiang2023/exp/index1.html?PROLIFIC_PID=REDACTED&STUDY_ID=691f8ca61c6b4dcbb0aeb5f4&SESSION_ID=691fb60ce261ea1dd0ead9cd","survey-html-form",14,589986,"0.0-310.0","ghbrKNJ4SVLoVJn13dR1rrFouqJiG6nnU801K/W6YObuTCqREWF7+Y+AEnsnHQCb52XIbbwNPj8/ogbyVShjXP5Qhfxh6/AZLnxJWy26qZOtIzhrGp0ZSgwnfL1REgbxoKOm/e+IujWVgr216+r4ep7DYoKRvEIaDbwxnDKZVMFtSlhgGrK5f8dUu6c7YFX5rXM34/FFAxGA7p0X12qJtqP7iseycke5sDqpJeoQoEhUDB+Eux1jC4Fxwp4IJsHR8QwatuT6ZlIcUaHkGdrKru/3tYImDXqWT9g+dagtYQvxfJTcKjC5Vt5MWWDGxL12TSMEdYLPBfU66OVRRsuViw==","691f8ca61c6b4dcbb0aeb5f4","691fb60ce261ea1dd0ead9cd","index1","<span style='color:red'>Fail,<span style='color:red'>Fail,<span style='color:green'>Lift,<span style='color:green'>Lift,<span style='color:red'>Fail,<span style='color:red'>Fail,<span style='color:red'>Fail,<span style='color:red'>Fail,<span style='color:green'>Lift,<span style='color:red'>Fail,<span style='color:green'>Lift,<span style='color:red'>Fail","<span style='color:red'>Fail,<span style='color:red'>Fail,<span style='color:green'>Lift,<span style='color:green'>Lift,<span style='color:green'>Lift,<span style='color:green'>Lift,<span style='color:red'>Fail,<span style='color:green'>Lift,<span style='color:green'>Lift,<span style='color:green'>Lift,<span style='color:green'>Lift,<span style='color:red'>Fail","<span style='color:red'>Fail,<span style='color:green'>Lift,<span style='color:green'>Lift,<span style='color:red'>Fail,<span style='color:green'>Lift,<span style='color:green'>Lift","0,0,1,1,0,0,0,0,1,0,1,0","0,0,1,1,1,1,0,1,1,1,1,0","0,1,1,0,1,1",10,20,20,"","","","","{""box1"":""8"",""box2"":""8"",""box3"":""75"",""box4"":""75""}","",NA,1,"round2_outcome",3,1,2,8,8,75,75,1,1,20,NA,NA,NA,NA,NA,NA,NA,NA,NA,NA,NA,8,8,75,75,1,1,20,NA,NA,NA,NA,NA,NA,NA,NA,NA,NA,NA,NA,"",NA,NA,NA,NA,NA,NA,NA,NA,2025-11-21 01:03:04
"4813.5999999940395","https://psyc-201.github.io/xiang2023/exp/index1.html?PROLIFIC_PID=REDACTED&STUDY_ID=691f8ca61c6b4dcbb0aeb5f4&SESSION_ID=691fb60ce261ea1dd0ead9cd","survey-html-form",15,594801,"0.0-311.0","ghbrKNJ4SVLoVJn13dR1rrFouqJiG6nnU801K/W6YObuTCqREWF7+Y+AEnsnHQCb52XIbbwNPj8/ogbyVShjXP5Qhfxh6/AZLnxJWy26qZOtIzhrGp0ZSgwnfL1REgbxoKOm/e+IujWVgr216+r4ep7DYoKRvEIaDbwxnDKZVMFtSlhgGrK5f8dUu6c7YFX5rXM34/FFAxGA7p0X12qJtqP7iseycke5sDqpJeoQoEhUDB+Eux1jC4Fxwp4IJsHR8QwatuT6ZlIcUaHkGdrKru/3tYImDXqWT9g+dagtYQvxfJTcKjC5Vt5MWWDGxL12TSMEdYLPBfU66OVRRsuViw==","691f8ca61c6b4dcbb0aeb5f4","691fb60ce261ea1dd0ead9cd","index1","<span style='color:red'>Fail,<span style='color:red'>Fail,<span style='color:green'>Lift,<span style='color:green'>Lift,<span style='color:red'>Fail,<span style='color:red'>Fail,<span style='color:red'>Fail,<span style='color:red'>Fail,<span style='color:green'>Lift,<span style='color:red'>Fail,<span style='color:green'>Lift,<span style='color:red'>Fail","<span style='color:red'>Fail,<span style='color:red'>Fail,<span style='color:green'>Lift,<span style='color:green'>Lift,<span style='color:green'>Lift,<span style='color:green'>Lift,<span style='color:red'>Fail,<span style='color:green'>Lift,<span style='color:green'>Lift,<span style='color:green'>Lift,<span style='color:green'>Lift,<span style='color:red'>Fail","<span style='color:red'>Fail,<span style='color:green'>Lift,<span style='color:green'>Lift,<span style='color:red'>Fail,<span style='color:green'>Lift,<span style='color:green'>Lift","0,0,1,1,0,0,0,0,1,0,1,0","0,0,1,1,1,1,0,1,1,1,1,0","0,1,1,0,1,1",10,20,20,"","","","","{""box1"":""100""}","",NA,1,"round3_ready",4,1,3,NA,NA,NA,NA,NA,NA,NA,NA,NA,NA,NA,NA,NA,NA,100,100,NA,NA,NA,NA,NA,NA,NA,NA,NA,100,100,NA,NA,NA,NA,NA,NA,NA,NA,NA,NA,"",NA,NA,NA,NA,NA,NA,NA,NA,2025-11-21 01:03:04
"13407.199999988079","https://psyc-201.github.io/xiang2023/exp/index1.html?PROLIFIC_PID=REDACTED&STUDY_ID=691f8ca61c6b4dcbb0aeb5f4&SESSION_ID=691fb60ce261ea1dd0ead9cd","survey-html-form",16,608209,"0.0-312.0-0.0","ghbrKNJ4SVLoVJn13dR1rrFouqJiG6nnU801K/W6YObuTCqREWF7+Y+AEnsnHQCb52XIbbwNPj8/ogbyVShjXP5Qhfxh6/AZLnxJWy26qZOtIzhrGp0ZSgwnfL1REgbxoKOm/e+IujWVgr216+r4ep7DYoKRvEIaDbwxnDKZVMFtSlhgGrK5f8dUu6c7YFX5rXM34/FFAxGA7p0X12qJtqP7iseycke5sDqpJeoQoEhUDB+Eux1jC4Fxwp4IJsHR8QwatuT6ZlIcUaHkGdrKru/3tYImDXqWT9g+dagtYQvxfJTcKjC5Vt5MWWDGxL12TSMEdYLPBfU66OVRRsuViw==","691f8ca61c6b4dcbb0aeb5f4","691fb60ce261ea1dd0ead9cd","index1","<span style='color:red'>Fail,<span style='color:red'>Fail,<span style='color:green'>Lift,<span style='color:green'>Lift,<span style='color:red'>Fail,<span style='color:red'>Fail,<span style='color:red'>Fail,<span style='color:red'>Fail,<span style='color:green'>Lift,<span style='color:red'>Fail,<span style='color:green'>Lift,<span style='color:red'>Fail","<span style='color:red'>Fail,<span style='color:red'>Fail,<span style='color:green'>Lift,<span style='color:green'>Lift,<span style='color:green'>Lift,<span style='color:green'>Lift,<span style='color:red'>Fail,<span style='color:green'>Lift,<span style='color:green'>Lift,<span style='color:green'>Lift,<span style='color:green'>Lift,<span style='color:red'>Fail","<span style='color:red'>Fail,<span style='color:green'>Lift,<span style='color:green'>Lift,<span style='color:red'>Fail,<span style='color:green'>Lift,<span style='color:green'>Lift","0,0,1,1,0,0,0,0,1,0,1,0","0,0,1,1,1,1,0,1,1,1,1,0","0,1,1,0,1,1",10,20,20,"","","","","{""box1"":""8"",""box2"":""8"",""box3"":""75"",""box4"":""75""}","",NA,2,"round3_lift",5,1,3,8,8,75,75,1,1,20,NA,NA,NA,NA,NA,NA,NA,NA,NA,NA,NA,NA,NA,NA,NA,NA,NA,NA,NA,NA,8,8,75,75,1,1,20,NA,NA,NA,"",NA,NA,NA,NA,NA,NA,NA,NA,2025-11-21 01:03:04
"null","https://psyc-201.github.io/xiang2023/exp/index1.html?PROLIFIC_PID=REDACTED&STUDY_ID=691f8ca61c6b4dcbb0aeb5f4&SESSION_ID=691fb60ce261ea1dd0ead9cd","html-keyboard-response",17,611220,"0.0-316.0","ghbrKNJ4SVLoVJn13dR1rrFouqJiG6nnU801K/W6YObuTCqREWF7+Y+AEnsnHQCb52XIbbwNPj8/ogbyVShjXP5Qhfxh6/AZLnxJWy26qZOtIzhrGp0ZSgwnfL1REgbxoKOm/e+IujWVgr216+r4ep7DYoKRvEIaDbwxnDKZVMFtSlhgGrK5f8dUu6c7YFX5rXM34/FFAxGA7p0X12qJtqP7iseycke5sDqpJeoQoEhUDB+Eux1jC4Fxwp4IJsHR8QwatuT6ZlIcUaHkGdrKru/3tYImDXqWT9g+dagtYQvxfJTcKjC5Vt5MWWDGxL12TSMEdYLPBfU66OVRRsuViw==","691f8ca61c6b4dcbb0aeb5f4","691fb60ce261ea1dd0ead9cd","index1","<span style='color:red'>Fail,<span style='color:red'>Fail,<span style='color:green'>Lift,<span style='color:green'>Lift,<span style='color:red'>Fail,<span style='color:red'>Fail,<span style='color:red'>Fail,<span style='color:red'>Fail,<span style='color:green'>Lift,<span style='color:red'>Fail,<span style='color:green'>Lift,<span style='color:red'>Fail","<span style='color:red'>Fail,<span style='color:red'>Fail,<span style='color:green'>Lift,<span style='color:green'>Lift,<span style='color:green'>Lift,<span style='color:green'>Lift,<span style='color:red'>Fail,<span style='color:green'>Lift,<span style='color:green'>Lift,<span style='color:green'>Lift,<span style='color:green'>Lift,<span style='color:red'>Fail","<span style='color:red'>Fail,<span style='color:green'>Lift,<span style='color:green'>Lift,<span style='color:red'>Fail,<span style='color:green'>Lift,<span style='color:green'>Lift","0,0,1,1,0,0,0,0,1,0,1,0","0,0,1,1,1,1,0,1,1,1,1,0","0,1,1,0,1,1",10,20,20,"","","<p style='font-size:30px'><b> New Contest! </b></p>","null","","",NA,2,"",NA,NA,NA,NA,NA,NA,NA,NA,NA,NA,NA,NA,NA,NA,NA,NA,NA,NA,NA,NA,NA,NA,NA,NA,NA,NA,NA,NA,NA,NA,NA,NA,NA,NA,NA,NA,NA,NA,NA,NA,"",NA,NA,NA,NA,NA,NA,NA,NA,2025-11-21 01:03:04
"17595.79999999702","https://psyc-201.github.io/xiang2023/exp/index1.html?PROLIFIC_PID=REDACTED&STUDY_ID=691f8ca61c6b4dcbb0aeb5f4&SESSION_ID=691fb60ce261ea1dd0ead9cd","survey-html-form",18,628817,"0.0-317.0","ghbrKNJ4SVLoVJn13dR1rrFouqJiG6nnU801K/W6YObuTCqREWF7+Y+AEnsnHQCb52XIbbwNPj8/ogbyVShjXP5Qhfxh6/AZLnxJWy26qZOtIzhrGp0ZSgwnfL1REgbxoKOm/e+IujWVgr216+r4ep7DYoKRvEIaDbwxnDKZVMFtSlhgGrK5f8dUu6c7YFX5rXM34/FFAxGA7p0X12qJtqP7iseycke5sDqpJeoQoEhUDB+Eux1jC4Fxwp4IJsHR8QwatuT6ZlIcUaHkGdrKru/3tYImDXqWT9g+dagtYQvxfJTcKjC5Vt5MWWDGxL12TSMEdYLPBfU66OVRRsuViw==","691f8ca61c6b4dcbb0aeb5f4","691fb60ce261ea1dd0ead9cd","index1","<span style='color:red'>Fail,<span style='color:red'>Fail,<span style='color:green'>Lift,<span style='color:green'>Lift,<span style='color:red'>Fail,<span style='color:red'>Fail,<span style='color:red'>Fail,<span style='color:red'>Fail,<span style='color:green'>Lift,<span style='color:red'>Fail,<span style='color:green'>Lift,<span style='color:red'>Fail","<span style='color:red'>Fail,<span style='color:red'>Fail,<span style='color:green'>Lift,<span style='color:green'>Lift,<span style='color:green'>Lift,<span style='color:green'>Lift,<span style='color:red'>Fail,<span style='color:green'>Lift,<span style='color:green'>Lift,<span style='color:green'>Lift,<span style='color:green'>Lift,<span style='color:red'>Fail","<span style='color:red'>Fail,<span style='color:green'>Lift,<span style='color:green'>Lift,<span style='color:red'>Fail,<span style='color:green'>Lift,<span style='color:green'>Lift","0,0,1,1,0,0,0,0,1,0,1,0","0,0,1,1,1,1,0,1,1,1,1,0","0,1,1,0,1,1",10,20,20,"","","","","{""box1"":""5"",""box2"":""3"",""box3"":""50""}","",NA,2,"round1_outcome",1,2,1,5,3,50,NA,1,0,10,5,3,50,NA,1,0,10,NA,NA,NA,NA,NA,NA,NA,NA,NA,NA,NA,NA,NA,NA,NA,NA,NA,NA,NA,NA,NA,NA,NA,"",NA,NA,NA,NA,NA,NA,NA,NA,2025-11-21 01:03:04
"5977.29999999702","https://psyc-201.github.io/xiang2023/exp/index1.html?PROLIFIC_PID=REDACTED&STUDY_ID=691f8ca61c6b4dcbb0aeb5f4&SESSION_ID=691fb60ce261ea1dd0ead9cd","survey-html-form",19,634796,"0.0-318.0","ghbrKNJ4SVLoVJn13dR1rrFouqJiG6nnU801K/W6YObuTCqREWF7+Y+AEnsnHQCb52XIbbwNPj8/ogbyVShjXP5Qhfxh6/AZLnxJWy26qZOtIzhrGp0ZSgwnfL1REgbxoKOm/e+IujWVgr216+r4ep7DYoKRvEIaDbwxnDKZVMFtSlhgGrK5f8dUu6c7YFX5rXM34/FFAxGA7p0X12qJtqP7iseycke5sDqpJeoQoEhUDB+Eux1jC4Fxwp4IJsHR8QwatuT6ZlIcUaHkGdrKru/3tYImDXqWT9g+dagtYQvxfJTcKjC5Vt5MWWDGxL12TSMEdYLPBfU66OVRRsuViw==","691f8ca61c6b4dcbb0aeb5f4","691fb60ce261ea1dd0ead9cd","index1","<span style='color:red'>Fail,<span style='color:red'>Fail,<span style='color:green'>Lift,<span style='color:green'>Lift,<span style='color:red'>Fail,<span style='color:red'>Fail,<span style='color:red'>Fail,<span style='color:red'>Fail,<span style='color:green'>Lift,<span style='color:red'>Fail,<span style='color:green'>Lift,<span style='color:red'>Fail","<span style='color:red'>Fail,<span style='color:red'>Fail,<span style='color:green'>Lift,<span style='color:green'>Lift,<span style='color:green'>Lift,<span style='color:green'>Lift,<span style='color:red'>Fail,<span style='color:green'>Lift,<span style='color:green'>Lift,<span style='color:green'>Lift,<span style='color:green'>Lift,<span style='color:red'>Fail","<span style='color:red'>Fail,<span style='color:green'>Lift,<span style='color:green'>Lift,<span style='color:red'>Fail,<span style='color:green'>Lift,<span style='color:green'>Lift","0,0,1,1,0,0,0,0,1,0,1,0","0,0,1,1,1,1,0,1,1,1,1,0","0,1,1,0,1,1",10,20,20,"","","","","{""box1"":""70"",""box2"":""40""}","",NA,2,"round2_ready",2,2,2,NA,NA,NA,NA,NA,NA,NA,NA,NA,NA,NA,NA,NA,NA,70,40,70,40,NA,NA,NA,NA,NA,NA,NA,NA,NA,NA,NA,NA,NA,NA,NA,NA,NA,NA,NA,"",NA,NA,NA,NA,NA,NA,NA,NA,2025-11-21 01:03:04
"7980.5999999940395","https://psyc-201.github.io/xiang2023/exp/index1.html?PROLIFIC_PID=REDACTED&STUDY_ID=691f8ca61c6b4dcbb0aeb5f4&SESSION_ID=691fb60ce261ea1dd0ead9cd","survey-html-form",20,642778,"0.0-319.0","ghbrKNJ4SVLoVJn13dR1rrFouqJiG6nnU801K/W6YObuTCqREWF7+Y+AEnsnHQCb52XIbbwNPj8/ogbyVShjXP5Qhfxh6/AZLnxJWy26qZOtIzhrGp0ZSgwnfL1REgbxoKOm/e+IujWVgr216+r4ep7DYoKRvEIaDbwxnDKZVMFtSlhgGrK5f8dUu6c7YFX5rXM34/FFAxGA7p0X12qJtqP7iseycke5sDqpJeoQoEhUDB+Eux1jC4Fxwp4IJsHR8QwatuT6ZlIcUaHkGdrKru/3tYImDXqWT9g+dagtYQvxfJTcKjC5Vt5MWWDGxL12TSMEdYLPBfU66OVRRsuViw==","691f8ca61c6b4dcbb0aeb5f4","691fb60ce261ea1dd0ead9cd","index1","<span style='color:red'>Fail,<span style='color:red'>Fail,<span style='color:green'>Lift,<span style='color:green'>Lift,<span style='color:red'>Fail,<span style='color:red'>Fail,<span style='color:red'>Fail,<span style='color:red'>Fail,<span style='color:green'>Lift,<span style='color:red'>Fail,<span style='color:green'>Lift,<span style='color:red'>Fail","<span style='color:red'>Fail,<span style='color:red'>Fail,<span style='color:green'>Lift,<span style='color:green'>Lift,<span style='color:green'>Lift,<span style='color:green'>Lift,<span style='color:red'>Fail,<span style='color:green'>Lift,<span style='color:green'>Lift,<span style='color:green'>Lift,<span style='color:green'>Lift,<span style='color:red'>Fail","<span style='color:red'>Fail,<span style='color:green'>Lift,<span style='color:green'>Lift,<span style='color:red'>Fail,<span style='color:green'>Lift,<span style='color:green'>Lift","0,0,1,1,0,0,0,0,1,0,1,0","0,0,1,1,1,1,0,1,1,1,1,0","0,1,1,0,1,1",10,20,20,"","","","","{""box1"":""8"",""box2"":""2"",""box3"":""75""}","",NA,2,"round2_outcome",3,2,2,8,2,75,NA,1,0,20,NA,NA,NA,NA,NA,NA,NA,NA,NA,NA,NA,8,2,75,NA,1,0,20,NA,NA,NA,NA,NA,NA,NA,NA,NA,NA,NA,NA,"",NA,NA,NA,NA,NA,NA,NA,NA,2025-11-21 01:03:04
"4036.5","https://psyc-201.github.io/xiang2023/exp/index1.html?PROLIFIC_PID=REDACTED&STUDY_ID=691f8ca61c6b4dcbb0aeb5f4&SESSION_ID=691fb60ce261ea1dd0ead9cd","survey-html-form",21,646816,"0.0-320.0","ghbrKNJ4SVLoVJn13dR1rrFouqJiG6nnU801K/W6YObuTCqREWF7+Y+AEnsnHQCb52XIbbwNPj8/ogbyVShjXP5Qhfxh6/AZLnxJWy26qZOtIzhrGp0ZSgwnfL1REgbxoKOm/e+IujWVgr216+r4ep7DYoKRvEIaDbwxnDKZVMFtSlhgGrK5f8dUu6c7YFX5rXM34/FFAxGA7p0X12qJtqP7iseycke5sDqpJeoQoEhUDB+Eux1jC4Fxwp4IJsHR8QwatuT6ZlIcUaHkGdrKru/3tYImDXqWT9g+dagtYQvxfJTcKjC5Vt5MWWDGxL12TSMEdYLPBfU66OVRRsuViw==","691f8ca61c6b4dcbb0aeb5f4","691fb60ce261ea1dd0ead9cd","index1","<span style='color:red'>Fail,<span style='color:red'>Fail,<span style='color:green'>Lift,<span style='color:green'>Lift,<span style='color:red'>Fail,<span style='color:red'>Fail,<span style='color:red'>Fail,<span style='color:red'>Fail,<span style='color:green'>Lift,<span style='color:red'>Fail,<span style='color:green'>Lift,<span style='color:red'>Fail","<span style='color:red'>Fail,<span style='color:red'>Fail,<span style='color:green'>Lift,<span style='color:green'>Lift,<span style='color:green'>Lift,<span style='color:green'>Lift,<span style='color:red'>Fail,<span style='color:green'>Lift,<span style='color:green'>Lift,<span style='color:green'>Lift,<span style='color:green'>Lift,<span style='color:red'>Fail","<span style='color:red'>Fail,<span style='color:green'>Lift,<span style='color:green'>Lift,<span style='color:red'>Fail,<span style='color:green'>Lift,<span style='color:green'>Lift","0,0,1,1,0,0,0,0,1,0,1,0","0,0,1,1,1,1,0,1,1,1,1,0","0,1,1,0,1,1",10,20,20,"","","","","{""box1"":""100""}","",NA,2,"round3_ready",4,2,3,NA,NA,NA,NA,NA,NA,NA,NA,NA,NA,NA,NA,NA,NA,100,100,NA,NA,NA,NA,NA,NA,NA,NA,NA,100,100,NA,NA,NA,NA,NA,NA,NA,NA,NA,NA,"",NA,NA,NA,NA,NA,NA,NA,NA,2025-11-21 01:03:04
"8109.9000000059605","https://psyc-201.github.io/xiang2023/exp/index1.html?PROLIFIC_PID=REDACTED&STUDY_ID=691f8ca61c6b4dcbb0aeb5f4&SESSION_ID=691fb60ce261ea1dd0ead9cd","survey-html-form",22,654927,"0.0-321.0-0.0","ghbrKNJ4SVLoVJn13dR1rrFouqJiG6nnU801K/W6YObuTCqREWF7+Y+AEnsnHQCb52XIbbwNPj8/ogbyVShjXP5Qhfxh6/AZLnxJWy26qZOtIzhrGp0ZSgwnfL1REgbxoKOm/e+IujWVgr216+r4ep7DYoKRvEIaDbwxnDKZVMFtSlhgGrK5f8dUu6c7YFX5rXM34/FFAxGA7p0X12qJtqP7iseycke5sDqpJeoQoEhUDB+Eux1jC4Fxwp4IJsHR8QwatuT6ZlIcUaHkGdrKru/3tYImDXqWT9g+dagtYQvxfJTcKjC5Vt5MWWDGxL12TSMEdYLPBfU66OVRRsuViw==","691f8ca61c6b4dcbb0aeb5f4","691fb60ce261ea1dd0ead9cd","index1","<span style='color:red'>Fail,<span style='color:red'>Fail,<span style='color:green'>Lift,<span style='color:green'>Lift,<span style='color:red'>Fail,<span style='color:red'>Fail,<span style='color:red'>Fail,<span style='color:red'>Fail,<span style='color:green'>Lift,<span style='color:red'>Fail,<span style='color:green'>Lift,<span style='color:red'>Fail","<span style='color:red'>Fail,<span style='color:red'>Fail,<span style='color:green'>Lift,<span style='color:green'>Lift,<span style='color:green'>Lift,<span style='color:green'>Lift,<span style='color:red'>Fail,<span style='color:green'>Lift,<span style='color:green'>Lift,<span style='color:green'>Lift,<span style='color:green'>Lift,<span style='color:red'>Fail","<span style='color:red'>Fail,<span style='color:green'>Lift,<span style='color:green'>Lift,<span style='color:red'>Fail,<span style='color:green'>Lift,<span style='color:green'>Lift","0,0,1,1,0,0,0,0,1,0,1,0","0,0,1,1,1,1,0,1,1,1,1,0","0,1,1,0,1,1",10,20,20,"","","","","{""box1"":""8"",""box2"":""3"",""box3"":""100"",""box4"":""50""}","",NA,3,"round3_lift",5,2,3,8,3,100,50,1,1,20,NA,NA,NA,NA,NA,NA,NA,NA,NA,NA,NA,NA,NA,NA,NA,NA,NA,NA,NA,NA,8,3,100,50,1,1,20,NA,NA,NA,"",NA,NA,NA,NA,NA,NA,NA,NA,2025-11-21 01:03:04
"null","https://psyc-201.github.io/xiang2023/exp/index1.html?PROLIFIC_PID=REDACTED&STUDY_ID=691f8ca61c6b4dcbb0aeb5f4&SESSION_ID=691fb60ce261ea1dd0ead9cd","html-keyboard-response",23,657937,"0.0-325.0","ghbrKNJ4SVLoVJn13dR1rrFouqJiG6nnU801K/W6YObuTCqREWF7+Y+AEnsnHQCb52XIbbwNPj8/ogbyVShjXP5Qhfxh6/AZLnxJWy26qZOtIzhrGp0ZSgwnfL1REgbxoKOm/e+IujWVgr216+r4ep7DYoKRvEIaDbwxnDKZVMFtSlhgGrK5f8dUu6c7YFX5rXM34/FFAxGA7p0X12qJtqP7iseycke5sDqpJeoQoEhUDB+Eux1jC4Fxwp4IJsHR8QwatuT6ZlIcUaHkGdrKru/3tYImDXqWT9g+dagtYQvxfJTcKjC5Vt5MWWDGxL12TSMEdYLPBfU66OVRRsuViw==","691f8ca61c6b4dcbb0aeb5f4","691fb60ce261ea1dd0ead9cd","index1","<span style='color:red'>Fail,<span style='color:red'>Fail,<span style='color:green'>Lift,<span style='color:green'>Lift,<span style='color:red'>Fail,<span style='color:red'>Fail,<span style='color:red'>Fail,<span style='color:red'>Fail,<span style='color:green'>Lift,<span style='color:red'>Fail,<span style='color:green'>Lift,<span style='color:red'>Fail","<span style='color:red'>Fail,<span style='color:red'>Fail,<span style='color:green'>Lift,<span style='color:green'>Lift,<span style='color:green'>Lift,<span style='color:green'>Lift,<span style='color:red'>Fail,<span style='color:green'>Lift,<span style='color:green'>Lift,<span style='color:green'>Lift,<span style='color:green'>Lift,<span style='color:red'>Fail","<span style='color:red'>Fail,<span style='color:green'>Lift,<span style='color:green'>Lift,<span style='color:red'>Fail,<span style='color:green'>Lift,<span style='color:green'>Lift","0,0,1,1,0,0,0,0,1,0,1,0","0,0,1,1,1,1,0,1,1,1,1,0","0,1,1,0,1,1",10,20,20,"","","<p style='font-size:30px'><b> New Contest! </b></p>","null","","",NA,3,"",NA,NA,NA,NA,NA,NA,NA,NA,NA,NA,NA,NA,NA,NA,NA,NA,NA,NA,NA,NA,NA,NA,NA,NA,NA,NA,NA,NA,NA,NA,NA,NA,NA,NA,NA,NA,NA,NA,NA,NA,"",NA,NA,NA,NA,NA,NA,NA,NA,2025-11-21 01:03:04
"6097.100000008941","https://psyc-201.github.io/xiang2023/exp/index1.html?PROLIFIC_PID=REDACTED&STUDY_ID=691f8ca61c6b4dcbb0aeb5f4&SESSION_ID=691fb60ce261ea1dd0ead9cd","survey-html-form",24,664036,"0.0-326.0","ghbrKNJ4SVLoVJn13dR1rrFouqJiG6nnU801K/W6YObuTCqREWF7+Y+AEnsnHQCb52XIbbwNPj8/ogbyVShjXP5Qhfxh6/AZLnxJWy26qZOtIzhrGp0ZSgwnfL1REgbxoKOm/e+IujWVgr216+r4ep7DYoKRvEIaDbwxnDKZVMFtSlhgGrK5f8dUu6c7YFX5rXM34/FFAxGA7p0X12qJtqP7iseycke5sDqpJeoQoEhUDB+Eux1jC4Fxwp4IJsHR8QwatuT6ZlIcUaHkGdrKru/3tYImDXqWT9g+dagtYQvxfJTcKjC5Vt5MWWDGxL12TSMEdYLPBfU66OVRRsuViw==","691f8ca61c6b4dcbb0aeb5f4","691fb60ce261ea1dd0ead9cd","index1","<span style='color:red'>Fail,<span style='color:red'>Fail,<span style='color:green'>Lift,<span style='color:green'>Lift,<span style='color:red'>Fail,<span style='color:red'>Fail,<span style='color:red'>Fail,<span style='color:red'>Fail,<span style='color:green'>Lift,<span style='color:red'>Fail,<span style='color:green'>Lift,<span style='color:red'>Fail","<span style='color:red'>Fail,<span style='color:red'>Fail,<span style='color:green'>Lift,<span style='color:green'>Lift,<span style='color:green'>Lift,<span style='color:green'>Lift,<span style='color:red'>Fail,<span style='color:green'>Lift,<span style='color:green'>Lift,<span style='color:green'>Lift,<span style='color:green'>Lift,<span style='color:red'>Fail","<span style='color:red'>Fail,<span style='color:green'>Lift,<span style='color:green'>Lift,<span style='color:red'>Fail,<span style='color:green'>Lift,<span style='color:green'>Lift","0,0,1,1,0,0,0,0,1,0,1,0","0,0,1,1,1,1,0,1,1,1,1,0","0,1,1,0,1,1",10,20,20,"","","","","{""box1"":""7"",""box2"":""4"",""box3"":""45""}","",NA,3,"round1_outcome",1,3,1,7,4,45,NA,1,0,10,7,4,45,NA,1,0,10,NA,NA,NA,NA,NA,NA,NA,NA,NA,NA,NA,NA,NA,NA,NA,NA,NA,NA,NA,NA,NA,NA,NA,"",NA,NA,NA,NA,NA,NA,NA,NA,2025-11-21 01:03:04
"5907.20000000298","https://psyc-201.github.io/xiang2023/exp/index1.html?PROLIFIC_PID=REDACTED&STUDY_ID=691f8ca61c6b4dcbb0aeb5f4&SESSION_ID=691fb60ce261ea1dd0ead9cd","survey-html-form",25,669944,"0.0-327.0","ghbrKNJ4SVLoVJn13dR1rrFouqJiG6nnU801K/W6YObuTCqREWF7+Y+AEnsnHQCb52XIbbwNPj8/ogbyVShjXP5Qhfxh6/AZLnxJWy26qZOtIzhrGp0ZSgwnfL1REgbxoKOm/e+IujWVgr216+r4ep7DYoKRvEIaDbwxnDKZVMFtSlhgGrK5f8dUu6c7YFX5rXM34/FFAxGA7p0X12qJtqP7iseycke5sDqpJeoQoEhUDB+Eux1jC4Fxwp4IJsHR8QwatuT6ZlIcUaHkGdrKru/3tYImDXqWT9g+dagtYQvxfJTcKjC5Vt5MWWDGxL12TSMEdYLPBfU66OVRRsuViw==","691f8ca61c6b4dcbb0aeb5f4","691fb60ce261ea1dd0ead9cd","index1","<span style='color:red'>Fail,<span style='color:red'>Fail,<span style='color:green'>Lift,<span style='color:green'>Lift,<span style='color:red'>Fail,<span style='color:red'>Fail,<span style='color:red'>Fail,<span style='color:red'>Fail,<span style='color:green'>Lift,<span style='color:red'>Fail,<span style='color:green'>Lift,<span style='color:red'>Fail","<span style='color:red'>Fail,<span style='color:red'>Fail,<span style='color:green'>Lift,<span style='color:green'>Lift,<span style='color:green'>Lift,<span style='color:green'>Lift,<span style='color:red'>Fail,<span style='color:green'>Lift,<span style='color:green'>Lift,<span style='color:green'>Lift,<span style='color:green'>Lift,<span style='color:red'>Fail","<span style='color:red'>Fail,<span style='color:green'>Lift,<span style='color:green'>Lift,<span style='color:red'>Fail,<span style='color:green'>Lift,<span style='color:green'>Lift","0,0,1,1,0,0,0,0,1,0,1,0","0,0,1,1,1,1,0,1,1,1,1,0","0,1,1,0,1,1",10,20,20,"","","","","{""box1"":""50"",""box2"":""30""}","",NA,3,"round2_ready",2,3,2,NA,NA,NA,NA,NA,NA,NA,NA,NA,NA,NA,NA,NA,NA,50,30,50,30,NA,NA,NA,NA,NA,NA,NA,NA,NA,NA,NA,NA,NA,NA,NA,NA,NA,NA,NA,"",NA,NA,NA,NA,NA,NA,NA,NA,2025-11-21 01:03:04
"8323.29999999702","https://psyc-201.github.io/xiang2023/exp/index1.html?PROLIFIC_PID=REDACTED&STUDY_ID=691f8ca61c6b4dcbb0aeb5f4&SESSION_ID=691fb60ce261ea1dd0ead9cd","survey-html-form",26,678268,"0.0-328.0","ghbrKNJ4SVLoVJn13dR1rrFouqJiG6nnU801K/W6YObuTCqREWF7+Y+AEnsnHQCb52XIbbwNPj8/ogbyVShjXP5Qhfxh6/AZLnxJWy26qZOtIzhrGp0ZSgwnfL1REgbxoKOm/e+IujWVgr216+r4ep7DYoKRvEIaDbwxnDKZVMFtSlhgGrK5f8dUu6c7YFX5rXM34/FFAxGA7p0X12qJtqP7iseycke5sDqpJeoQoEhUDB+Eux1jC4Fxwp4IJsHR8QwatuT6ZlIcUaHkGdrKru/3tYImDXqWT9g+dagtYQvxfJTcKjC5Vt5MWWDGxL12TSMEdYLPBfU66OVRRsuViw==","691f8ca61c6b4dcbb0aeb5f4","691fb60ce261ea1dd0ead9cd","index1","<span style='color:red'>Fail,<span style='color:red'>Fail,<span style='color:green'>Lift,<span style='color:green'>Lift,<span style='color:red'>Fail,<span style='color:red'>Fail,<span style='color:red'>Fail,<span style='color:red'>Fail,<span style='color:green'>Lift,<span style='color:red'>Fail,<span style='color:green'>Lift,<span style='color:red'>Fail","<span style='color:red'>Fail,<span style='color:red'>Fail,<span style='color:green'>Lift,<span style='color:green'>Lift,<span style='color:green'>Lift,<span style='color:green'>Lift,<span style='color:red'>Fail,<span style='color:green'>Lift,<span style='color:green'>Lift,<span style='color:green'>Lift,<span style='color:green'>Lift,<span style='color:red'>Fail","<span style='color:red'>Fail,<span style='color:green'>Lift,<span style='color:green'>Lift,<span style='color:red'>Fail,<span style='color:green'>Lift,<span style='color:green'>Lift","0,0,1,1,0,0,0,0,1,0,1,0","0,0,1,1,1,1,0,1,1,1,1,0","0,1,1,0,1,1",10,20,20,"","","","","{""box1"":""8"",""box2"":""8"",""box3"":""100"",""box4"":""100""}","",NA,3,"round2_outcome",3,3,2,8,8,100,100,1,1,20,NA,NA,NA,NA,NA,NA,NA,NA,NA,NA,NA,8,8,100,100,1,1,20,NA,NA,NA,NA,NA,NA,NA,NA,NA,NA,NA,NA,"",NA,NA,NA,NA,NA,NA,NA,NA,2025-11-21 01:03:04
"1957.199999988079","https://psyc-201.github.io/xiang2023/exp/index1.html?PROLIFIC_PID=REDACTED&STUDY_ID=691f8ca61c6b4dcbb0aeb5f4&SESSION_ID=691fb60ce261ea1dd0ead9cd","survey-html-form",27,680226,"0.0-329.0","ghbrKNJ4SVLoVJn13dR1rrFouqJiG6nnU801K/W6YObuTCqREWF7+Y+AEnsnHQCb52XIbbwNPj8/ogbyVShjXP5Qhfxh6/AZLnxJWy26qZOtIzhrGp0ZSgwnfL1REgbxoKOm/e+IujWVgr216+r4ep7DYoKRvEIaDbwxnDKZVMFtSlhgGrK5f8dUu6c7YFX5rXM34/FFAxGA7p0X12qJtqP7iseycke5sDqpJeoQoEhUDB+Eux1jC4Fxwp4IJsHR8QwatuT6ZlIcUaHkGdrKru/3tYImDXqWT9g+dagtYQvxfJTcKjC5Vt5MWWDGxL12TSMEdYLPBfU66OVRRsuViw==","691f8ca61c6b4dcbb0aeb5f4","691fb60ce261ea1dd0ead9cd","index1","<span style='color:red'>Fail,<span style='color:red'>Fail,<span style='color:green'>Lift,<span style='color:green'>Lift,<span style='color:red'>Fail,<span style='color:red'>Fail,<span style='color:red'>Fail,<span style='color:red'>Fail,<span style='color:green'>Lift,<span style='color:red'>Fail,<span style='color:green'>Lift,<span style='color:red'>Fail","<span style='color:red'>Fail,<span style='color:red'>Fail,<span style='color:green'>Lift,<span style='color:green'>Lift,<span style='color:green'>Lift,<span style='color:green'>Lift,<span style='color:red'>Fail,<span style='color:green'>Lift,<span style='color:green'>Lift,<span style='color:green'>Lift,<span style='color:green'>Lift,<span style='color:red'>Fail","<span style='color:red'>Fail,<span style='color:green'>Lift,<span style='color:green'>Lift,<span style='color:red'>Fail,<span style='color:green'>Lift,<span style='color:green'>Lift","0,0,1,1,0,0,0,0,1,0,1,0","0,0,1,1,1,1,0,1,1,1,1,0","0,1,1,0,1,1",10,20,20,"","","","","{""box1"":""100""}","",NA,3,"round3_ready",4,3,3,NA,NA,NA,NA,NA,NA,NA,NA,NA,NA,NA,NA,NA,NA,100,100,NA,NA,NA,NA,NA,NA,NA,NA,NA,100,100,NA,NA,NA,NA,NA,NA,NA,NA,NA,NA,"",NA,NA,NA,NA,NA,NA,NA,NA,2025-11-21 01:03:04
"4981.5999999940395","https://psyc-201.github.io/xiang2023/exp/index1.html?PROLIFIC_PID=REDACTED&STUDY_ID=691f8ca61c6b4dcbb0aeb5f4&SESSION_ID=691fb60ce261ea1dd0ead9cd","survey-html-form",28,685209,"0.0-330.0-0.0","ghbrKNJ4SVLoVJn13dR1rrFouqJiG6nnU801K/W6YObuTCqREWF7+Y+AEnsnHQCb52XIbbwNPj8/ogbyVShjXP5Qhfxh6/AZLnxJWy26qZOtIzhrGp0ZSgwnfL1REgbxoKOm/e+IujWVgr216+r4ep7DYoKRvEIaDbwxnDKZVMFtSlhgGrK5f8dUu6c7YFX5rXM34/FFAxGA7p0X12qJtqP7iseycke5sDqpJeoQoEhUDB+Eux1jC4Fxwp4IJsHR8QwatuT6ZlIcUaHkGdrKru/3tYImDXqWT9g+dagtYQvxfJTcKjC5Vt5MWWDGxL12TSMEdYLPBfU66OVRRsuViw==","691f8ca61c6b4dcbb0aeb5f4","691fb60ce261ea1dd0ead9cd","index1","<span style='color:red'>Fail,<span style='color:red'>Fail,<span style='color:green'>Lift,<span style='color:green'>Lift,<span style='color:red'>Fail,<span style='color:red'>Fail,<span style='color:red'>Fail,<span style='color:red'>Fail,<span style='color:green'>Lift,<span style='color:red'>Fail,<span style='color:green'>Lift,<span style='color:red'>Fail","<span style='color:red'>Fail,<span style='color:red'>Fail,<span style='color:green'>Lift,<span style='color:green'>Lift,<span style='color:green'>Lift,<span style='color:green'>Lift,<span style='color:red'>Fail,<span style='color:green'>Lift,<span style='color:green'>Lift,<span style='color:green'>Lift,<span style='color:green'>Lift,<span style='color:red'>Fail","<span style='color:red'>Fail,<span style='color:green'>Lift,<span style='color:green'>Lift,<span style='color:red'>Fail,<span style='color:green'>Lift,<span style='color:green'>Lift","0,0,1,1,0,0,0,0,1,0,1,0","0,0,1,1,1,1,0,1,1,1,1,0","0,1,1,0,1,1",10,20,20,"","","","","{""box1"":""8"",""box2"":""8"",""box3"":""80"",""box4"":""80""}","",NA,4,"round3_lift",5,3,3,8,8,80,80,1,1,20,NA,NA,NA,NA,NA,NA,NA,NA,NA,NA,NA,NA,NA,NA,NA,NA,NA,NA,NA,NA,8,8,80,80,1,1,20,NA,NA,NA,"",NA,NA,NA,NA,NA,NA,NA,NA,2025-11-21 01:03:04
"null","https://psyc-201.github.io/xiang2023/exp/index1.html?PROLIFIC_PID=REDACTED&STUDY_ID=691f8ca61c6b4dcbb0aeb5f4&SESSION_ID=691fb60ce261ea1dd0ead9cd","html-keyboard-response",29,688226,"0.0-334.0","ghbrKNJ4SVLoVJn13dR1rrFouqJiG6nnU801K/W6YObuTCqREWF7+Y+AEnsnHQCb52XIbbwNPj8/ogbyVShjXP5Qhfxh6/AZLnxJWy26qZOtIzhrGp0ZSgwnfL1REgbxoKOm/e+IujWVgr216+r4ep7DYoKRvEIaDbwxnDKZVMFtSlhgGrK5f8dUu6c7YFX5rXM34/FFAxGA7p0X12qJtqP7iseycke5sDqpJeoQoEhUDB+Eux1jC4Fxwp4IJsHR8QwatuT6ZlIcUaHkGdrKru/3tYImDXqWT9g+dagtYQvxfJTcKjC5Vt5MWWDGxL12TSMEdYLPBfU66OVRRsuViw==","691f8ca61c6b4dcbb0aeb5f4","691fb60ce261ea1dd0ead9cd","index1","<span style='color:red'>Fail,<span style='color:red'>Fail,<span style='color:green'>Lift,<span style='color:green'>Lift,<span style='color:red'>Fail,<span style='color:red'>Fail,<span style='color:red'>Fail,<span style='color:red'>Fail,<span style='color:green'>Lift,<span style='color:red'>Fail,<span style='color:green'>Lift,<span style='color:red'>Fail","<span style='color:red'>Fail,<span style='color:red'>Fail,<span style='color:green'>Lift,<span style='color:green'>Lift,<span style='color:green'>Lift,<span style='color:green'>Lift,<span style='color:red'>Fail,<span style='color:green'>Lift,<span style='color:green'>Lift,<span style='color:green'>Lift,<span style='color:green'>Lift,<span style='color:red'>Fail","<span style='color:red'>Fail,<span style='color:green'>Lift,<span style='color:green'>Lift,<span style='color:red'>Fail,<span style='color:green'>Lift,<span style='color:green'>Lift","0,0,1,1,0,0,0,0,1,0,1,0","0,0,1,1,1,1,0,1,1,1,1,0","0,1,1,0,1,1",10,20,20,"","","<p style='font-size:30px'><b> New Contest! </b></p>","null","","",NA,4,"",NA,NA,NA,NA,NA,NA,NA,NA,NA,NA,NA,NA,NA,NA,NA,NA,NA,NA,NA,NA,NA,NA,NA,NA,NA,NA,NA,NA,NA,NA,NA,NA,NA,NA,NA,NA,NA,NA,NA,NA,"",NA,NA,NA,NA,NA,NA,NA,NA,2025-11-21 01:03:04
"224559.29999999702","https://psyc-201.github.io/xiang2023/exp/index1.html?PROLIFIC_PID=REDACTED&STUDY_ID=691f8ca61c6b4dcbb0aeb5f4&SESSION_ID=691fb60ce261ea1dd0ead9cd","survey-html-form",30,912785,"0.0-335.0","ghbrKNJ4SVLoVJn13dR1rrFouqJiG6nnU801K/W6YObuTCqREWF7+Y+AEnsnHQCb52XIbbwNPj8/ogbyVShjXP5Qhfxh6/AZLnxJWy26qZOtIzhrGp0ZSgwnfL1REgbxoKOm/e+IujWVgr216+r4ep7DYoKRvEIaDbwxnDKZVMFtSlhgGrK5f8dUu6c7YFX5rXM34/FFAxGA7p0X12qJtqP7iseycke5sDqpJeoQoEhUDB+Eux1jC4Fxwp4IJsHR8QwatuT6ZlIcUaHkGdrKru/3tYImDXqWT9g+dagtYQvxfJTcKjC5Vt5MWWDGxL12TSMEdYLPBfU66OVRRsuViw==","691f8ca61c6b4dcbb0aeb5f4","691fb60ce261ea1dd0ead9cd","index1","<span style='color:red'>Fail,<span style='color:red'>Fail,<span style='color:green'>Lift,<span style='color:green'>Lift,<span style='color:red'>Fail,<span style='color:red'>Fail,<span style='color:red'>Fail,<span style='color:red'>Fail,<span style='color:green'>Lift,<span style='color:red'>Fail,<span style='color:green'>Lift,<span style='color:red'>Fail","<span style='color:red'>Fail,<span style='color:red'>Fail,<span style='color:green'>Lift,<span style='color:green'>Lift,<span style='color:green'>Lift,<span style='color:green'>Lift,<span style='color:red'>Fail,<span style='color:green'>Lift,<span style='color:green'>Lift,<span style='color:green'>Lift,<span style='color:green'>Lift,<span style='color:red'>Fail","<span style='color:red'>Fail,<span style='color:green'>Lift,<span style='color:green'>Lift,<span style='color:red'>Fail,<span style='color:green'>Lift,<span style='color:green'>Lift","0,0,1,1,0,0,0,0,1,0,1,0","0,0,1,1,1,1,0,1,1,1,1,0","0,1,1,0,1,1",10,20,20,"","","","","{""box1"":""4"",""box2"":""4""}","",NA,4,"round1_outcome",1,4,1,4,4,NA,NA,0,0,10,4,4,NA,NA,0,0,10,NA,NA,NA,NA,NA,NA,NA,NA,NA,NA,NA,NA,NA,NA,NA,NA,NA,NA,NA,NA,NA,NA,NA,"",NA,NA,NA,NA,NA,NA,NA,NA,2025-11-21 01:03:04
"3822.0999999940395","https://psyc-201.github.io/xiang2023/exp/index1.html?PROLIFIC_PID=REDACTED&STUDY_ID=691f8ca61c6b4dcbb0aeb5f4&SESSION_ID=691fb60ce261ea1dd0ead9cd","survey-html-form",31,916608,"0.0-336.0","ghbrKNJ4SVLoVJn13dR1rrFouqJiG6nnU801K/W6YObuTCqREWF7+Y+AEnsnHQCb52XIbbwNPj8/ogbyVShjXP5Qhfxh6/AZLnxJWy26qZOtIzhrGp0ZSgwnfL1REgbxoKOm/e+IujWVgr216+r4ep7DYoKRvEIaDbwxnDKZVMFtSlhgGrK5f8dUu6c7YFX5rXM34/FFAxGA7p0X12qJtqP7iseycke5sDqpJeoQoEhUDB+Eux1jC4Fxwp4IJsHR8QwatuT6ZlIcUaHkGdrKru/3tYImDXqWT9g+dagtYQvxfJTcKjC5Vt5MWWDGxL12TSMEdYLPBfU66OVRRsuViw==","691f8ca61c6b4dcbb0aeb5f4","691fb60ce261ea1dd0ead9cd","index1","<span style='color:red'>Fail,<span style='color:red'>Fail,<span style='color:green'>Lift,<span style='color:green'>Lift,<span style='color:red'>Fail,<span style='color:red'>Fail,<span style='color:red'>Fail,<span style='color:red'>Fail,<span style='color:green'>Lift,<span style='color:red'>Fail,<span style='color:green'>Lift,<span style='color:red'>Fail","<span style='color:red'>Fail,<span style='color:red'>Fail,<span style='color:green'>Lift,<span style='color:green'>Lift,<span style='color:green'>Lift,<span style='color:green'>Lift,<span style='color:red'>Fail,<span style='color:green'>Lift,<span style='color:green'>Lift,<span style='color:green'>Lift,<span style='color:green'>Lift,<span style='color:red'>Fail","<span style='color:red'>Fail,<span style='color:green'>Lift,<span style='color:green'>Lift,<span style='color:red'>Fail,<span style='color:green'>Lift,<span style='color:green'>Lift","0,0,1,1,0,0,0,0,1,0,1,0","0,0,1,1,1,1,0,1,1,1,1,0","0,1,1,0,1,1",10,20,20,"","","","","{""box1"":""40"",""box2"":""45""}","",NA,4,"round2_ready",2,4,2,NA,NA,NA,NA,NA,NA,NA,NA,NA,NA,NA,NA,NA,NA,40,45,40,45,NA,NA,NA,NA,NA,NA,NA,NA,NA,NA,NA,NA,NA,NA,NA,NA,NA,NA,NA,"",NA,NA,NA,NA,NA,NA,NA,NA,2025-11-21 01:03:04
"7199","https://psyc-201.github.io/xiang2023/exp/index1.html?PROLIFIC_PID=REDACTED&STUDY_ID=691f8ca61c6b4dcbb0aeb5f4&SESSION_ID=691fb60ce261ea1dd0ead9cd","survey-html-form",32,923809,"0.0-337.0","ghbrKNJ4SVLoVJn13dR1rrFouqJiG6nnU801K/W6YObuTCqREWF7+Y+AEnsnHQCb52XIbbwNPj8/ogbyVShjXP5Qhfxh6/AZLnxJWy26qZOtIzhrGp0ZSgwnfL1REgbxoKOm/e+IujWVgr216+r4ep7DYoKRvEIaDbwxnDKZVMFtSlhgGrK5f8dUu6c7YFX5rXM34/FFAxGA7p0X12qJtqP7iseycke5sDqpJeoQoEhUDB+Eux1jC4Fxwp4IJsHR8QwatuT6ZlIcUaHkGdrKru/3tYImDXqWT9g+dagtYQvxfJTcKjC5Vt5MWWDGxL12TSMEdYLPBfU66OVRRsuViw==","691f8ca61c6b4dcbb0aeb5f4","691fb60ce261ea1dd0ead9cd","index1","<span style='color:red'>Fail,<span style='color:red'>Fail,<span style='color:green'>Lift,<span style='color:green'>Lift,<span style='color:red'>Fail,<span style='color:red'>Fail,<span style='color:red'>Fail,<span style='color:red'>Fail,<span style='color:green'>Lift,<span style='color:red'>Fail,<span style='color:green'>Lift,<span style='color:red'>Fail","<span style='color:red'>Fail,<span style='color:red'>Fail,<span style='color:green'>Lift,<span style='color:green'>Lift,<span style='color:green'>Lift,<span style='color:green'>Lift,<span style='color:red'>Fail,<span style='color:green'>Lift,<span style='color:green'>Lift,<span style='color:green'>Lift,<span style='color:green'>Lift,<span style='color:red'>Fail","<span style='color:red'>Fail,<span style='color:green'>Lift,<span style='color:green'>Lift,<span style='color:red'>Fail,<span style='color:green'>Lift,<span style='color:green'>Lift","0,0,1,1,0,0,0,0,1,0,1,0","0,0,1,1,1,1,0,1,1,1,1,0","0,1,1,0,1,1",10,20,20,"","","","","{""box1"":""8"",""box2"":""8"",""box3"":""100"",""box4"":""100""}","",NA,4,"round2_outcome",3,4,2,8,8,100,100,1,1,20,NA,NA,NA,NA,NA,NA,NA,NA,NA,NA,NA,8,8,100,100,1,1,20,NA,NA,NA,NA,NA,NA,NA,NA,NA,NA,NA,NA,"",NA,NA,NA,NA,NA,NA,NA,NA,2025-11-21 01:03:04
"2514.2999999970198","https://psyc-201.github.io/xiang2023/exp/index1.html?PROLIFIC_PID=REDACTED&STUDY_ID=691f8ca61c6b4dcbb0aeb5f4&SESSION_ID=691fb60ce261ea1dd0ead9cd","survey-html-form",33,926324,"0.0-338.0","ghbrKNJ4SVLoVJn13dR1rrFouqJiG6nnU801K/W6YObuTCqREWF7+Y+AEnsnHQCb52XIbbwNPj8/ogbyVShjXP5Qhfxh6/AZLnxJWy26qZOtIzhrGp0ZSgwnfL1REgbxoKOm/e+IujWVgr216+r4ep7DYoKRvEIaDbwxnDKZVMFtSlhgGrK5f8dUu6c7YFX5rXM34/FFAxGA7p0X12qJtqP7iseycke5sDqpJeoQoEhUDB+Eux1jC4Fxwp4IJsHR8QwatuT6ZlIcUaHkGdrKru/3tYImDXqWT9g+dagtYQvxfJTcKjC5Vt5MWWDGxL12TSMEdYLPBfU66OVRRsuViw==","691f8ca61c6b4dcbb0aeb5f4","691fb60ce261ea1dd0ead9cd","index1","<span style='color:red'>Fail,<span style='color:red'>Fail,<span style='color:green'>Lift,<span style='color:green'>Lift,<span style='color:red'>Fail,<span style='color:red'>Fail,<span style='color:red'>Fail,<span style='color:red'>Fail,<span style='color:green'>Lift,<span style='color:red'>Fail,<span style='color:green'>Lift,<span style='color:red'>Fail","<span style='color:red'>Fail,<span style='color:red'>Fail,<span style='color:green'>Lift,<span style='color:green'>Lift,<span style='color:green'>Lift,<span style='color:green'>Lift,<span style='color:red'>Fail,<span style='color:green'>Lift,<span style='color:green'>Lift,<span style='color:green'>Lift,<span style='color:green'>Lift,<span style='color:red'>Fail","<span style='color:red'>Fail,<span style='color:green'>Lift,<span style='color:green'>Lift,<span style='color:red'>Fail,<span style='color:green'>Lift,<span style='color:green'>Lift","0,0,1,1,0,0,0,0,1,0,1,0","0,0,1,1,1,1,0,1,1,1,1,0","0,1,1,0,1,1",10,20,20,"","","","","{""box1"":""100""}","",NA,4,"round3_ready",4,4,3,NA,NA,NA,NA,NA,NA,NA,NA,NA,NA,NA,NA,NA,NA,100,100,NA,NA,NA,NA,NA,NA,NA,NA,NA,100,100,NA,NA,NA,NA,NA,NA,NA,NA,NA,NA,"",NA,NA,NA,NA,NA,NA,NA,NA,2025-11-21 01:03:04
"4331.29999999702","https://psyc-201.github.io/xiang2023/exp/index1.html?PROLIFIC_PID=REDACTED&STUDY_ID=691f8ca61c6b4dcbb0aeb5f4&SESSION_ID=691fb60ce261ea1dd0ead9cd","survey-html-form",34,930656,"0.0-339.0-0.0","ghbrKNJ4SVLoVJn13dR1rrFouqJiG6nnU801K/W6YObuTCqREWF7+Y+AEnsnHQCb52XIbbwNPj8/ogbyVShjXP5Qhfxh6/AZLnxJWy26qZOtIzhrGp0ZSgwnfL1REgbxoKOm/e+IujWVgr216+r4ep7DYoKRvEIaDbwxnDKZVMFtSlhgGrK5f8dUu6c7YFX5rXM34/FFAxGA7p0X12qJtqP7iseycke5sDqpJeoQoEhUDB+Eux1jC4Fxwp4IJsHR8QwatuT6ZlIcUaHkGdrKru/3tYImDXqWT9g+dagtYQvxfJTcKjC5Vt5MWWDGxL12TSMEdYLPBfU66OVRRsuViw==","691f8ca61c6b4dcbb0aeb5f4","691fb60ce261ea1dd0ead9cd","index1","<span style='color:red'>Fail,<span style='color:red'>Fail,<span style='color:green'>Lift,<span style='color:green'>Lift,<span style='color:red'>Fail,<span style='color:red'>Fail,<span style='color:red'>Fail,<span style='color:red'>Fail,<span style='color:green'>Lift,<span style='color:red'>Fail,<span style='color:green'>Lift,<span style='color:red'>Fail","<span style='color:red'>Fail,<span style='color:red'>Fail,<span style='color:green'>Lift,<span style='color:green'>Lift,<span style='color:green'>Lift,<span style='color:green'>Lift,<span style='color:red'>Fail,<span style='color:green'>Lift,<span style='color:green'>Lift,<span style='color:green'>Lift,<span style='color:green'>Lift,<span style='color:red'>Fail","<span style='color:red'>Fail,<span style='color:green'>Lift,<span style='color:green'>Lift,<span style='color:red'>Fail,<span style='color:green'>Lift,<span style='color:green'>Lift","0,0,1,1,0,0,0,0,1,0,1,0","0,0,1,1,1,1,0,1,1,1,1,0","0,1,1,0,1,1",10,20,20,"","","","","{""box1"":""8"",""box2"":""8"",""box3"":""80"",""box4"":""80""}","",NA,5,"round3_lift",5,4,3,8,8,80,80,1,1,20,NA,NA,NA,NA,NA,NA,NA,NA,NA,NA,NA,NA,NA,NA,NA,NA,NA,NA,NA,NA,8,8,80,80,1,1,20,NA,NA,NA,"",NA,NA,NA,NA,NA,NA,NA,NA,2025-11-21 01:03:04
"null","https://psyc-201.github.io/xiang2023/exp/index1.html?PROLIFIC_PID=REDACTED&STUDY_ID=691f8ca61c6b4dcbb0aeb5f4&SESSION_ID=691fb60ce261ea1dd0ead9cd","html-keyboard-response",35,933666,"0.0-343.0","ghbrKNJ4SVLoVJn13dR1rrFouqJiG6nnU801K/W6YObuTCqREWF7+Y+AEnsnHQCb52XIbbwNPj8/ogbyVShjXP5Qhfxh6/AZLnxJWy26qZOtIzhrGp0ZSgwnfL1REgbxoKOm/e+IujWVgr216+r4ep7DYoKRvEIaDbwxnDKZVMFtSlhgGrK5f8dUu6c7YFX5rXM34/FFAxGA7p0X12qJtqP7iseycke5sDqpJeoQoEhUDB+Eux1jC4Fxwp4IJsHR8QwatuT6ZlIcUaHkGdrKru/3tYImDXqWT9g+dagtYQvxfJTcKjC5Vt5MWWDGxL12TSMEdYLPBfU66OVRRsuViw==","691f8ca61c6b4dcbb0aeb5f4","691fb60ce261ea1dd0ead9cd","index1","<span style='color:red'>Fail,<span style='color:red'>Fail,<span style='color:green'>Lift,<span style='color:green'>Lift,<span style='color:red'>Fail,<span style='color:red'>Fail,<span style='color:red'>Fail,<span style='color:red'>Fail,<span style='color:green'>Lift,<span style='color:red'>Fail,<span style='color:green'>Lift,<span style='color:red'>Fail","<span style='color:red'>Fail,<span style='color:red'>Fail,<span style='color:green'>Lift,<span style='color:green'>Lift,<span style='color:green'>Lift,<span style='color:green'>Lift,<span style='color:red'>Fail,<span style='color:green'>Lift,<span style='color:green'>Lift,<span style='color:green'>Lift,<span style='color:green'>Lift,<span style='color:red'>Fail","<span style='color:red'>Fail,<span style='color:green'>Lift,<span style='color:green'>Lift,<span style='color:red'>Fail,<span style='color:green'>Lift,<span style='color:green'>Lift","0,0,1,1,0,0,0,0,1,0,1,0","0,0,1,1,1,1,0,1,1,1,1,0","0,1,1,0,1,1",10,20,20,"","","<p style='font-size:30px'><b> New Contest! </b></p>","null","","",NA,5,"",NA,NA,NA,NA,NA,NA,NA,NA,NA,NA,NA,NA,NA,NA,NA,NA,NA,NA,NA,NA,NA,NA,NA,NA,NA,NA,NA,NA,NA,NA,NA,NA,NA,NA,NA,NA,NA,NA,NA,NA,"",NA,NA,NA,NA,NA,NA,NA,NA,2025-11-21 01:03:04
"12081.40000000596","https://psyc-201.github.io/xiang2023/exp/index1.html?PROLIFIC_PID=REDACTED&STUDY_ID=691f8ca61c6b4dcbb0aeb5f4&SESSION_ID=691fb60ce261ea1dd0ead9cd","survey-html-form",36,945749,"0.0-344.0","ghbrKNJ4SVLoVJn13dR1rrFouqJiG6nnU801K/W6YObuTCqREWF7+Y+AEnsnHQCb52XIbbwNPj8/ogbyVShjXP5Qhfxh6/AZLnxJWy26qZOtIzhrGp0ZSgwnfL1REgbxoKOm/e+IujWVgr216+r4ep7DYoKRvEIaDbwxnDKZVMFtSlhgGrK5f8dUu6c7YFX5rXM34/FFAxGA7p0X12qJtqP7iseycke5sDqpJeoQoEhUDB+Eux1jC4Fxwp4IJsHR8QwatuT6ZlIcUaHkGdrKru/3tYImDXqWT9g+dagtYQvxfJTcKjC5Vt5MWWDGxL12TSMEdYLPBfU66OVRRsuViw==","691f8ca61c6b4dcbb0aeb5f4","691fb60ce261ea1dd0ead9cd","index1","<span style='color:red'>Fail,<span style='color:red'>Fail,<span style='color:green'>Lift,<span style='color:green'>Lift,<span style='color:red'>Fail,<span style='color:red'>Fail,<span style='color:red'>Fail,<span style='color:red'>Fail,<span style='color:green'>Lift,<span style='color:red'>Fail,<span style='color:green'>Lift,<span style='color:red'>Fail","<span style='color:red'>Fail,<span style='color:red'>Fail,<span style='color:green'>Lift,<span style='color:green'>Lift,<span style='color:green'>Lift,<span style='color:green'>Lift,<span style='color:red'>Fail,<span style='color:green'>Lift,<span style='color:green'>Lift,<span style='color:green'>Lift,<span style='color:green'>Lift,<span style='color:red'>Fail","<span style='color:red'>Fail,<span style='color:green'>Lift,<span style='color:green'>Lift,<span style='color:red'>Fail,<span style='color:green'>Lift,<span style='color:green'>Lift","0,0,1,1,0,0,0,0,1,0,1,0","0,0,1,1,1,1,0,1,1,1,1,0","0,1,1,0,1,1",10,20,20,"","","","","{""box1"":""4"",""box2"":""4""}","",NA,5,"round1_outcome",1,5,1,4,4,NA,NA,0,0,10,4,4,NA,NA,0,0,10,NA,NA,NA,NA,NA,NA,NA,NA,NA,NA,NA,NA,NA,NA,NA,NA,NA,NA,NA,NA,NA,NA,NA,"",NA,NA,NA,NA,NA,NA,NA,NA,2025-11-21 01:03:04
"7628.9000000059605","https://psyc-201.github.io/xiang2023/exp/index1.html?PROLIFIC_PID=REDACTED&STUDY_ID=691f8ca61c6b4dcbb0aeb5f4&SESSION_ID=691fb60ce261ea1dd0ead9cd","survey-html-form",37,953379,"0.0-345.0","ghbrKNJ4SVLoVJn13dR1rrFouqJiG6nnU801K/W6YObuTCqREWF7+Y+AEnsnHQCb52XIbbwNPj8/ogbyVShjXP5Qhfxh6/AZLnxJWy26qZOtIzhrGp0ZSgwnfL1REgbxoKOm/e+IujWVgr216+r4ep7DYoKRvEIaDbwxnDKZVMFtSlhgGrK5f8dUu6c7YFX5rXM34/FFAxGA7p0X12qJtqP7iseycke5sDqpJeoQoEhUDB+Eux1jC4Fxwp4IJsHR8QwatuT6ZlIcUaHkGdrKru/3tYImDXqWT9g+dagtYQvxfJTcKjC5Vt5MWWDGxL12TSMEdYLPBfU66OVRRsuViw==","691f8ca61c6b4dcbb0aeb5f4","691fb60ce261ea1dd0ead9cd","index1","<span style='color:red'>Fail,<span style='color:red'>Fail,<span style='color:green'>Lift,<span style='color:green'>Lift,<span style='color:red'>Fail,<span style='color:red'>Fail,<span style='color:red'>Fail,<span style='color:red'>Fail,<span style='color:green'>Lift,<span style='color:red'>Fail,<span style='color:green'>Lift,<span style='color:red'>Fail","<span style='color:red'>Fail,<span style='color:red'>Fail,<span style='color:green'>Lift,<span style='color:green'>Lift,<span style='color:green'>Lift,<span style='color:green'>Lift,<span style='color:red'>Fail,<span style='color:green'>Lift,<span style='color:green'>Lift,<span style='color:green'>Lift,<span style='color:green'>Lift,<span style='color:red'>Fail","<span style='color:red'>Fail,<span style='color:green'>Lift,<span style='color:green'>Lift,<span style='color:red'>Fail,<span style='color:green'>Lift,<span style='color:green'>Lift","0,0,1,1,0,0,0,0,1,0,1,0","0,0,1,1,1,1,0,1,1,1,1,0","0,1,1,0,1,1",10,20,20,"","","","","{""box1"":""50"",""box2"":""50""}","",NA,5,"round2_ready",2,5,2,NA,NA,NA,NA,NA,NA,NA,NA,NA,NA,NA,NA,NA,NA,50,50,50,50,NA,NA,NA,NA,NA,NA,NA,NA,NA,NA,NA,NA,NA,NA,NA,NA,NA,NA,NA,"",NA,NA,NA,NA,NA,NA,NA,NA,2025-11-21 01:03:04
"5097.5999999940395","https://psyc-201.github.io/xiang2023/exp/index1.html?PROLIFIC_PID=REDACTED&STUDY_ID=691f8ca61c6b4dcbb0aeb5f4&SESSION_ID=691fb60ce261ea1dd0ead9cd","survey-html-form",38,958478,"0.0-346.0","ghbrKNJ4SVLoVJn13dR1rrFouqJiG6nnU801K/W6YObuTCqREWF7+Y+AEnsnHQCb52XIbbwNPj8/ogbyVShjXP5Qhfxh6/AZLnxJWy26qZOtIzhrGp0ZSgwnfL1REgbxoKOm/e+IujWVgr216+r4ep7DYoKRvEIaDbwxnDKZVMFtSlhgGrK5f8dUu6c7YFX5rXM34/FFAxGA7p0X12qJtqP7iseycke5sDqpJeoQoEhUDB+Eux1jC4Fxwp4IJsHR8QwatuT6ZlIcUaHkGdrKru/3tYImDXqWT9g+dagtYQvxfJTcKjC5Vt5MWWDGxL12TSMEdYLPBfU66OVRRsuViw==","691f8ca61c6b4dcbb0aeb5f4","691fb60ce261ea1dd0ead9cd","index1","<span style='color:red'>Fail,<span style='color:red'>Fail,<span style='color:green'>Lift,<span style='color:green'>Lift,<span style='color:red'>Fail,<span style='color:red'>Fail,<span style='color:red'>Fail,<span style='color:red'>Fail,<span style='color:green'>Lift,<span style='color:red'>Fail,<span style='color:green'>Lift,<span style='color:red'>Fail","<span style='color:red'>Fail,<span style='color:red'>Fail,<span style='color:green'>Lift,<span style='color:green'>Lift,<span style='color:green'>Lift,<span style='color:green'>Lift,<span style='color:red'>Fail,<span style='color:green'>Lift,<span style='color:green'>Lift,<span style='color:green'>Lift,<span style='color:green'>Lift,<span style='color:red'>Fail","<span style='color:red'>Fail,<span style='color:green'>Lift,<span style='color:green'>Lift,<span style='color:red'>Fail,<span style='color:green'>Lift,<span style='color:green'>Lift","0,0,1,1,0,0,0,0,1,0,1,0","0,0,1,1,1,1,0,1,1,1,1,0","0,1,1,0,1,1",10,20,20,"","","","","{""box1"":""4"",""box2"":""4""}","",NA,5,"round2_outcome",3,5,2,4,4,NA,NA,0,0,20,NA,NA,NA,NA,NA,NA,NA,NA,NA,NA,NA,4,4,NA,NA,0,0,20,NA,NA,NA,NA,NA,NA,NA,NA,NA,NA,NA,NA,"",NA,NA,NA,NA,NA,NA,NA,NA,2025-11-21 01:03:04
"2977.5999999940395","https://psyc-201.github.io/xiang2023/exp/index1.html?PROLIFIC_PID=REDACTED&STUDY_ID=691f8ca61c6b4dcbb0aeb5f4&SESSION_ID=691fb60ce261ea1dd0ead9cd","survey-html-form",39,961457,"0.0-347.0","ghbrKNJ4SVLoVJn13dR1rrFouqJiG6nnU801K/W6YObuTCqREWF7+Y+AEnsnHQCb52XIbbwNPj8/ogbyVShjXP5Qhfxh6/AZLnxJWy26qZOtIzhrGp0ZSgwnfL1REgbxoKOm/e+IujWVgr216+r4ep7DYoKRvEIaDbwxnDKZVMFtSlhgGrK5f8dUu6c7YFX5rXM34/FFAxGA7p0X12qJtqP7iseycke5sDqpJeoQoEhUDB+Eux1jC4Fxwp4IJsHR8QwatuT6ZlIcUaHkGdrKru/3tYImDXqWT9g+dagtYQvxfJTcKjC5Vt5MWWDGxL12TSMEdYLPBfU66OVRRsuViw==","691f8ca61c6b4dcbb0aeb5f4","691fb60ce261ea1dd0ead9cd","index1","<span style='color:red'>Fail,<span style='color:red'>Fail,<span style='color:green'>Lift,<span style='color:green'>Lift,<span style='color:red'>Fail,<span style='color:red'>Fail,<span style='color:red'>Fail,<span style='color:red'>Fail,<span style='color:green'>Lift,<span style='color:red'>Fail,<span style='color:green'>Lift,<span style='color:red'>Fail","<span style='color:red'>Fail,<span style='color:red'>Fail,<span style='color:green'>Lift,<span style='color:green'>Lift,<span style='color:green'>Lift,<span style='color:green'>Lift,<span style='color:red'>Fail,<span style='color:green'>Lift,<span style='color:green'>Lift,<span style='color:green'>Lift,<span style='color:green'>Lift,<span style='color:red'>Fail","<span style='color:red'>Fail,<span style='color:green'>Lift,<span style='color:green'>Lift,<span style='color:red'>Fail,<span style='color:green'>Lift,<span style='color:green'>Lift","0,0,1,1,0,0,0,0,1,0,1,0","0,0,1,1,1,1,0,1,1,1,1,0","0,1,1,0,1,1",10,20,20,"","","","","{""box1"":""100""}","",NA,5,"round3_ready",4,5,3,NA,NA,NA,NA,NA,NA,NA,NA,NA,NA,NA,NA,NA,NA,100,100,NA,NA,NA,NA,NA,NA,NA,NA,NA,100,100,NA,NA,NA,NA,NA,NA,NA,NA,NA,NA,"",NA,NA,NA,NA,NA,NA,NA,NA,2025-11-21 01:03:04
"8721.70000000298","https://psyc-201.github.io/xiang2023/exp/index1.html?PROLIFIC_PID=REDACTED&STUDY_ID=691f8ca61c6b4dcbb0aeb5f4&SESSION_ID=691fb60ce261ea1dd0ead9cd","survey-html-form",40,970179,"0.0-349.0-0.0","ghbrKNJ4SVLoVJn13dR1rrFouqJiG6nnU801K/W6YObuTCqREWF7+Y+AEnsnHQCb52XIbbwNPj8/ogbyVShjXP5Qhfxh6/AZLnxJWy26qZOtIzhrGp0ZSgwnfL1REgbxoKOm/e+IujWVgr216+r4ep7DYoKRvEIaDbwxnDKZVMFtSlhgGrK5f8dUu6c7YFX5rXM34/FFAxGA7p0X12qJtqP7iseycke5sDqpJeoQoEhUDB+Eux1jC4Fxwp4IJsHR8QwatuT6ZlIcUaHkGdrKru/3tYImDXqWT9g+dagtYQvxfJTcKjC5Vt5MWWDGxL12TSMEdYLPBfU66OVRRsuViw==","691f8ca61c6b4dcbb0aeb5f4","691fb60ce261ea1dd0ead9cd","index1","<span style='color:red'>Fail,<span style='color:red'>Fail,<span style='color:green'>Lift,<span style='color:green'>Lift,<span style='color:red'>Fail,<span style='color:red'>Fail,<span style='color:red'>Fail,<span style='color:red'>Fail,<span style='color:green'>Lift,<span style='color:red'>Fail,<span style='color:green'>Lift,<span style='color:red'>Fail","<span style='color:red'>Fail,<span style='color:red'>Fail,<span style='color:green'>Lift,<span style='color:green'>Lift,<span style='color:green'>Lift,<span style='color:green'>Lift,<span style='color:red'>Fail,<span style='color:green'>Lift,<span style='color:green'>Lift,<span style='color:green'>Lift,<span style='color:green'>Lift,<span style='color:red'>Fail","<span style='color:red'>Fail,<span style='color:green'>Lift,<span style='color:green'>Lift,<span style='color:red'>Fail,<span style='color:green'>Lift,<span style='color:green'>Lift","0,0,1,1,0,0,0,0,1,0,1,0","0,0,1,1,1,1,0,1,1,1,1,0","0,1,1,0,1,1",10,20,20,"","","","","{""box1"":""2"",""box2"":""2"",""box3"":""50"",""box4"":""50""}","",NA,5,"round3_fail",5,5,3,2,2,NA,NA,0,0,20,NA,NA,NA,NA,NA,NA,NA,NA,NA,NA,NA,NA,NA,NA,NA,NA,NA,NA,NA,NA,2,2,NA,NA,0,0,20,0,1,NA,"",NA,NA,NA,NA,NA,NA,NA,NA,2025-11-21 01:03:04
"null","https://psyc-201.github.io/xiang2023/exp/index1.html?PROLIFIC_PID=REDACTED&STUDY_ID=691f8ca61c6b4dcbb0aeb5f4&SESSION_ID=691fb60ce261ea1dd0ead9cd","html-keyboard-response",41,975193,"0.0-350.0-0.0","ghbrKNJ4SVLoVJn13dR1rrFouqJiG6nnU801K/W6YObuTCqREWF7+Y+AEnsnHQCb52XIbbwNPj8/ogbyVShjXP5Qhfxh6/AZLnxJWy26qZOtIzhrGp0ZSgwnfL1REgbxoKOm/e+IujWVgr216+r4ep7DYoKRvEIaDbwxnDKZVMFtSlhgGrK5f8dUu6c7YFX5rXM34/FFAxGA7p0X12qJtqP7iseycke5sDqpJeoQoEhUDB+Eux1jC4Fxwp4IJsHR8QwatuT6ZlIcUaHkGdrKru/3tYImDXqWT9g+dagtYQvxfJTcKjC5Vt5MWWDGxL12TSMEdYLPBfU66OVRRsuViw==","691f8ca61c6b4dcbb0aeb5f4","691fb60ce261ea1dd0ead9cd","index1","<span style='color:red'>Fail,<span style='color:red'>Fail,<span style='color:green'>Lift,<span style='color:green'>Lift,<span style='color:red'>Fail,<span style='color:red'>Fail,<span style='color:red'>Fail,<span style='color:red'>Fail,<span style='color:green'>Lift,<span style='color:red'>Fail,<span style='color:green'>Lift,<span style='color:red'>Fail","<span style='color:red'>Fail,<span style='color:red'>Fail,<span style='color:green'>Lift,<span style='color:green'>Lift,<span style='color:green'>Lift,<span style='color:green'>Lift,<span style='color:red'>Fail,<span style='color:green'>Lift,<span style='color:green'>Lift,<span style='color:green'>Lift,<span style='color:green'>Lift,<span style='color:red'>Fail","<span style='color:red'>Fail,<span style='color:green'>Lift,<span style='color:green'>Lift,<span style='color:red'>Fail,<span style='color:green'>Lift,<span style='color:green'>Lift","0,0,1,1,0,0,0,0,1,0,1,0","0,0,1,1,1,1,0,1,1,1,1,0","0,1,1,0,1,1",10,20,20,"","","<p> <b>Oops you failed an attention check!</b> </p><p> <b>We will have to discard your data if you fail another one.</b> </p><p> <b>Please pay more attention!</b> </p>","null","","",NA,6,"warning",NA,NA,NA,NA,NA,NA,NA,NA,NA,NA,NA,NA,NA,NA,NA,NA,NA,NA,NA,NA,NA,NA,NA,NA,NA,NA,NA,NA,NA,NA,NA,NA,NA,NA,NA,NA,NA,NA,NA,1,"",NA,NA,NA,NA,NA,NA,NA,NA,2025-11-21 01:03:04
"null","https://psyc-201.github.io/xiang2023/exp/index1.html?PROLIFIC_PID=REDACTED&STUDY_ID=691f8ca61c6b4dcbb0aeb5f4&SESSION_ID=691fb60ce261ea1dd0ead9cd","html-keyboard-response",42,978206,"0.0-352.0","ghbrKNJ4SVLoVJn13dR1rrFouqJiG6nnU801K/W6YObuTCqREWF7+Y+AEnsnHQCb52XIbbwNPj8/ogbyVShjXP5Qhfxh6/AZLnxJWy26qZOtIzhrGp0ZSgwnfL1REgbxoKOm/e+IujWVgr216+r4ep7DYoKRvEIaDbwxnDKZVMFtSlhgGrK5f8dUu6c7YFX5rXM34/FFAxGA7p0X12qJtqP7iseycke5sDqpJeoQoEhUDB+Eux1jC4Fxwp4IJsHR8QwatuT6ZlIcUaHkGdrKru/3tYImDXqWT9g+dagtYQvxfJTcKjC5Vt5MWWDGxL12TSMEdYLPBfU66OVRRsuViw==","691f8ca61c6b4dcbb0aeb5f4","691fb60ce261ea1dd0ead9cd","index1","<span style='color:red'>Fail,<span style='color:red'>Fail,<span style='color:green'>Lift,<span style='color:green'>Lift,<span style='color:red'>Fail,<span style='color:red'>Fail,<span style='color:red'>Fail,<span style='color:red'>Fail,<span style='color:green'>Lift,<span style='color:red'>Fail,<span style='color:green'>Lift,<span style='color:red'>Fail","<span style='color:red'>Fail,<span style='color:red'>Fail,<span style='color:green'>Lift,<span style='color:green'>Lift,<span style='color:green'>Lift,<span style='color:green'>Lift,<span style='color:red'>Fail,<span style='color:green'>Lift,<span style='color:green'>Lift,<span style='color:green'>Lift,<span style='color:green'>Lift,<span style='color:red'>Fail","<span style='color:red'>Fail,<span style='color:green'>Lift,<span style='color:green'>Lift,<span style='color:red'>Fail,<span style='color:green'>Lift,<span style='color:green'>Lift","0,0,1,1,0,0,0,0,1,0,1,0","0,0,1,1,1,1,0,1,1,1,1,0","0,1,1,0,1,1",10,20,20,"","","<p style='font-size:30px'><b> New Contest! </b></p>","null","","",NA,6,"",NA,NA,NA,NA,NA,NA,NA,NA,NA,NA,NA,NA,NA,NA,NA,NA,NA,NA,NA,NA,NA,NA,NA,NA,NA,NA,NA,NA,NA,NA,NA,NA,NA,NA,NA,NA,NA,NA,NA,NA,"",NA,NA,NA,NA,NA,NA,NA,NA,2025-11-21 01:03:04
"9063.79999999702","https://psyc-201.github.io/xiang2023/exp/index1.html?PROLIFIC_PID=REDACTED&STUDY_ID=691f8ca61c6b4dcbb0aeb5f4&SESSION_ID=691fb60ce261ea1dd0ead9cd","survey-html-form",43,987272,"0.0-353.0","ghbrKNJ4SVLoVJn13dR1rrFouqJiG6nnU801K/W6YObuTCqREWF7+Y+AEnsnHQCb52XIbbwNPj8/ogbyVShjXP5Qhfxh6/AZLnxJWy26qZOtIzhrGp0ZSgwnfL1REgbxoKOm/e+IujWVgr216+r4ep7DYoKRvEIaDbwxnDKZVMFtSlhgGrK5f8dUu6c7YFX5rXM34/FFAxGA7p0X12qJtqP7iseycke5sDqpJeoQoEhUDB+Eux1jC4Fxwp4IJsHR8QwatuT6ZlIcUaHkGdrKru/3tYImDXqWT9g+dagtYQvxfJTcKjC5Vt5MWWDGxL12TSMEdYLPBfU66OVRRsuViw==","691f8ca61c6b4dcbb0aeb5f4","691fb60ce261ea1dd0ead9cd","index1","<span style='color:red'>Fail,<span style='color:red'>Fail,<span style='color:green'>Lift,<span style='color:green'>Lift,<span style='color:red'>Fail,<span style='color:red'>Fail,<span style='color:red'>Fail,<span style='color:red'>Fail,<span style='color:green'>Lift,<span style='color:red'>Fail,<span style='color:green'>Lift,<span style='color:red'>Fail","<span style='color:red'>Fail,<span style='color:red'>Fail,<span style='color:green'>Lift,<span style='color:green'>Lift,<span style='color:green'>Lift,<span style='color:green'>Lift,<span style='color:red'>Fail,<span style='color:green'>Lift,<span style='color:green'>Lift,<span style='color:green'>Lift,<span style='color:green'>Lift,<span style='color:red'>Fail","<span style='color:red'>Fail,<span style='color:green'>Lift,<span style='color:green'>Lift,<span style='color:red'>Fail,<span style='color:green'>Lift,<span style='color:green'>Lift","0,0,1,1,0,0,0,0,1,0,1,0","0,0,1,1,1,1,0,1,1,1,1,0","0,1,1,0,1,1",10,20,20,"","","","","{""box1"":""4"",""box2"":""4""}","",NA,6,"round1_outcome",1,6,1,4,4,NA,NA,0,0,10,4,4,NA,NA,0,0,10,NA,NA,NA,NA,NA,NA,NA,NA,NA,NA,NA,NA,NA,NA,NA,NA,NA,NA,NA,NA,NA,NA,NA,"",NA,NA,NA,NA,NA,NA,NA,NA,2025-11-21 01:03:04
"7665.600000008941","https://psyc-201.github.io/xiang2023/exp/index1.html?PROLIFIC_PID=REDACTED&STUDY_ID=691f8ca61c6b4dcbb0aeb5f4&SESSION_ID=691fb60ce261ea1dd0ead9cd","survey-html-form",44,994938,"0.0-354.0","ghbrKNJ4SVLoVJn13dR1rrFouqJiG6nnU801K/W6YObuTCqREWF7+Y+AEnsnHQCb52XIbbwNPj8/ogbyVShjXP5Qhfxh6/AZLnxJWy26qZOtIzhrGp0ZSgwnfL1REgbxoKOm/e+IujWVgr216+r4ep7DYoKRvEIaDbwxnDKZVMFtSlhgGrK5f8dUu6c7YFX5rXM34/FFAxGA7p0X12qJtqP7iseycke5sDqpJeoQoEhUDB+Eux1jC4Fxwp4IJsHR8QwatuT6ZlIcUaHkGdrKru/3tYImDXqWT9g+dagtYQvxfJTcKjC5Vt5MWWDGxL12TSMEdYLPBfU66OVRRsuViw==","691f8ca61c6b4dcbb0aeb5f4","691fb60ce261ea1dd0ead9cd","index1","<span style='color:red'>Fail,<span style='color:red'>Fail,<span style='color:green'>Lift,<span style='color:green'>Lift,<span style='color:red'>Fail,<span style='color:red'>Fail,<span style='color:red'>Fail,<span style='color:red'>Fail,<span style='color:green'>Lift,<span style='color:red'>Fail,<span style='color:green'>Lift,<span style='color:red'>Fail","<span style='color:red'>Fail,<span style='color:red'>Fail,<span style='color:green'>Lift,<span style='color:green'>Lift,<span style='color:green'>Lift,<span style='color:green'>Lift,<span style='color:red'>Fail,<span style='color:green'>Lift,<span style='color:green'>Lift,<span style='color:green'>Lift,<span style='color:green'>Lift,<span style='color:red'>Fail","<span style='color:red'>Fail,<span style='color:green'>Lift,<span style='color:green'>Lift,<span style='color:red'>Fail,<span style='color:green'>Lift,<span style='color:green'>Lift","0,0,1,1,0,0,0,0,1,0,1,0","0,0,1,1,1,1,0,1,1,1,1,0","0,1,1,0,1,1",10,20,20,"","","","","{""box1"":""40"",""box2"":""40""}","",NA,6,"round2_ready",2,6,2,NA,NA,NA,NA,NA,NA,NA,NA,NA,NA,NA,NA,NA,NA,40,40,40,40,NA,NA,NA,NA,NA,NA,NA,NA,NA,NA,NA,NA,NA,NA,NA,NA,NA,NA,NA,"",NA,NA,NA,NA,NA,NA,NA,NA,2025-11-21 01:03:04
"8682.20000000298","https://psyc-201.github.io/xiang2023/exp/index1.html?PROLIFIC_PID=REDACTED&STUDY_ID=691f8ca61c6b4dcbb0aeb5f4&SESSION_ID=691fb60ce261ea1dd0ead9cd","survey-html-form",45,1003622,"0.0-355.0","ghbrKNJ4SVLoVJn13dR1rrFouqJiG6nnU801K/W6YObuTCqREWF7+Y+AEnsnHQCb52XIbbwNPj8/ogbyVShjXP5Qhfxh6/AZLnxJWy26qZOtIzhrGp0ZSgwnfL1REgbxoKOm/e+IujWVgr216+r4ep7DYoKRvEIaDbwxnDKZVMFtSlhgGrK5f8dUu6c7YFX5rXM34/FFAxGA7p0X12qJtqP7iseycke5sDqpJeoQoEhUDB+Eux1jC4Fxwp4IJsHR8QwatuT6ZlIcUaHkGdrKru/3tYImDXqWT9g+dagtYQvxfJTcKjC5Vt5MWWDGxL12TSMEdYLPBfU66OVRRsuViw==","691f8ca61c6b4dcbb0aeb5f4","691fb60ce261ea1dd0ead9cd","index1","<span style='color:red'>Fail,<span style='color:red'>Fail,<span style='color:green'>Lift,<span style='color:green'>Lift,<span style='color:red'>Fail,<span style='color:red'>Fail,<span style='color:red'>Fail,<span style='color:red'>Fail,<span style='color:green'>Lift,<span style='color:red'>Fail,<span style='color:green'>Lift,<span style='color:red'>Fail","<span style='color:red'>Fail,<span style='color:red'>Fail,<span style='color:green'>Lift,<span style='color:green'>Lift,<span style='color:green'>Lift,<span style='color:green'>Lift,<span style='color:red'>Fail,<span style='color:green'>Lift,<span style='color:green'>Lift,<span style='color:green'>Lift,<span style='color:green'>Lift,<span style='color:red'>Fail","<span style='color:red'>Fail,<span style='color:green'>Lift,<span style='color:green'>Lift,<span style='color:red'>Fail,<span style='color:green'>Lift,<span style='color:green'>Lift","0,0,1,1,0,0,0,0,1,0,1,0","0,0,1,1,1,1,0,1,1,1,1,0","0,1,1,0,1,1",10,20,20,"","","","","{""box1"":""4"",""box2"":""7"",""box4"":""80""}","",NA,6,"round2_outcome",3,6,2,4,7,NA,80,0,1,20,NA,NA,NA,NA,NA,NA,NA,NA,NA,NA,NA,4,7,NA,80,0,1,20,NA,NA,NA,NA,NA,NA,NA,NA,NA,NA,NA,NA,"",NA,NA,NA,NA,NA,NA,NA,NA,2025-11-21 01:03:04
"3773","https://psyc-201.github.io/xiang2023/exp/index1.html?PROLIFIC_PID=REDACTED&STUDY_ID=691f8ca61c6b4dcbb0aeb5f4&SESSION_ID=691fb60ce261ea1dd0ead9cd","survey-html-form",46,1007396,"0.0-356.0","ghbrKNJ4SVLoVJn13dR1rrFouqJiG6nnU801K/W6YObuTCqREWF7+Y+AEnsnHQCb52XIbbwNPj8/ogbyVShjXP5Qhfxh6/AZLnxJWy26qZOtIzhrGp0ZSgwnfL1REgbxoKOm/e+IujWVgr216+r4ep7DYoKRvEIaDbwxnDKZVMFtSlhgGrK5f8dUu6c7YFX5rXM34/FFAxGA7p0X12qJtqP7iseycke5sDqpJeoQoEhUDB+Eux1jC4Fxwp4IJsHR8QwatuT6ZlIcUaHkGdrKru/3tYImDXqWT9g+dagtYQvxfJTcKjC5Vt5MWWDGxL12TSMEdYLPBfU66OVRRsuViw==","691f8ca61c6b4dcbb0aeb5f4","691fb60ce261ea1dd0ead9cd","index1","<span style='color:red'>Fail,<span style='color:red'>Fail,<span style='color:green'>Lift,<span style='color:green'>Lift,<span style='color:red'>Fail,<span style='color:red'>Fail,<span style='color:red'>Fail,<span style='color:red'>Fail,<span style='color:green'>Lift,<span style='color:red'>Fail,<span style='color:green'>Lift,<span style='color:red'>Fail","<span style='color:red'>Fail,<span style='color:red'>Fail,<span style='color:green'>Lift,<span style='color:green'>Lift,<span style='color:green'>Lift,<span style='color:green'>Lift,<span style='color:red'>Fail,<span style='color:green'>Lift,<span style='color:green'>Lift,<span style='color:green'>Lift,<span style='color:green'>Lift,<span style='color:red'>Fail","<span style='color:red'>Fail,<span style='color:green'>Lift,<span style='color:green'>Lift,<span style='color:red'>Fail,<span style='color:green'>Lift,<span style='color:green'>Lift","0,0,1,1,0,0,0,0,1,0,1,0","0,0,1,1,1,1,0,1,1,1,1,0","0,1,1,0,1,1",10,20,20,"","","","","{""box1"":""100""}","",NA,6,"round3_ready",4,6,3,NA,NA,NA,NA,NA,NA,NA,NA,NA,NA,NA,NA,NA,NA,100,100,NA,NA,NA,NA,NA,NA,NA,NA,NA,100,100,NA,NA,NA,NA,NA,NA,NA,NA,NA,NA,"",NA,NA,NA,NA,NA,NA,NA,NA,2025-11-21 01:03:04
"20295","https://psyc-201.github.io/xiang2023/exp/index1.html?PROLIFIC_PID=REDACTED&STUDY_ID=691f8ca61c6b4dcbb0aeb5f4&SESSION_ID=691fb60ce261ea1dd0ead9cd","survey-html-form",47,1027692,"0.0-358.0-0.0","ghbrKNJ4SVLoVJn13dR1rrFouqJiG6nnU801K/W6YObuTCqREWF7+Y+AEnsnHQCb52XIbbwNPj8/ogbyVShjXP5Qhfxh6/AZLnxJWy26qZOtIzhrGp0ZSgwnfL1REgbxoKOm/e+IujWVgr216+r4ep7DYoKRvEIaDbwxnDKZVMFtSlhgGrK5f8dUu6c7YFX5rXM34/FFAxGA7p0X12qJtqP7iseycke5sDqpJeoQoEhUDB+Eux1jC4Fxwp4IJsHR8QwatuT6ZlIcUaHkGdrKru/3tYImDXqWT9g+dagtYQvxfJTcKjC5Vt5MWWDGxL12TSMEdYLPBfU66OVRRsuViw==","691f8ca61c6b4dcbb0aeb5f4","691fb60ce261ea1dd0ead9cd","index1","<span style='color:red'>Fail,<span style='color:red'>Fail,<span style='color:green'>Lift,<span style='color:green'>Lift,<span style='color:red'>Fail,<span style='color:red'>Fail,<span style='color:red'>Fail,<span style='color:red'>Fail,<span style='color:green'>Lift,<span style='color:red'>Fail,<span style='color:green'>Lift,<span style='color:red'>Fail","<span style='color:red'>Fail,<span style='color:red'>Fail,<span style='color:green'>Lift,<span style='color:green'>Lift,<span style='color:green'>Lift,<span style='color:green'>Lift,<span style='color:red'>Fail,<span style='color:green'>Lift,<span style='color:green'>Lift,<span style='color:green'>Lift,<span style='color:green'>Lift,<span style='color:red'>Fail","<span style='color:red'>Fail,<span style='color:green'>Lift,<span style='color:green'>Lift,<span style='color:red'>Fail,<span style='color:green'>Lift,<span style='color:green'>Lift","0,0,1,1,0,0,0,0,1,0,1,0","0,0,1,1,1,1,0,1,1,1,1,0","0,1,1,0,1,1",10,20,20,"","","","","{""box1"":""4"",""box2"":""5"",""box3"":""999"",""box4"":""999""}","",NA,6,"round3_fail",5,6,3,4,5,NA,NA,0,0,20,NA,NA,NA,NA,NA,NA,NA,NA,NA,NA,NA,NA,NA,NA,NA,NA,NA,NA,NA,NA,4,5,NA,NA,0,0,20,1,1,NA,"",NA,NA,NA,NA,NA,NA,NA,NA,2025-11-21 01:03:04
"22031.09999999404","https://psyc-201.github.io/xiang2023/exp/index1.html?PROLIFIC_PID=REDACTED&STUDY_ID=691f8ca61c6b4dcbb0aeb5f4&SESSION_ID=691fb60ce261ea1dd0ead9cd","survey-text",48,1049726,"0.0-361.0","ghbrKNJ4SVLoVJn13dR1rrFouqJiG6nnU801K/W6YObuTCqREWF7+Y+AEnsnHQCb52XIbbwNPj8/ogbyVShjXP5Qhfxh6/AZLnxJWy26qZOtIzhrGp0ZSgwnfL1REgbxoKOm/e+IujWVgr216+r4ep7DYoKRvEIaDbwxnDKZVMFtSlhgGrK5f8dUu6c7YFX5rXM34/FFAxGA7p0X12qJtqP7iseycke5sDqpJeoQoEhUDB+Eux1jC4Fxwp4IJsHR8QwatuT6ZlIcUaHkGdrKru/3tYImDXqWT9g+dagtYQvxfJTcKjC5Vt5MWWDGxL12TSMEdYLPBfU66OVRRsuViw==","691f8ca61c6b4dcbb0aeb5f4","691fb60ce261ea1dd0ead9cd","index1","<span style='color:red'>Fail,<span style='color:red'>Fail,<span style='color:green'>Lift,<span style='color:green'>Lift,<span style='color:red'>Fail,<span style='color:red'>Fail,<span style='color:red'>Fail,<span style='color:red'>Fail,<span style='color:green'>Lift,<span style='color:red'>Fail,<span style='color:green'>Lift,<span style='color:red'>Fail","<span style='color:red'>Fail,<span style='color:red'>Fail,<span style='color:green'>Lift,<span style='color:green'>Lift,<span style='color:green'>Lift,<span style='color:green'>Lift,<span style='color:red'>Fail,<span style='color:green'>Lift,<span style='color:green'>Lift,<span style='color:green'>Lift,<span style='color:green'>Lift,<span style='color:red'>Fail","<span style='color:red'>Fail,<span style='color:green'>Lift,<span style='color:green'>Lift,<span style='color:red'>Fail,<span style='color:green'>Lift,<span style='color:green'>Lift","0,0,1,1,0,0,0,0,1,0,1,0","0,0,1,1,1,1,0,1,1,1,1,0","0,1,1,0,1,1",10,20,20,"","","","","{""Q0"":""judging how much strength and effort contestants exhibit in lifting boxes""}","",NA,NA,"",NA,NA,NA,NA,NA,NA,NA,NA,NA,NA,NA,NA,NA,NA,NA,NA,NA,NA,NA,NA,NA,NA,NA,NA,NA,NA,NA,NA,NA,NA,NA,NA,NA,NA,NA,NA,NA,NA,NA,NA,"",NA,NA,NA,NA,NA,NA,NA,NA,2025-11-21 01:03:04
"4807.29999999702","https://psyc-201.github.io/xiang2023/exp/index1.html?PROLIFIC_PID=REDACTED&STUDY_ID=691f8ca61c6b4dcbb0aeb5f4&SESSION_ID=691fb60ce261ea1dd0ead9cd","survey-text",49,1054536,"0.0-362.0","ghbrKNJ4SVLoVJn13dR1rrFouqJiG6nnU801K/W6YObuTCqREWF7+Y+AEnsnHQCb52XIbbwNPj8/ogbyVShjXP5Qhfxh6/AZLnxJWy26qZOtIzhrGp0ZSgwnfL1REgbxoKOm/e+IujWVgr216+r4ep7DYoKRvEIaDbwxnDKZVMFtSlhgGrK5f8dUu6c7YFX5rXM34/FFAxGA7p0X12qJtqP7iseycke5sDqpJeoQoEhUDB+Eux1jC4Fxwp4IJsHR8QwatuT6ZlIcUaHkGdrKru/3tYImDXqWT9g+dagtYQvxfJTcKjC5Vt5MWWDGxL12TSMEdYLPBfU66OVRRsuViw==","691f8ca61c6b4dcbb0aeb5f4","691fb60ce261ea1dd0ead9cd","index1","<span style='color:red'>Fail,<span style='color:red'>Fail,<span style='color:green'>Lift,<span style='color:green'>Lift,<span style='color:red'>Fail,<span style='color:red'>Fail,<span style='color:red'>Fail,<span style='color:red'>Fail,<span style='color:green'>Lift,<span style='color:red'>Fail,<span style='color:green'>Lift,<span style='color:red'>Fail","<span style='color:red'>Fail,<span style='color:red'>Fail,<span style='color:green'>Lift,<span style='color:green'>Lift,<span style='color:green'>Lift,<span style='color:green'>Lift,<span style='color:red'>Fail,<span style='color:green'>Lift,<span style='color:green'>Lift,<span style='color:green'>Lift,<span style='color:green'>Lift,<span style='color:red'>Fail","<span style='color:red'>Fail,<span style='color:green'>Lift,<span style='color:green'>Lift,<span style='color:red'>Fail,<span style='color:green'>Lift,<span style='color:green'>Lift","0,0,1,1,0,0,0,0,1,0,1,0","0,0,1,1,1,1,0,1,1,1,1,0","0,1,1,0,1,1",10,20,20,"","","","","{""Q0"":""none""}","",NA,NA,"",NA,NA,NA,NA,NA,NA,NA,NA,NA,NA,NA,NA,NA,NA,NA,NA,NA,NA,NA,NA,NA,NA,NA,NA,NA,NA,NA,NA,NA,NA,NA,NA,NA,NA,NA,NA,NA,NA,NA,NA,"[{""event"":""fullscreenenter"",""trial"":1,""time"":40256}]",5,2,1,50,0,0.5,NA,NA,2025-11-21 01:03:04
"8092.79999999702","https://psyc-201.github.io/xiang2023/exp/index1.html?PROLIFIC_PID=REDACTED&STUDY_ID=691f8ca61c6b4dcbb0aeb5f4&SESSION_ID=691fb60ce261ea1dd0ead9cd","html-button-response",50,1062630,"0.0-363.0","ghbrKNJ4SVLoVJn13dR1rrFouqJiG6nnU801K/W6YObuTCqREWF7+Y+AEnsnHQCb52XIbbwNPj8/ogbyVShjXP5Qhfxh6/AZLnxJWy26qZOtIzhrGp0ZSgwnfL1REgbxoKOm/e+IujWVgr216+r4ep7DYoKRvEIaDbwxnDKZVMFtSlhgGrK5f8dUu6c7YFX5rXM34/FFAxGA7p0X12qJtqP7iseycke5sDqpJeoQoEhUDB+Eux1jC4Fxwp4IJsHR8QwatuT6ZlIcUaHkGdrKru/3tYImDXqWT9g+dagtYQvxfJTcKjC5Vt5MWWDGxL12TSMEdYLPBfU66OVRRsuViw==","691f8ca61c6b4dcbb0aeb5f4","691fb60ce261ea1dd0ead9cd","index1","<span style='color:red'>Fail,<span style='color:red'>Fail,<span style='color:green'>Lift,<span style='color:green'>Lift,<span style='color:red'>Fail,<span style='color:red'>Fail,<span style='color:red'>Fail,<span style='color:red'>Fail,<span style='color:green'>Lift,<span style='color:red'>Fail,<span style='color:green'>Lift,<span style='color:red'>Fail","<span style='color:red'>Fail,<span style='color:red'>Fail,<span style='color:green'>Lift,<span style='color:green'>Lift,<span style='color:green'>Lift,<span style='color:green'>Lift,<span style='color:red'>Fail,<span style='color:green'>Lift,<span style='color:green'>Lift,<span style='color:green'>Lift,<span style='color:green'>Lift,<span style='color:red'>Fail","<span style='color:red'>Fail,<span style='color:green'>Lift,<span style='color:green'>Lift,<span style='color:red'>Fail,<span style='color:green'>Lift,<span style='color:green'>Lift","0,0,1,1,0,0,0,0,1,0,1,0","0,0,1,1,1,1,0,1,1,1,1,0","0,1,1,0,1,1",10,20,20,"","","<p> We randomly picked <b>Contest 5, Round 2</b> to calculate your bonus. </p><p> The outcome of Contestant J on that round is <span style='color:red'>Fail</span>. </p><p> The probability you entered was 50. </p><p><b> You won a bonus of $0.50!</b></p><p> IMPORTANT: Please click 'Next' to complete the game.</p>","","","",0,NA,"",NA,NA,NA,NA,NA,NA,NA,NA,NA,NA,NA,NA,NA,NA,NA,NA,NA,NA,NA,NA,NA,NA,NA,NA,NA,NA,NA,NA,NA,NA,NA,NA,NA,NA,NA,NA,NA,NA,NA,NA,"",NA,NA,NA,NA,NA,NA,1,0,2025-11-21 01:03:04
