"rt","url","trial_type","trial_index","time_elapsed","internal_node_id","encryptedProlificId","studyId","sessionId","expIndex","round1_outcomes","round2_outcomes","round3_outcomes","round1_o","round2_o","round3_o","round1_reward","round2_reward","round3_reward","success","view_history","stimulus","key_press","responses","question_order","j","Stage","stage","contest","round","strength_a","strength_b","effort_a","effort_b","outcome_a","outcome_b","reward","r1_strength_a","r1_strength_b","r1_effort_a","r1_effort_b","r1_outcome_a","r1_outcome_b","r1_reward","probability_a","probability_b","r2_prob_a","r2_prob_b","r2_strength_a","r2_strength_b","r2_effort_a","r2_effort_b","r2_outcome_a","r2_outcome_b","r2_reward","r3_prob_a","r3_prob_b","r3_strength_a","r3_strength_b","r3_effort_a","r3_effort_b","r3_outcome_a","r3_outcome_b","r3_reward","attention_check","count","screen","pick_contest","pick_round","pick_side","trial_probability","trial_outcome","bonus","button_pressed","attention_sum","attention","datapipe_meta.attributes.date_modified"
"16907.30000001192","https://psyc-201.github.io/xiang2023/exp/index1.html?PROLIFIC_PID=REDACTED&STUDY_ID=691f8ca61c6b4dcbb0aeb5f4&SESSION_ID=691fc926161344da0ad02c01","external-html",0,17075,"0.0-0.0","DMI9I2sFf/b/yuMM+aYlikNRBaGSBcvhNVsgdbQLNGyYqDuiL0wMRiwlOj9VKnSCFoR3IOcW2h8RyjR7i2CryXYHMCeg0oVcwQ7Jz4hKr3b8+Z5VDh1zcWMkn9BFLrQ2RAI30/VLu2aZ6BXcM7SmGyVzV9lnmy58X36Yz2XmHeuQiO4q9bOM1Il+9pQIt52K0DTGEj4bnmVUaPHC8CLRmSRwhdDxujT6S/jFGk1xKsbOs+sBVw8viWrZ3yIvUUyf1a0MGD9ZzaeYt3ZCo2b/jMN0lQFQszCCR0x5yvDvHYceE2hSZTA0dPBmsp2SEG8vunFeEHmu4ANAHcz6tIMBOg==","691f8ca61c6b4dcbb0aeb5f4","691fc926161344da0ad02c01","index1","<span style='color:red'>Fail,<span style='color:red'>Fail,<span style='color:green'>Lift,<span style='color:green'>Lift,<span style='color:red'>Fail,<span style='color:red'>Fail,<span style='color:red'>Fail,<span style='color:red'>Fail,<span style='color:green'>Lift,<span style='color:red'>Fail,<span style='color:red'>Fail,<span style='color:green'>Lift","<span style='color:red'>Fail,<span style='color:red'>Fail,<span style='color:green'>Lift,<span style='color:green'>Lift,<span style='color:green'>Lift,<span style='color:green'>Lift,<span style='color:red'>Fail,<span style='color:green'>Lift,<span style='color:green'>Lift,<span style='color:green'>Lift,<span style='color:red'>Fail,<span style='color:green'>Lift","<span style='color:red'>Fail,<span style='color:green'>Lift,<span style='color:green'>Lift,<span style='color:red'>Fail,<span style='color:green'>Lift,<span style='color:green'>Lift","0,0,1,1,0,0,0,0,1,0,0,1","0,0,1,1,1,1,0,1,1,1,0,1","0,1,1,0,1,1",10,20,20,"","","","","","",NA,"",NA,NA,NA,NA,NA,NA,NA,NA,NA,NA,NA,NA,NA,NA,NA,NA,NA,NA,NA,NA,NA,NA,NA,NA,NA,NA,NA,NA,NA,NA,NA,NA,NA,NA,NA,NA,NA,NA,NA,"",NA,NA,NA,NA,NA,NA,NA,NA,NA,2025-11-21 02:17:36
"","https://psyc-201.github.io/xiang2023/exp/index1.html?PROLIFIC_PID=REDACTED&STUDY_ID=691f8ca61c6b4dcbb0aeb5f4&SESSION_ID=691fc926161344da0ad02c01","fullscreen",1,23659,"0.0-1.0","DMI9I2sFf/b/yuMM+aYlikNRBaGSBcvhNVsgdbQLNGyYqDuiL0wMRiwlOj9VKnSCFoR3IOcW2h8RyjR7i2CryXYHMCeg0oVcwQ7Jz4hKr3b8+Z5VDh1zcWMkn9BFLrQ2RAI30/VLu2aZ6BXcM7SmGyVzV9lnmy58X36Yz2XmHeuQiO4q9bOM1Il+9pQIt52K0DTGEj4bnmVUaPHC8CLRmSRwhdDxujT6S/jFGk1xKsbOs+sBVw8viWrZ3yIvUUyf1a0MGD9ZzaeYt3ZCo2b/jMN0lQFQszCCR0x5yvDvHYceE2hSZTA0dPBmsp2SEG8vunFeEHmu4ANAHcz6tIMBOg==","691f8ca61c6b4dcbb0aeb5f4","691fc926161344da0ad02c01","index1","<span style='color:red'>Fail,<span style='color:red'>Fail,<span style='color:green'>Lift,<span style='color:green'>Lift,<span style='color:red'>Fail,<span style='color:red'>Fail,<span style='color:red'>Fail,<span style='color:red'>Fail,<span style='color:green'>Lift,<span style='color:red'>Fail,<span style='color:red'>Fail,<span style='color:green'>Lift","<span style='color:red'>Fail,<span style='color:red'>Fail,<span style='color:green'>Lift,<span style='color:green'>Lift,<span style='color:green'>Lift,<span style='color:green'>Lift,<span style='color:red'>Fail,<span style='color:green'>Lift,<span style='color:green'>Lift,<span style='color:green'>Lift,<span style='color:red'>Fail,<span style='color:green'>Lift","<span style='color:red'>Fail,<span style='color:green'>Lift,<span style='color:green'>Lift,<span style='color:red'>Fail,<span style='color:green'>Lift,<span style='color:green'>Lift","0,0,1,1,0,0,0,0,1,0,0,1","0,0,1,1,1,1,0,1,1,1,0,1","0,1,1,0,1,1",10,20,20,"true","","","","","",NA,"",NA,NA,NA,NA,NA,NA,NA,NA,NA,NA,NA,NA,NA,NA,NA,NA,NA,NA,NA,NA,NA,NA,NA,NA,NA,NA,NA,NA,NA,NA,NA,NA,NA,NA,NA,NA,NA,NA,NA,"",NA,NA,NA,NA,NA,NA,NA,NA,NA,2025-11-21 02:17:36
"126492","https://psyc-201.github.io/xiang2023/exp/index1.html?PROLIFIC_PID=REDACTED&STUDY_ID=691f8ca61c6b4dcbb0aeb5f4&SESSION_ID=691fc926161344da0ad02c01","instructions",2,150149,"0.0-2.0","DMI9I2sFf/b/yuMM+aYlikNRBaGSBcvhNVsgdbQLNGyYqDuiL0wMRiwlOj9VKnSCFoR3IOcW2h8RyjR7i2CryXYHMCeg0oVcwQ7Jz4hKr3b8+Z5VDh1zcWMkn9BFLrQ2RAI30/VLu2aZ6BXcM7SmGyVzV9lnmy58X36Yz2XmHeuQiO4q9bOM1Il+9pQIt52K0DTGEj4bnmVUaPHC8CLRmSRwhdDxujT6S/jFGk1xKsbOs+sBVw8viWrZ3yIvUUyf1a0MGD9ZzaeYt3ZCo2b/jMN0lQFQszCCR0x5yvDvHYceE2hSZTA0dPBmsp2SEG8vunFeEHmu4ANAHcz6tIMBOg==","691f8ca61c6b4dcbb0aeb5f4","691fc926161344da0ad02c01","index1","<span style='color:red'>Fail,<span style='color:red'>Fail,<span style='color:green'>Lift,<span style='color:green'>Lift,<span style='color:red'>Fail,<span style='color:red'>Fail,<span style='color:red'>Fail,<span style='color:red'>Fail,<span style='color:green'>Lift,<span style='color:red'>Fail,<span style='color:red'>Fail,<span style='color:green'>Lift","<span style='color:red'>Fail,<span style='color:red'>Fail,<span style='color:green'>Lift,<span style='color:green'>Lift,<span style='color:green'>Lift,<span style='color:green'>Lift,<span style='color:red'>Fail,<span style='color:green'>Lift,<span style='color:green'>Lift,<span style='color:green'>Lift,<span style='color:red'>Fail,<span style='color:green'>Lift","<span style='color:red'>Fail,<span style='color:green'>Lift,<span style='color:green'>Lift,<span style='color:red'>Fail,<span style='color:green'>Lift,<span style='color:green'>Lift","0,0,1,1,0,0,0,0,1,0,0,1","0,0,1,1,1,1,0,1,1,1,0,1","0,1,1,0,1,1",10,20,20,"","[{""page_index"":0,""viewing_time"":27007.90000000596},{""page_index"":1,""viewing_time"":19401.30000001192},{""page_index"":2,""viewing_time"":12919.59999999404},{""page_index"":3,""viewing_time"":25672.59999999404},{""page_index"":4,""viewing_time"":14004.700000017881},{""page_index"":5,""viewing_time"":19709.399999976158},{""page_index"":6,""viewing_time"":7776}]","","","","",NA,"",NA,NA,NA,NA,NA,NA,NA,NA,NA,NA,NA,NA,NA,NA,NA,NA,NA,NA,NA,NA,NA,NA,NA,NA,NA,NA,NA,NA,NA,NA,NA,NA,NA,NA,NA,NA,NA,NA,NA,"",NA,NA,NA,NA,NA,NA,NA,NA,NA,2025-11-21 02:17:36
"null","https://psyc-201.github.io/xiang2023/exp/index1.html?PROLIFIC_PID=REDACTED&STUDY_ID=691f8ca61c6b4dcbb0aeb5f4&SESSION_ID=691fc926161344da0ad02c01","html-keyboard-response",3,151153,"0.0-3.0","DMI9I2sFf/b/yuMM+aYlikNRBaGSBcvhNVsgdbQLNGyYqDuiL0wMRiwlOj9VKnSCFoR3IOcW2h8RyjR7i2CryXYHMCeg0oVcwQ7Jz4hKr3b8+Z5VDh1zcWMkn9BFLrQ2RAI30/VLu2aZ6BXcM7SmGyVzV9lnmy58X36Yz2XmHeuQiO4q9bOM1Il+9pQIt52K0DTGEj4bnmVUaPHC8CLRmSRwhdDxujT6S/jFGk1xKsbOs+sBVw8viWrZ3yIvUUyf1a0MGD9ZzaeYt3ZCo2b/jMN0lQFQszCCR0x5yvDvHYceE2hSZTA0dPBmsp2SEG8vunFeEHmu4ANAHcz6tIMBOg==","691f8ca61c6b4dcbb0aeb5f4","691fc926161344da0ad02c01","index1","<span style='color:red'>Fail,<span style='color:red'>Fail,<span style='color:green'>Lift,<span style='color:green'>Lift,<span style='color:red'>Fail,<span style='color:red'>Fail,<span style='color:red'>Fail,<span style='color:red'>Fail,<span style='color:green'>Lift,<span style='color:red'>Fail,<span style='color:red'>Fail,<span style='color:green'>Lift","<span style='color:red'>Fail,<span style='color:red'>Fail,<span style='color:green'>Lift,<span style='color:green'>Lift,<span style='color:green'>Lift,<span style='color:green'>Lift,<span style='color:red'>Fail,<span style='color:green'>Lift,<span style='color:green'>Lift,<span style='color:green'>Lift,<span style='color:red'>Fail,<span style='color:green'>Lift","<span style='color:red'>Fail,<span style='color:green'>Lift,<span style='color:green'>Lift,<span style='color:red'>Fail,<span style='color:green'>Lift,<span style='color:green'>Lift","0,0,1,1,0,0,0,0,1,0,0,1","0,0,1,1,1,1,0,1,1,1,0,1","0,1,1,0,1,1",10,20,20,"",""," ","null","","",NA,"",NA,NA,NA,NA,NA,NA,NA,NA,NA,NA,NA,NA,NA,NA,NA,NA,NA,NA,NA,NA,NA,NA,NA,NA,NA,NA,NA,NA,NA,NA,NA,NA,NA,NA,NA,NA,NA,NA,NA,"",NA,NA,NA,NA,NA,NA,NA,NA,NA,2025-11-21 02:17:36
"42953.09999999404","https://psyc-201.github.io/xiang2023/exp/index1.html?PROLIFIC_PID=REDACTED&STUDY_ID=691f8ca61c6b4dcbb0aeb5f4&SESSION_ID=691fc926161344da0ad02c01","survey-multi-choice",4,194108,"0.0-4.0","DMI9I2sFf/b/yuMM+aYlikNRBaGSBcvhNVsgdbQLNGyYqDuiL0wMRiwlOj9VKnSCFoR3IOcW2h8RyjR7i2CryXYHMCeg0oVcwQ7Jz4hKr3b8+Z5VDh1zcWMkn9BFLrQ2RAI30/VLu2aZ6BXcM7SmGyVzV9lnmy58X36Yz2XmHeuQiO4q9bOM1Il+9pQIt52K0DTGEj4bnmVUaPHC8CLRmSRwhdDxujT6S/jFGk1xKsbOs+sBVw8viWrZ3yIvUUyf1a0MGD9ZzaeYt3ZCo2b/jMN0lQFQszCCR0x5yvDvHYceE2hSZTA0dPBmsp2SEG8vunFeEHmu4ANAHcz6tIMBOg==","691f8ca61c6b4dcbb0aeb5f4","691fc926161344da0ad02c01","index1","<span style='color:red'>Fail,<span style='color:red'>Fail,<span style='color:green'>Lift,<span style='color:green'>Lift,<span style='color:red'>Fail,<span style='color:red'>Fail,<span style='color:red'>Fail,<span style='color:red'>Fail,<span style='color:green'>Lift,<span style='color:red'>Fail,<span style='color:red'>Fail,<span style='color:green'>Lift","<span style='color:red'>Fail,<span style='color:red'>Fail,<span style='color:green'>Lift,<span style='color:green'>Lift,<span style='color:green'>Lift,<span style='color:green'>Lift,<span style='color:red'>Fail,<span style='color:green'>Lift,<span style='color:green'>Lift,<span style='color:green'>Lift,<span style='color:red'>Fail,<span style='color:green'>Lift","<span style='color:red'>Fail,<span style='color:green'>Lift,<span style='color:green'>Lift,<span style='color:red'>Fail,<span style='color:green'>Lift,<span style='color:green'>Lift","0,0,1,1,0,0,0,0,1,0,0,1","0,0,1,1,1,1,0,1,1,1,0,1","0,1,1,0,1,1",10,20,20,"","","","","{""Q0"":""It consists of multiple contests, each contest with three rounds."",""Q1"":""When a new contest begins."",""Q2"":""The box weight always stays the same (equivalent to strength of 5)."",""Q3"":""Each will get $20."",""Q4"":""How close my guesses are to the actual outcome.""}","[0,1,2,3,4]",NA,"",NA,NA,NA,NA,NA,NA,NA,NA,NA,NA,NA,NA,NA,NA,NA,NA,NA,NA,NA,NA,NA,NA,NA,NA,NA,NA,NA,NA,NA,NA,NA,NA,NA,NA,NA,NA,NA,NA,NA,"",NA,NA,NA,NA,NA,NA,NA,NA,NA,2025-11-21 02:17:36
"22122","https://psyc-201.github.io/xiang2023/exp/index1.html?PROLIFIC_PID=REDACTED&STUDY_ID=691f8ca61c6b4dcbb0aeb5f4&SESSION_ID=691fc926161344da0ad02c01","instructions",5,216238,"0.0-305.0","DMI9I2sFf/b/yuMM+aYlikNRBaGSBcvhNVsgdbQLNGyYqDuiL0wMRiwlOj9VKnSCFoR3IOcW2h8RyjR7i2CryXYHMCeg0oVcwQ7Jz4hKr3b8+Z5VDh1zcWMkn9BFLrQ2RAI30/VLu2aZ6BXcM7SmGyVzV9lnmy58X36Yz2XmHeuQiO4q9bOM1Il+9pQIt52K0DTGEj4bnmVUaPHC8CLRmSRwhdDxujT6S/jFGk1xKsbOs+sBVw8viWrZ3yIvUUyf1a0MGD9ZzaeYt3ZCo2b/jMN0lQFQszCCR0x5yvDvHYceE2hSZTA0dPBmsp2SEG8vunFeEHmu4ANAHcz6tIMBOg==","691f8ca61c6b4dcbb0aeb5f4","691fc926161344da0ad02c01","index1","<span style='color:red'>Fail,<span style='color:red'>Fail,<span style='color:green'>Lift,<span style='color:green'>Lift,<span style='color:red'>Fail,<span style='color:red'>Fail,<span style='color:red'>Fail,<span style='color:red'>Fail,<span style='color:green'>Lift,<span style='color:red'>Fail,<span style='color:red'>Fail,<span style='color:green'>Lift","<span style='color:red'>Fail,<span style='color:red'>Fail,<span style='color:green'>Lift,<span style='color:green'>Lift,<span style='color:green'>Lift,<span style='color:green'>Lift,<span style='color:red'>Fail,<span style='color:green'>Lift,<span style='color:green'>Lift,<span style='color:green'>Lift,<span style='color:red'>Fail,<span style='color:green'>Lift","<span style='color:red'>Fail,<span style='color:green'>Lift,<span style='color:green'>Lift,<span style='color:red'>Fail,<span style='color:green'>Lift,<span style='color:green'>Lift","0,0,1,1,0,0,0,0,1,0,0,1","0,0,1,1,1,1,0,1,1,1,0,1","0,1,1,0,1,1",10,20,20,"","[{""page_index"":0,""viewing_time"":13784.799999982119},{""page_index"":1,""viewing_time"":8337}]","","","","",NA,"",NA,NA,NA,NA,NA,NA,NA,NA,NA,NA,NA,NA,NA,NA,NA,NA,NA,NA,NA,NA,NA,NA,NA,NA,NA,NA,NA,NA,NA,NA,NA,NA,NA,NA,NA,NA,NA,NA,NA,"",NA,NA,NA,NA,NA,NA,NA,NA,NA,2025-11-21 02:17:36
"null","https://psyc-201.github.io/xiang2023/exp/index1.html?PROLIFIC_PID=REDACTED&STUDY_ID=691f8ca61c6b4dcbb0aeb5f4&SESSION_ID=691fc926161344da0ad02c01","html-keyboard-response",6,217240,"0.0-306.0","DMI9I2sFf/b/yuMM+aYlikNRBaGSBcvhNVsgdbQLNGyYqDuiL0wMRiwlOj9VKnSCFoR3IOcW2h8RyjR7i2CryXYHMCeg0oVcwQ7Jz4hKr3b8+Z5VDh1zcWMkn9BFLrQ2RAI30/VLu2aZ6BXcM7SmGyVzV9lnmy58X36Yz2XmHeuQiO4q9bOM1Il+9pQIt52K0DTGEj4bnmVUaPHC8CLRmSRwhdDxujT6S/jFGk1xKsbOs+sBVw8viWrZ3yIvUUyf1a0MGD9ZzaeYt3ZCo2b/jMN0lQFQszCCR0x5yvDvHYceE2hSZTA0dPBmsp2SEG8vunFeEHmu4ANAHcz6tIMBOg==","691f8ca61c6b4dcbb0aeb5f4","691fc926161344da0ad02c01","index1","<span style='color:red'>Fail,<span style='color:red'>Fail,<span style='color:green'>Lift,<span style='color:green'>Lift,<span style='color:red'>Fail,<span style='color:red'>Fail,<span style='color:red'>Fail,<span style='color:red'>Fail,<span style='color:green'>Lift,<span style='color:red'>Fail,<span style='color:red'>Fail,<span style='color:green'>Lift","<span style='color:red'>Fail,<span style='color:red'>Fail,<span style='color:green'>Lift,<span style='color:green'>Lift,<span style='color:green'>Lift,<span style='color:green'>Lift,<span style='color:red'>Fail,<span style='color:green'>Lift,<span style='color:green'>Lift,<span style='color:green'>Lift,<span style='color:red'>Fail,<span style='color:green'>Lift","<span style='color:red'>Fail,<span style='color:green'>Lift,<span style='color:green'>Lift,<span style='color:red'>Fail,<span style='color:green'>Lift,<span style='color:green'>Lift","0,0,1,1,0,0,0,0,1,0,0,1","0,0,1,1,1,1,0,1,1,1,0,1","0,1,1,0,1,1",10,20,20,"",""," ","null","","",1,"",NA,NA,NA,NA,NA,NA,NA,NA,NA,NA,NA,NA,NA,NA,NA,NA,NA,NA,NA,NA,NA,NA,NA,NA,NA,NA,NA,NA,NA,NA,NA,NA,NA,NA,NA,NA,NA,NA,NA,"",NA,NA,NA,NA,NA,NA,NA,NA,NA,2025-11-21 02:17:36
"null","https://psyc-201.github.io/xiang2023/exp/index1.html?PROLIFIC_PID=REDACTED&STUDY_ID=691f8ca61c6b4dcbb0aeb5f4&SESSION_ID=691fc926161344da0ad02c01","html-keyboard-response",7,220244,"0.0-307.0","DMI9I2sFf/b/yuMM+aYlikNRBaGSBcvhNVsgdbQLNGyYqDuiL0wMRiwlOj9VKnSCFoR3IOcW2h8RyjR7i2CryXYHMCeg0oVcwQ7Jz4hKr3b8+Z5VDh1zcWMkn9BFLrQ2RAI30/VLu2aZ6BXcM7SmGyVzV9lnmy58X36Yz2XmHeuQiO4q9bOM1Il+9pQIt52K0DTGEj4bnmVUaPHC8CLRmSRwhdDxujT6S/jFGk1xKsbOs+sBVw8viWrZ3yIvUUyf1a0MGD9ZzaeYt3ZCo2b/jMN0lQFQszCCR0x5yvDvHYceE2hSZTA0dPBmsp2SEG8vunFeEHmu4ANAHcz6tIMBOg==","691f8ca61c6b4dcbb0aeb5f4","691fc926161344da0ad02c01","index1","<span style='color:red'>Fail,<span style='color:red'>Fail,<span style='color:green'>Lift,<span style='color:green'>Lift,<span style='color:red'>Fail,<span style='color:red'>Fail,<span style='color:red'>Fail,<span style='color:red'>Fail,<span style='color:green'>Lift,<span style='color:red'>Fail,<span style='color:red'>Fail,<span style='color:green'>Lift","<span style='color:red'>Fail,<span style='color:red'>Fail,<span style='color:green'>Lift,<span style='color:green'>Lift,<span style='color:green'>Lift,<span style='color:green'>Lift,<span style='color:red'>Fail,<span style='color:green'>Lift,<span style='color:green'>Lift,<span style='color:green'>Lift,<span style='color:red'>Fail,<span style='color:green'>Lift","<span style='color:red'>Fail,<span style='color:green'>Lift,<span style='color:green'>Lift,<span style='color:red'>Fail,<span style='color:green'>Lift,<span style='color:green'>Lift","0,0,1,1,0,0,0,0,1,0,0,1","0,0,1,1,1,1,0,1,1,1,0,1","0,1,1,0,1,1",10,20,20,"","","<p style='font-size:30px'><b> New Contest! </b></p>","null","","",1,"",NA,NA,NA,NA,NA,NA,NA,NA,NA,NA,NA,NA,NA,NA,NA,NA,NA,NA,NA,NA,NA,NA,NA,NA,NA,NA,NA,NA,NA,NA,NA,NA,NA,NA,NA,NA,NA,NA,NA,"",NA,NA,NA,NA,NA,NA,NA,NA,NA,2025-11-21 02:17:36
"45601.40000000596","https://psyc-201.github.io/xiang2023/exp/index1.html?PROLIFIC_PID=REDACTED&STUDY_ID=691f8ca61c6b4dcbb0aeb5f4&SESSION_ID=691fc926161344da0ad02c01","survey-html-form",8,265847,"0.0-308.0","DMI9I2sFf/b/yuMM+aYlikNRBaGSBcvhNVsgdbQLNGyYqDuiL0wMRiwlOj9VKnSCFoR3IOcW2h8RyjR7i2CryXYHMCeg0oVcwQ7Jz4hKr3b8+Z5VDh1zcWMkn9BFLrQ2RAI30/VLu2aZ6BXcM7SmGyVzV9lnmy58X36Yz2XmHeuQiO4q9bOM1Il+9pQIt52K0DTGEj4bnmVUaPHC8CLRmSRwhdDxujT6S/jFGk1xKsbOs+sBVw8viWrZ3yIvUUyf1a0MGD9ZzaeYt3ZCo2b/jMN0lQFQszCCR0x5yvDvHYceE2hSZTA0dPBmsp2SEG8vunFeEHmu4ANAHcz6tIMBOg==","691f8ca61c6b4dcbb0aeb5f4","691fc926161344da0ad02c01","index1","<span style='color:red'>Fail,<span style='color:red'>Fail,<span style='color:green'>Lift,<span style='color:green'>Lift,<span style='color:red'>Fail,<span style='color:red'>Fail,<span style='color:red'>Fail,<span style='color:red'>Fail,<span style='color:green'>Lift,<span style='color:red'>Fail,<span style='color:red'>Fail,<span style='color:green'>Lift","<span style='color:red'>Fail,<span style='color:red'>Fail,<span style='color:green'>Lift,<span style='color:green'>Lift,<span style='color:green'>Lift,<span style='color:green'>Lift,<span style='color:red'>Fail,<span style='color:green'>Lift,<span style='color:green'>Lift,<span style='color:green'>Lift,<span style='color:red'>Fail,<span style='color:green'>Lift","<span style='color:red'>Fail,<span style='color:green'>Lift,<span style='color:green'>Lift,<span style='color:red'>Fail,<span style='color:green'>Lift,<span style='color:green'>Lift","0,0,1,1,0,0,0,0,1,0,0,1","0,0,1,1,1,1,0,1,1,1,0,1","0,1,1,0,1,1",10,20,20,"","","","","{""box1"":""3"",""box2"":""8"",""box4"":""70""}","",1,"round1_outcome",1,1,1,3,8,NA,70,0,1,10,3,8,NA,70,0,1,10,NA,NA,NA,NA,NA,NA,NA,NA,NA,NA,NA,NA,NA,NA,NA,NA,NA,NA,NA,NA,NA,NA,"",NA,NA,NA,NA,NA,NA,NA,NA,NA,2025-11-21 02:17:36
"17462.40000000596","https://psyc-201.github.io/xiang2023/exp/index1.html?PROLIFIC_PID=REDACTED&STUDY_ID=691f8ca61c6b4dcbb0aeb5f4&SESSION_ID=691fc926161344da0ad02c01","survey-html-form",9,283312,"0.0-309.0","DMI9I2sFf/b/yuMM+aYlikNRBaGSBcvhNVsgdbQLNGyYqDuiL0wMRiwlOj9VKnSCFoR3IOcW2h8RyjR7i2CryXYHMCeg0oVcwQ7Jz4hKr3b8+Z5VDh1zcWMkn9BFLrQ2RAI30/VLu2aZ6BXcM7SmGyVzV9lnmy58X36Yz2XmHeuQiO4q9bOM1Il+9pQIt52K0DTGEj4bnmVUaPHC8CLRmSRwhdDxujT6S/jFGk1xKsbOs+sBVw8viWrZ3yIvUUyf1a0MGD9ZzaeYt3ZCo2b/jMN0lQFQszCCR0x5yvDvHYceE2hSZTA0dPBmsp2SEG8vunFeEHmu4ANAHcz6tIMBOg==","691f8ca61c6b4dcbb0aeb5f4","691fc926161344da0ad02c01","index1","<span style='color:red'>Fail,<span style='color:red'>Fail,<span style='color:green'>Lift,<span style='color:green'>Lift,<span style='color:red'>Fail,<span style='color:red'>Fail,<span style='color:red'>Fail,<span style='color:red'>Fail,<span style='color:green'>Lift,<span style='color:red'>Fail,<span style='color:red'>Fail,<span style='color:green'>Lift","<span style='color:red'>Fail,<span style='color:red'>Fail,<span style='color:green'>Lift,<span style='color:green'>Lift,<span style='color:green'>Lift,<span style='color:green'>Lift,<span style='color:red'>Fail,<span style='color:green'>Lift,<span style='color:green'>Lift,<span style='color:green'>Lift,<span style='color:red'>Fail,<span style='color:green'>Lift","<span style='color:red'>Fail,<span style='color:green'>Lift,<span style='color:green'>Lift,<span style='color:red'>Fail,<span style='color:green'>Lift,<span style='color:green'>Lift","0,0,1,1,0,0,0,0,1,0,0,1","0,0,1,1,1,1,0,1,1,1,0,1","0,1,1,0,1,1",10,20,20,"","","","","{""box1"":""50"",""box2"":""100""}","",1,"round2_ready",2,1,2,NA,NA,NA,NA,NA,NA,NA,NA,NA,NA,NA,NA,NA,NA,50,100,50,100,NA,NA,NA,NA,NA,NA,NA,NA,NA,NA,NA,NA,NA,NA,NA,NA,NA,NA,"",NA,NA,NA,NA,NA,NA,NA,NA,NA,2025-11-21 02:17:36
"17972.59999999404","https://psyc-201.github.io/xiang2023/exp/index1.html?PROLIFIC_PID=REDACTED&STUDY_ID=691f8ca61c6b4dcbb0aeb5f4&SESSION_ID=691fc926161344da0ad02c01","survey-html-form",10,301287,"0.0-310.0","DMI9I2sFf/b/yuMM+aYlikNRBaGSBcvhNVsgdbQLNGyYqDuiL0wMRiwlOj9VKnSCFoR3IOcW2h8RyjR7i2CryXYHMCeg0oVcwQ7Jz4hKr3b8+Z5VDh1zcWMkn9BFLrQ2RAI30/VLu2aZ6BXcM7SmGyVzV9lnmy58X36Yz2XmHeuQiO4q9bOM1Il+9pQIt52K0DTGEj4bnmVUaPHC8CLRmSRwhdDxujT6S/jFGk1xKsbOs+sBVw8viWrZ3yIvUUyf1a0MGD9ZzaeYt3ZCo2b/jMN0lQFQszCCR0x5yvDvHYceE2hSZTA0dPBmsp2SEG8vunFeEHmu4ANAHcz6tIMBOg==","691f8ca61c6b4dcbb0aeb5f4","691fc926161344da0ad02c01","index1","<span style='color:red'>Fail,<span style='color:red'>Fail,<span style='color:green'>Lift,<span style='color:green'>Lift,<span style='color:red'>Fail,<span style='color:red'>Fail,<span style='color:red'>Fail,<span style='color:red'>Fail,<span style='color:green'>Lift,<span style='color:red'>Fail,<span style='color:red'>Fail,<span style='color:green'>Lift","<span style='color:red'>Fail,<span style='color:red'>Fail,<span style='color:green'>Lift,<span style='color:green'>Lift,<span style='color:green'>Lift,<span style='color:green'>Lift,<span style='color:red'>Fail,<span style='color:green'>Lift,<span style='color:green'>Lift,<span style='color:green'>Lift,<span style='color:red'>Fail,<span style='color:green'>Lift","<span style='color:red'>Fail,<span style='color:green'>Lift,<span style='color:green'>Lift,<span style='color:red'>Fail,<span style='color:green'>Lift,<span style='color:green'>Lift","0,0,1,1,0,0,0,0,1,0,0,1","0,0,1,1,1,1,0,1,1,1,0,1","0,1,1,0,1,1",10,20,20,"","","","","{""box1"":""1"",""box2"":""10"",""box4"":""50""}","",1,"round2_outcome",3,1,2,1,10,NA,50,0,1,20,NA,NA,NA,NA,NA,NA,NA,NA,NA,NA,NA,1,10,NA,50,0,1,20,NA,NA,NA,NA,NA,NA,NA,NA,NA,NA,NA,"",NA,NA,NA,NA,NA,NA,NA,NA,NA,2025-11-21 02:17:36
"9249.800000011921","https://psyc-201.github.io/xiang2023/exp/index1.html?PROLIFIC_PID=REDACTED&STUDY_ID=691f8ca61c6b4dcbb0aeb5f4&SESSION_ID=691fc926161344da0ad02c01","survey-html-form",11,310540,"0.0-311.0","DMI9I2sFf/b/yuMM+aYlikNRBaGSBcvhNVsgdbQLNGyYqDuiL0wMRiwlOj9VKnSCFoR3IOcW2h8RyjR7i2CryXYHMCeg0oVcwQ7Jz4hKr3b8+Z5VDh1zcWMkn9BFLrQ2RAI30/VLu2aZ6BXcM7SmGyVzV9lnmy58X36Yz2XmHeuQiO4q9bOM1Il+9pQIt52K0DTGEj4bnmVUaPHC8CLRmSRwhdDxujT6S/jFGk1xKsbOs+sBVw8viWrZ3yIvUUyf1a0MGD9ZzaeYt3ZCo2b/jMN0lQFQszCCR0x5yvDvHYceE2hSZTA0dPBmsp2SEG8vunFeEHmu4ANAHcz6tIMBOg==","691f8ca61c6b4dcbb0aeb5f4","691fc926161344da0ad02c01","index1","<span style='color:red'>Fail,<span style='color:red'>Fail,<span style='color:green'>Lift,<span style='color:green'>Lift,<span style='color:red'>Fail,<span style='color:red'>Fail,<span style='color:red'>Fail,<span style='color:red'>Fail,<span style='color:green'>Lift,<span style='color:red'>Fail,<span style='color:red'>Fail,<span style='color:green'>Lift","<span style='color:red'>Fail,<span style='color:red'>Fail,<span style='color:green'>Lift,<span style='color:green'>Lift,<span style='color:green'>Lift,<span style='color:green'>Lift,<span style='color:red'>Fail,<span style='color:green'>Lift,<span style='color:green'>Lift,<span style='color:green'>Lift,<span style='color:red'>Fail,<span style='color:green'>Lift","<span style='color:red'>Fail,<span style='color:green'>Lift,<span style='color:green'>Lift,<span style='color:red'>Fail,<span style='color:green'>Lift,<span style='color:green'>Lift","0,0,1,1,0,0,0,0,1,0,0,1","0,0,1,1,1,1,0,1,1,1,0,1","0,1,1,0,1,1",10,20,20,"","","","","{""box1"":""100""}","",1,"round3_ready",4,1,3,NA,NA,NA,NA,NA,NA,NA,NA,NA,NA,NA,NA,NA,NA,100,100,NA,NA,NA,NA,NA,NA,NA,NA,NA,100,100,NA,NA,NA,NA,NA,NA,NA,NA,NA,"",NA,NA,NA,NA,NA,NA,NA,NA,NA,2025-11-21 02:17:36
"19593.19999998808","https://psyc-201.github.io/xiang2023/exp/index1.html?PROLIFIC_PID=REDACTED&STUDY_ID=691f8ca61c6b4dcbb0aeb5f4&SESSION_ID=691fc926161344da0ad02c01","survey-html-form",12,330135,"0.0-312.0-0.0","DMI9I2sFf/b/yuMM+aYlikNRBaGSBcvhNVsgdbQLNGyYqDuiL0wMRiwlOj9VKnSCFoR3IOcW2h8RyjR7i2CryXYHMCeg0oVcwQ7Jz4hKr3b8+Z5VDh1zcWMkn9BFLrQ2RAI30/VLu2aZ6BXcM7SmGyVzV9lnmy58X36Yz2XmHeuQiO4q9bOM1Il+9pQIt52K0DTGEj4bnmVUaPHC8CLRmSRwhdDxujT6S/jFGk1xKsbOs+sBVw8viWrZ3yIvUUyf1a0MGD9ZzaeYt3ZCo2b/jMN0lQFQszCCR0x5yvDvHYceE2hSZTA0dPBmsp2SEG8vunFeEHmu4ANAHcz6tIMBOg==","691f8ca61c6b4dcbb0aeb5f4","691fc926161344da0ad02c01","index1","<span style='color:red'>Fail,<span style='color:red'>Fail,<span style='color:green'>Lift,<span style='color:green'>Lift,<span style='color:red'>Fail,<span style='color:red'>Fail,<span style='color:red'>Fail,<span style='color:red'>Fail,<span style='color:green'>Lift,<span style='color:red'>Fail,<span style='color:red'>Fail,<span style='color:green'>Lift","<span style='color:red'>Fail,<span style='color:red'>Fail,<span style='color:green'>Lift,<span style='color:green'>Lift,<span style='color:green'>Lift,<span style='color:green'>Lift,<span style='color:red'>Fail,<span style='color:green'>Lift,<span style='color:green'>Lift,<span style='color:green'>Lift,<span style='color:red'>Fail,<span style='color:green'>Lift","<span style='color:red'>Fail,<span style='color:green'>Lift,<span style='color:green'>Lift,<span style='color:red'>Fail,<span style='color:green'>Lift,<span style='color:green'>Lift","0,0,1,1,0,0,0,0,1,0,0,1","0,0,1,1,1,1,0,1,1,1,0,1","0,1,1,0,1,1",10,20,20,"","","","","{""box1"":""1"",""box2"":""10"",""box3"":""100"",""box4"":""50""}","",2,"round3_lift",5,1,3,1,10,100,50,1,1,20,NA,NA,NA,NA,NA,NA,NA,NA,NA,NA,NA,NA,NA,NA,NA,NA,NA,NA,NA,NA,1,10,100,50,1,1,20,NA,NA,"",NA,NA,NA,NA,NA,NA,NA,NA,NA,2025-11-21 02:17:36
"null","https://psyc-201.github.io/xiang2023/exp/index1.html?PROLIFIC_PID=REDACTED&STUDY_ID=691f8ca61c6b4dcbb0aeb5f4&SESSION_ID=691fc926161344da0ad02c01","html-keyboard-response",13,333138,"0.0-316.0","DMI9I2sFf/b/yuMM+aYlikNRBaGSBcvhNVsgdbQLNGyYqDuiL0wMRiwlOj9VKnSCFoR3IOcW2h8RyjR7i2CryXYHMCeg0oVcwQ7Jz4hKr3b8+Z5VDh1zcWMkn9BFLrQ2RAI30/VLu2aZ6BXcM7SmGyVzV9lnmy58X36Yz2XmHeuQiO4q9bOM1Il+9pQIt52K0DTGEj4bnmVUaPHC8CLRmSRwhdDxujT6S/jFGk1xKsbOs+sBVw8viWrZ3yIvUUyf1a0MGD9ZzaeYt3ZCo2b/jMN0lQFQszCCR0x5yvDvHYceE2hSZTA0dPBmsp2SEG8vunFeEHmu4ANAHcz6tIMBOg==","691f8ca61c6b4dcbb0aeb5f4","691fc926161344da0ad02c01","index1","<span style='color:red'>Fail,<span style='color:red'>Fail,<span style='color:green'>Lift,<span style='color:green'>Lift,<span style='color:red'>Fail,<span style='color:red'>Fail,<span style='color:red'>Fail,<span style='color:red'>Fail,<span style='color:green'>Lift,<span style='color:red'>Fail,<span style='color:red'>Fail,<span style='color:green'>Lift","<span style='color:red'>Fail,<span style='color:red'>Fail,<span style='color:green'>Lift,<span style='color:green'>Lift,<span style='color:green'>Lift,<span style='color:green'>Lift,<span style='color:red'>Fail,<span style='color:green'>Lift,<span style='color:green'>Lift,<span style='color:green'>Lift,<span style='color:red'>Fail,<span style='color:green'>Lift","<span style='color:red'>Fail,<span style='color:green'>Lift,<span style='color:green'>Lift,<span style='color:red'>Fail,<span style='color:green'>Lift,<span style='color:green'>Lift","0,0,1,1,0,0,0,0,1,0,0,1","0,0,1,1,1,1,0,1,1,1,0,1","0,1,1,0,1,1",10,20,20,"","","<p style='font-size:30px'><b> New Contest! </b></p>","null","","",2,"",NA,NA,NA,NA,NA,NA,NA,NA,NA,NA,NA,NA,NA,NA,NA,NA,NA,NA,NA,NA,NA,NA,NA,NA,NA,NA,NA,NA,NA,NA,NA,NA,NA,NA,NA,NA,NA,NA,NA,"",NA,NA,NA,NA,NA,NA,NA,NA,NA,2025-11-21 02:17:36
"13966.90000000596","https://psyc-201.github.io/xiang2023/exp/index1.html?PROLIFIC_PID=REDACTED&STUDY_ID=691f8ca61c6b4dcbb0aeb5f4&SESSION_ID=691fc926161344da0ad02c01","survey-html-form",14,347106,"0.0-317.0","DMI9I2sFf/b/yuMM+aYlikNRBaGSBcvhNVsgdbQLNGyYqDuiL0wMRiwlOj9VKnSCFoR3IOcW2h8RyjR7i2CryXYHMCeg0oVcwQ7Jz4hKr3b8+Z5VDh1zcWMkn9BFLrQ2RAI30/VLu2aZ6BXcM7SmGyVzV9lnmy58X36Yz2XmHeuQiO4q9bOM1Il+9pQIt52K0DTGEj4bnmVUaPHC8CLRmSRwhdDxujT6S/jFGk1xKsbOs+sBVw8viWrZ3yIvUUyf1a0MGD9ZzaeYt3ZCo2b/jMN0lQFQszCCR0x5yvDvHYceE2hSZTA0dPBmsp2SEG8vunFeEHmu4ANAHcz6tIMBOg==","691f8ca61c6b4dcbb0aeb5f4","691fc926161344da0ad02c01","index1","<span style='color:red'>Fail,<span style='color:red'>Fail,<span style='color:green'>Lift,<span style='color:green'>Lift,<span style='color:red'>Fail,<span style='color:red'>Fail,<span style='color:red'>Fail,<span style='color:red'>Fail,<span style='color:green'>Lift,<span style='color:red'>Fail,<span style='color:red'>Fail,<span style='color:green'>Lift","<span style='color:red'>Fail,<span style='color:red'>Fail,<span style='color:green'>Lift,<span style='color:green'>Lift,<span style='color:green'>Lift,<span style='color:green'>Lift,<span style='color:red'>Fail,<span style='color:green'>Lift,<span style='color:green'>Lift,<span style='color:green'>Lift,<span style='color:red'>Fail,<span style='color:green'>Lift","<span style='color:red'>Fail,<span style='color:green'>Lift,<span style='color:green'>Lift,<span style='color:red'>Fail,<span style='color:green'>Lift,<span style='color:green'>Lift","0,0,1,1,0,0,0,0,1,0,0,1","0,0,1,1,1,1,0,1,1,1,0,1","0,1,1,0,1,1",10,20,20,"","","","","{""box1"":""10"",""box2"":""1"",""box3"":""50""}","",2,"round1_outcome",1,2,1,10,1,50,NA,1,0,10,10,1,50,NA,1,0,10,NA,NA,NA,NA,NA,NA,NA,NA,NA,NA,NA,NA,NA,NA,NA,NA,NA,NA,NA,NA,NA,NA,"",NA,NA,NA,NA,NA,NA,NA,NA,NA,2025-11-21 02:17:36
"7122.199999988079","https://psyc-201.github.io/xiang2023/exp/index1.html?PROLIFIC_PID=REDACTED&STUDY_ID=691f8ca61c6b4dcbb0aeb5f4&SESSION_ID=691fc926161344da0ad02c01","survey-html-form",15,354230,"0.0-318.0","DMI9I2sFf/b/yuMM+aYlikNRBaGSBcvhNVsgdbQLNGyYqDuiL0wMRiwlOj9VKnSCFoR3IOcW2h8RyjR7i2CryXYHMCeg0oVcwQ7Jz4hKr3b8+Z5VDh1zcWMkn9BFLrQ2RAI30/VLu2aZ6BXcM7SmGyVzV9lnmy58X36Yz2XmHeuQiO4q9bOM1Il+9pQIt52K0DTGEj4bnmVUaPHC8CLRmSRwhdDxujT6S/jFGk1xKsbOs+sBVw8viWrZ3yIvUUyf1a0MGD9ZzaeYt3ZCo2b/jMN0lQFQszCCR0x5yvDvHYceE2hSZTA0dPBmsp2SEG8vunFeEHmu4ANAHcz6tIMBOg==","691f8ca61c6b4dcbb0aeb5f4","691fc926161344da0ad02c01","index1","<span style='color:red'>Fail,<span style='color:red'>Fail,<span style='color:green'>Lift,<span style='color:green'>Lift,<span style='color:red'>Fail,<span style='color:red'>Fail,<span style='color:red'>Fail,<span style='color:red'>Fail,<span style='color:green'>Lift,<span style='color:red'>Fail,<span style='color:red'>Fail,<span style='color:green'>Lift","<span style='color:red'>Fail,<span style='color:red'>Fail,<span style='color:green'>Lift,<span style='color:green'>Lift,<span style='color:green'>Lift,<span style='color:green'>Lift,<span style='color:red'>Fail,<span style='color:green'>Lift,<span style='color:green'>Lift,<span style='color:green'>Lift,<span style='color:red'>Fail,<span style='color:green'>Lift","<span style='color:red'>Fail,<span style='color:green'>Lift,<span style='color:green'>Lift,<span style='color:red'>Fail,<span style='color:green'>Lift,<span style='color:green'>Lift","0,0,1,1,0,0,0,0,1,0,0,1","0,0,1,1,1,1,0,1,1,1,0,1","0,1,1,0,1,1",10,20,20,"","","","","{""box1"":""100"",""box2"":""50""}","",2,"round2_ready",2,2,2,NA,NA,NA,NA,NA,NA,NA,NA,NA,NA,NA,NA,NA,NA,100,50,100,50,NA,NA,NA,NA,NA,NA,NA,NA,NA,NA,NA,NA,NA,NA,NA,NA,NA,NA,"",NA,NA,NA,NA,NA,NA,NA,NA,NA,2025-11-21 02:17:36
"25405.5","https://psyc-201.github.io/xiang2023/exp/index1.html?PROLIFIC_PID=REDACTED&STUDY_ID=691f8ca61c6b4dcbb0aeb5f4&SESSION_ID=691fc926161344da0ad02c01","survey-html-form",16,379638,"0.0-319.0","DMI9I2sFf/b/yuMM+aYlikNRBaGSBcvhNVsgdbQLNGyYqDuiL0wMRiwlOj9VKnSCFoR3IOcW2h8RyjR7i2CryXYHMCeg0oVcwQ7Jz4hKr3b8+Z5VDh1zcWMkn9BFLrQ2RAI30/VLu2aZ6BXcM7SmGyVzV9lnmy58X36Yz2XmHeuQiO4q9bOM1Il+9pQIt52K0DTGEj4bnmVUaPHC8CLRmSRwhdDxujT6S/jFGk1xKsbOs+sBVw8viWrZ3yIvUUyf1a0MGD9ZzaeYt3ZCo2b/jMN0lQFQszCCR0x5yvDvHYceE2hSZTA0dPBmsp2SEG8vunFeEHmu4ANAHcz6tIMBOg==","691f8ca61c6b4dcbb0aeb5f4","691fc926161344da0ad02c01","index1","<span style='color:red'>Fail,<span style='color:red'>Fail,<span style='color:green'>Lift,<span style='color:green'>Lift,<span style='color:red'>Fail,<span style='color:red'>Fail,<span style='color:red'>Fail,<span style='color:red'>Fail,<span style='color:green'>Lift,<span style='color:red'>Fail,<span style='color:red'>Fail,<span style='color:green'>Lift","<span style='color:red'>Fail,<span style='color:red'>Fail,<span style='color:green'>Lift,<span style='color:green'>Lift,<span style='color:green'>Lift,<span style='color:green'>Lift,<span style='color:red'>Fail,<span style='color:green'>Lift,<span style='color:green'>Lift,<span style='color:green'>Lift,<span style='color:red'>Fail,<span style='color:green'>Lift","<span style='color:red'>Fail,<span style='color:green'>Lift,<span style='color:green'>Lift,<span style='color:red'>Fail,<span style='color:green'>Lift,<span style='color:green'>Lift","0,0,1,1,0,0,0,0,1,0,0,1","0,0,1,1,1,1,0,1,1,1,0,1","0,1,1,0,1,1",10,20,20,"","","","","{""box1"":""10"",""box2"":""7"",""box3"":""50"",""box4"":""100""}","",2,"round2_outcome",3,2,2,10,7,50,100,1,1,20,NA,NA,NA,NA,NA,NA,NA,NA,NA,NA,NA,10,7,50,100,1,1,20,NA,NA,NA,NA,NA,NA,NA,NA,NA,NA,NA,"",NA,NA,NA,NA,NA,NA,NA,NA,NA,2025-11-21 02:17:36
"4472","https://psyc-201.github.io/xiang2023/exp/index1.html?PROLIFIC_PID=REDACTED&STUDY_ID=691f8ca61c6b4dcbb0aeb5f4&SESSION_ID=691fc926161344da0ad02c01","survey-html-form",17,384112,"0.0-320.0","DMI9I2sFf/b/yuMM+aYlikNRBaGSBcvhNVsgdbQLNGyYqDuiL0wMRiwlOj9VKnSCFoR3IOcW2h8RyjR7i2CryXYHMCeg0oVcwQ7Jz4hKr3b8+Z5VDh1zcWMkn9BFLrQ2RAI30/VLu2aZ6BXcM7SmGyVzV9lnmy58X36Yz2XmHeuQiO4q9bOM1Il+9pQIt52K0DTGEj4bnmVUaPHC8CLRmSRwhdDxujT6S/jFGk1xKsbOs+sBVw8viWrZ3yIvUUyf1a0MGD9ZzaeYt3ZCo2b/jMN0lQFQszCCR0x5yvDvHYceE2hSZTA0dPBmsp2SEG8vunFeEHmu4ANAHcz6tIMBOg==","691f8ca61c6b4dcbb0aeb5f4","691fc926161344da0ad02c01","index1","<span style='color:red'>Fail,<span style='color:red'>Fail,<span style='color:green'>Lift,<span style='color:green'>Lift,<span style='color:red'>Fail,<span style='color:red'>Fail,<span style='color:red'>Fail,<span style='color:red'>Fail,<span style='color:green'>Lift,<span style='color:red'>Fail,<span style='color:red'>Fail,<span style='color:green'>Lift","<span style='color:red'>Fail,<span style='color:red'>Fail,<span style='color:green'>Lift,<span style='color:green'>Lift,<span style='color:green'>Lift,<span style='color:green'>Lift,<span style='color:red'>Fail,<span style='color:green'>Lift,<span style='color:green'>Lift,<span style='color:green'>Lift,<span style='color:red'>Fail,<span style='color:green'>Lift","<span style='color:red'>Fail,<span style='color:green'>Lift,<span style='color:green'>Lift,<span style='color:red'>Fail,<span style='color:green'>Lift,<span style='color:green'>Lift","0,0,1,1,0,0,0,0,1,0,0,1","0,0,1,1,1,1,0,1,1,1,0,1","0,1,1,0,1,1",10,20,20,"","","","","{""box1"":""100""}","",2,"round3_ready",4,2,3,NA,NA,NA,NA,NA,NA,NA,NA,NA,NA,NA,NA,NA,NA,100,100,NA,NA,NA,NA,NA,NA,NA,NA,NA,100,100,NA,NA,NA,NA,NA,NA,NA,NA,NA,"",NA,NA,NA,NA,NA,NA,NA,NA,NA,2025-11-21 02:17:36
"22413.80000001192","https://psyc-201.github.io/xiang2023/exp/index1.html?PROLIFIC_PID=REDACTED&STUDY_ID=691f8ca61c6b4dcbb0aeb5f4&SESSION_ID=691fc926161344da0ad02c01","survey-html-form",18,406527,"0.0-321.0-0.0","DMI9I2sFf/b/yuMM+aYlikNRBaGSBcvhNVsgdbQLNGyYqDuiL0wMRiwlOj9VKnSCFoR3IOcW2h8RyjR7i2CryXYHMCeg0oVcwQ7Jz4hKr3b8+Z5VDh1zcWMkn9BFLrQ2RAI30/VLu2aZ6BXcM7SmGyVzV9lnmy58X36Yz2XmHeuQiO4q9bOM1Il+9pQIt52K0DTGEj4bnmVUaPHC8CLRmSRwhdDxujT6S/jFGk1xKsbOs+sBVw8viWrZ3yIvUUyf1a0MGD9ZzaeYt3ZCo2b/jMN0lQFQszCCR0x5yvDvHYceE2hSZTA0dPBmsp2SEG8vunFeEHmu4ANAHcz6tIMBOg==","691f8ca61c6b4dcbb0aeb5f4","691fc926161344da0ad02c01","index1","<span style='color:red'>Fail,<span style='color:red'>Fail,<span style='color:green'>Lift,<span style='color:green'>Lift,<span style='color:red'>Fail,<span style='color:red'>Fail,<span style='color:red'>Fail,<span style='color:red'>Fail,<span style='color:green'>Lift,<span style='color:red'>Fail,<span style='color:red'>Fail,<span style='color:green'>Lift","<span style='color:red'>Fail,<span style='color:red'>Fail,<span style='color:green'>Lift,<span style='color:green'>Lift,<span style='color:green'>Lift,<span style='color:green'>Lift,<span style='color:red'>Fail,<span style='color:green'>Lift,<span style='color:green'>Lift,<span style='color:green'>Lift,<span style='color:red'>Fail,<span style='color:green'>Lift","<span style='color:red'>Fail,<span style='color:green'>Lift,<span style='color:green'>Lift,<span style='color:red'>Fail,<span style='color:green'>Lift,<span style='color:green'>Lift","0,0,1,1,0,0,0,0,1,0,0,1","0,0,1,1,1,1,0,1,1,1,0,1","0,1,1,0,1,1",10,20,20,"","","","","{""box1"":""10"",""box2"":""7"",""box3"":""30"",""box4"":""50""}","",3,"round3_lift",5,2,3,10,7,30,50,1,1,20,NA,NA,NA,NA,NA,NA,NA,NA,NA,NA,NA,NA,NA,NA,NA,NA,NA,NA,NA,NA,10,7,30,50,1,1,20,NA,NA,"",NA,NA,NA,NA,NA,NA,NA,NA,NA,2025-11-21 02:17:36
"null","https://psyc-201.github.io/xiang2023/exp/index1.html?PROLIFIC_PID=REDACTED&STUDY_ID=691f8ca61c6b4dcbb0aeb5f4&SESSION_ID=691fc926161344da0ad02c01","html-keyboard-response",19,409531,"0.0-325.0","DMI9I2sFf/b/yuMM+aYlikNRBaGSBcvhNVsgdbQLNGyYqDuiL0wMRiwlOj9VKnSCFoR3IOcW2h8RyjR7i2CryXYHMCeg0oVcwQ7Jz4hKr3b8+Z5VDh1zcWMkn9BFLrQ2RAI30/VLu2aZ6BXcM7SmGyVzV9lnmy58X36Yz2XmHeuQiO4q9bOM1Il+9pQIt52K0DTGEj4bnmVUaPHC8CLRmSRwhdDxujT6S/jFGk1xKsbOs+sBVw8viWrZ3yIvUUyf1a0MGD9ZzaeYt3ZCo2b/jMN0lQFQszCCR0x5yvDvHYceE2hSZTA0dPBmsp2SEG8vunFeEHmu4ANAHcz6tIMBOg==","691f8ca61c6b4dcbb0aeb5f4","691fc926161344da0ad02c01","index1","<span style='color:red'>Fail,<span style='color:red'>Fail,<span style='color:green'>Lift,<span style='color:green'>Lift,<span style='color:red'>Fail,<span style='color:red'>Fail,<span style='color:red'>Fail,<span style='color:red'>Fail,<span style='color:green'>Lift,<span style='color:red'>Fail,<span style='color:red'>Fail,<span style='color:green'>Lift","<span style='color:red'>Fail,<span style='color:red'>Fail,<span style='color:green'>Lift,<span style='color:green'>Lift,<span style='color:green'>Lift,<span style='color:green'>Lift,<span style='color:red'>Fail,<span style='color:green'>Lift,<span style='color:green'>Lift,<span style='color:green'>Lift,<span style='color:red'>Fail,<span style='color:green'>Lift","<span style='color:red'>Fail,<span style='color:green'>Lift,<span style='color:green'>Lift,<span style='color:red'>Fail,<span style='color:green'>Lift,<span style='color:green'>Lift","0,0,1,1,0,0,0,0,1,0,0,1","0,0,1,1,1,1,0,1,1,1,0,1","0,1,1,0,1,1",10,20,20,"","","<p style='font-size:30px'><b> New Contest! </b></p>","null","","",3,"",NA,NA,NA,NA,NA,NA,NA,NA,NA,NA,NA,NA,NA,NA,NA,NA,NA,NA,NA,NA,NA,NA,NA,NA,NA,NA,NA,NA,NA,NA,NA,NA,NA,NA,NA,NA,NA,NA,NA,"",NA,NA,NA,NA,NA,NA,NA,NA,NA,2025-11-21 02:17:36
"14500.90000000596","https://psyc-201.github.io/xiang2023/exp/index1.html?PROLIFIC_PID=REDACTED&STUDY_ID=691f8ca61c6b4dcbb0aeb5f4&SESSION_ID=691fc926161344da0ad02c01","survey-html-form",20,424033,"0.0-326.0","DMI9I2sFf/b/yuMM+aYlikNRBaGSBcvhNVsgdbQLNGyYqDuiL0wMRiwlOj9VKnSCFoR3IOcW2h8RyjR7i2CryXYHMCeg0oVcwQ7Jz4hKr3b8+Z5VDh1zcWMkn9BFLrQ2RAI30/VLu2aZ6BXcM7SmGyVzV9lnmy58X36Yz2XmHeuQiO4q9bOM1Il+9pQIt52K0DTGEj4bnmVUaPHC8CLRmSRwhdDxujT6S/jFGk1xKsbOs+sBVw8viWrZ3yIvUUyf1a0MGD9ZzaeYt3ZCo2b/jMN0lQFQszCCR0x5yvDvHYceE2hSZTA0dPBmsp2SEG8vunFeEHmu4ANAHcz6tIMBOg==","691f8ca61c6b4dcbb0aeb5f4","691fc926161344da0ad02c01","index1","<span style='color:red'>Fail,<span style='color:red'>Fail,<span style='color:green'>Lift,<span style='color:green'>Lift,<span style='color:red'>Fail,<span style='color:red'>Fail,<span style='color:red'>Fail,<span style='color:red'>Fail,<span style='color:green'>Lift,<span style='color:red'>Fail,<span style='color:red'>Fail,<span style='color:green'>Lift","<span style='color:red'>Fail,<span style='color:red'>Fail,<span style='color:green'>Lift,<span style='color:green'>Lift,<span style='color:green'>Lift,<span style='color:green'>Lift,<span style='color:red'>Fail,<span style='color:green'>Lift,<span style='color:green'>Lift,<span style='color:green'>Lift,<span style='color:red'>Fail,<span style='color:green'>Lift","<span style='color:red'>Fail,<span style='color:green'>Lift,<span style='color:green'>Lift,<span style='color:red'>Fail,<span style='color:green'>Lift,<span style='color:green'>Lift","0,0,1,1,0,0,0,0,1,0,0,1","0,0,1,1,1,1,0,1,1,1,0,1","0,1,1,0,1,1",10,20,20,"","","","","{""box1"":""3"",""box2"":""3""}","",3,"round1_outcome",1,3,1,3,3,NA,NA,0,0,10,3,3,NA,NA,0,0,10,NA,NA,NA,NA,NA,NA,NA,NA,NA,NA,NA,NA,NA,NA,NA,NA,NA,NA,NA,NA,NA,NA,"",NA,NA,NA,NA,NA,NA,NA,NA,NA,2025-11-21 02:17:36
"8276.40000000596","https://psyc-201.github.io/xiang2023/exp/index1.html?PROLIFIC_PID=REDACTED&STUDY_ID=691f8ca61c6b4dcbb0aeb5f4&SESSION_ID=691fc926161344da0ad02c01","survey-html-form",21,432312,"0.0-327.0","DMI9I2sFf/b/yuMM+aYlikNRBaGSBcvhNVsgdbQLNGyYqDuiL0wMRiwlOj9VKnSCFoR3IOcW2h8RyjR7i2CryXYHMCeg0oVcwQ7Jz4hKr3b8+Z5VDh1zcWMkn9BFLrQ2RAI30/VLu2aZ6BXcM7SmGyVzV9lnmy58X36Yz2XmHeuQiO4q9bOM1Il+9pQIt52K0DTGEj4bnmVUaPHC8CLRmSRwhdDxujT6S/jFGk1xKsbOs+sBVw8viWrZ3yIvUUyf1a0MGD9ZzaeYt3ZCo2b/jMN0lQFQszCCR0x5yvDvHYceE2hSZTA0dPBmsp2SEG8vunFeEHmu4ANAHcz6tIMBOg==","691f8ca61c6b4dcbb0aeb5f4","691fc926161344da0ad02c01","index1","<span style='color:red'>Fail,<span style='color:red'>Fail,<span style='color:green'>Lift,<span style='color:green'>Lift,<span style='color:red'>Fail,<span style='color:red'>Fail,<span style='color:red'>Fail,<span style='color:red'>Fail,<span style='color:green'>Lift,<span style='color:red'>Fail,<span style='color:red'>Fail,<span style='color:green'>Lift","<span style='color:red'>Fail,<span style='color:red'>Fail,<span style='color:green'>Lift,<span style='color:green'>Lift,<span style='color:green'>Lift,<span style='color:green'>Lift,<span style='color:red'>Fail,<span style='color:green'>Lift,<span style='color:green'>Lift,<span style='color:green'>Lift,<span style='color:red'>Fail,<span style='color:green'>Lift","<span style='color:red'>Fail,<span style='color:green'>Lift,<span style='color:green'>Lift,<span style='color:red'>Fail,<span style='color:green'>Lift,<span style='color:green'>Lift","0,0,1,1,0,0,0,0,1,0,0,1","0,0,1,1,1,1,0,1,1,1,0,1","0,1,1,0,1,1",10,20,20,"","","","","{""box1"":""50"",""box2"":""50""}","",3,"round2_ready",2,3,2,NA,NA,NA,NA,NA,NA,NA,NA,NA,NA,NA,NA,NA,NA,50,50,50,50,NA,NA,NA,NA,NA,NA,NA,NA,NA,NA,NA,NA,NA,NA,NA,NA,NA,NA,"",NA,NA,NA,NA,NA,NA,NA,NA,NA,2025-11-21 02:17:36
"8798.200000017881","https://psyc-201.github.io/xiang2023/exp/index1.html?PROLIFIC_PID=REDACTED&STUDY_ID=691f8ca61c6b4dcbb0aeb5f4&SESSION_ID=691fc926161344da0ad02c01","survey-html-form",22,441112,"0.0-328.0","DMI9I2sFf/b/yuMM+aYlikNRBaGSBcvhNVsgdbQLNGyYqDuiL0wMRiwlOj9VKnSCFoR3IOcW2h8RyjR7i2CryXYHMCeg0oVcwQ7Jz4hKr3b8+Z5VDh1zcWMkn9BFLrQ2RAI30/VLu2aZ6BXcM7SmGyVzV9lnmy58X36Yz2XmHeuQiO4q9bOM1Il+9pQIt52K0DTGEj4bnmVUaPHC8CLRmSRwhdDxujT6S/jFGk1xKsbOs+sBVw8viWrZ3yIvUUyf1a0MGD9ZzaeYt3ZCo2b/jMN0lQFQszCCR0x5yvDvHYceE2hSZTA0dPBmsp2SEG8vunFeEHmu4ANAHcz6tIMBOg==","691f8ca61c6b4dcbb0aeb5f4","691fc926161344da0ad02c01","index1","<span style='color:red'>Fail,<span style='color:red'>Fail,<span style='color:green'>Lift,<span style='color:green'>Lift,<span style='color:red'>Fail,<span style='color:red'>Fail,<span style='color:red'>Fail,<span style='color:red'>Fail,<span style='color:green'>Lift,<span style='color:red'>Fail,<span style='color:red'>Fail,<span style='color:green'>Lift","<span style='color:red'>Fail,<span style='color:red'>Fail,<span style='color:green'>Lift,<span style='color:green'>Lift,<span style='color:green'>Lift,<span style='color:green'>Lift,<span style='color:red'>Fail,<span style='color:green'>Lift,<span style='color:green'>Lift,<span style='color:green'>Lift,<span style='color:red'>Fail,<span style='color:green'>Lift","<span style='color:red'>Fail,<span style='color:green'>Lift,<span style='color:green'>Lift,<span style='color:red'>Fail,<span style='color:green'>Lift,<span style='color:green'>Lift","0,0,1,1,0,0,0,0,1,0,0,1","0,0,1,1,1,1,0,1,1,1,0,1","0,1,1,0,1,1",10,20,20,"","","","","{""box1"":""6"",""box2"":""6"",""box3"":""100"",""box4"":""100""}","",3,"round2_outcome",3,3,2,6,6,100,100,1,1,20,NA,NA,NA,NA,NA,NA,NA,NA,NA,NA,NA,6,6,100,100,1,1,20,NA,NA,NA,NA,NA,NA,NA,NA,NA,NA,NA,"",NA,NA,NA,NA,NA,NA,NA,NA,NA,2025-11-21 02:17:36
"4579.5","https://psyc-201.github.io/xiang2023/exp/index1.html?PROLIFIC_PID=REDACTED&STUDY_ID=691f8ca61c6b4dcbb0aeb5f4&SESSION_ID=691fc926161344da0ad02c01","survey-html-form",23,445693,"0.0-329.0","DMI9I2sFf/b/yuMM+aYlikNRBaGSBcvhNVsgdbQLNGyYqDuiL0wMRiwlOj9VKnSCFoR3IOcW2h8RyjR7i2CryXYHMCeg0oVcwQ7Jz4hKr3b8+Z5VDh1zcWMkn9BFLrQ2RAI30/VLu2aZ6BXcM7SmGyVzV9lnmy58X36Yz2XmHeuQiO4q9bOM1Il+9pQIt52K0DTGEj4bnmVUaPHC8CLRmSRwhdDxujT6S/jFGk1xKsbOs+sBVw8viWrZ3yIvUUyf1a0MGD9ZzaeYt3ZCo2b/jMN0lQFQszCCR0x5yvDvHYceE2hSZTA0dPBmsp2SEG8vunFeEHmu4ANAHcz6tIMBOg==","691f8ca61c6b4dcbb0aeb5f4","691fc926161344da0ad02c01","index1","<span style='color:red'>Fail,<span style='color:red'>Fail,<span style='color:green'>Lift,<span style='color:green'>Lift,<span style='color:red'>Fail,<span style='color:red'>Fail,<span style='color:red'>Fail,<span style='color:red'>Fail,<span style='color:green'>Lift,<span style='color:red'>Fail,<span style='color:red'>Fail,<span style='color:green'>Lift","<span style='color:red'>Fail,<span style='color:red'>Fail,<span style='color:green'>Lift,<span style='color:green'>Lift,<span style='color:green'>Lift,<span style='color:green'>Lift,<span style='color:red'>Fail,<span style='color:green'>Lift,<span style='color:green'>Lift,<span style='color:green'>Lift,<span style='color:red'>Fail,<span style='color:green'>Lift","<span style='color:red'>Fail,<span style='color:green'>Lift,<span style='color:green'>Lift,<span style='color:red'>Fail,<span style='color:green'>Lift,<span style='color:green'>Lift","0,0,1,1,0,0,0,0,1,0,0,1","0,0,1,1,1,1,0,1,1,1,0,1","0,1,1,0,1,1",10,20,20,"","","","","{""box1"":""100""}","",3,"round3_ready",4,3,3,NA,NA,NA,NA,NA,NA,NA,NA,NA,NA,NA,NA,NA,NA,100,100,NA,NA,NA,NA,NA,NA,NA,NA,NA,100,100,NA,NA,NA,NA,NA,NA,NA,NA,NA,"",NA,NA,NA,NA,NA,NA,NA,NA,NA,2025-11-21 02:17:36
"8673.300000011921","https://psyc-201.github.io/xiang2023/exp/index1.html?PROLIFIC_PID=REDACTED&STUDY_ID=691f8ca61c6b4dcbb0aeb5f4&SESSION_ID=691fc926161344da0ad02c01","survey-html-form",24,454368,"0.0-330.0-0.0","DMI9I2sFf/b/yuMM+aYlikNRBaGSBcvhNVsgdbQLNGyYqDuiL0wMRiwlOj9VKnSCFoR3IOcW2h8RyjR7i2CryXYHMCeg0oVcwQ7Jz4hKr3b8+Z5VDh1zcWMkn9BFLrQ2RAI30/VLu2aZ6BXcM7SmGyVzV9lnmy58X36Yz2XmHeuQiO4q9bOM1Il+9pQIt52K0DTGEj4bnmVUaPHC8CLRmSRwhdDxujT6S/jFGk1xKsbOs+sBVw8viWrZ3yIvUUyf1a0MGD9ZzaeYt3ZCo2b/jMN0lQFQszCCR0x5yvDvHYceE2hSZTA0dPBmsp2SEG8vunFeEHmu4ANAHcz6tIMBOg==","691f8ca61c6b4dcbb0aeb5f4","691fc926161344da0ad02c01","index1","<span style='color:red'>Fail,<span style='color:red'>Fail,<span style='color:green'>Lift,<span style='color:green'>Lift,<span style='color:red'>Fail,<span style='color:red'>Fail,<span style='color:red'>Fail,<span style='color:red'>Fail,<span style='color:green'>Lift,<span style='color:red'>Fail,<span style='color:red'>Fail,<span style='color:green'>Lift","<span style='color:red'>Fail,<span style='color:red'>Fail,<span style='color:green'>Lift,<span style='color:green'>Lift,<span style='color:green'>Lift,<span style='color:green'>Lift,<span style='color:red'>Fail,<span style='color:green'>Lift,<span style='color:green'>Lift,<span style='color:green'>Lift,<span style='color:red'>Fail,<span style='color:green'>Lift","<span style='color:red'>Fail,<span style='color:green'>Lift,<span style='color:green'>Lift,<span style='color:red'>Fail,<span style='color:green'>Lift,<span style='color:green'>Lift","0,0,1,1,0,0,0,0,1,0,0,1","0,0,1,1,1,1,0,1,1,1,0,1","0,1,1,0,1,1",10,20,20,"","","","","{""box1"":""6"",""box2"":""6"",""box3"":""50"",""box4"":""50""}","",4,"round3_lift",5,3,3,6,6,50,50,1,1,20,NA,NA,NA,NA,NA,NA,NA,NA,NA,NA,NA,NA,NA,NA,NA,NA,NA,NA,NA,NA,6,6,50,50,1,1,20,NA,NA,"",NA,NA,NA,NA,NA,NA,NA,NA,NA,2025-11-21 02:17:36
"null","https://psyc-201.github.io/xiang2023/exp/index1.html?PROLIFIC_PID=REDACTED&STUDY_ID=691f8ca61c6b4dcbb0aeb5f4&SESSION_ID=691fc926161344da0ad02c01","html-keyboard-response",25,457370,"0.0-334.0","DMI9I2sFf/b/yuMM+aYlikNRBaGSBcvhNVsgdbQLNGyYqDuiL0wMRiwlOj9VKnSCFoR3IOcW2h8RyjR7i2CryXYHMCeg0oVcwQ7Jz4hKr3b8+Z5VDh1zcWMkn9BFLrQ2RAI30/VLu2aZ6BXcM7SmGyVzV9lnmy58X36Yz2XmHeuQiO4q9bOM1Il+9pQIt52K0DTGEj4bnmVUaPHC8CLRmSRwhdDxujT6S/jFGk1xKsbOs+sBVw8viWrZ3yIvUUyf1a0MGD9ZzaeYt3ZCo2b/jMN0lQFQszCCR0x5yvDvHYceE2hSZTA0dPBmsp2SEG8vunFeEHmu4ANAHcz6tIMBOg==","691f8ca61c6b4dcbb0aeb5f4","691fc926161344da0ad02c01","index1","<span style='color:red'>Fail,<span style='color:red'>Fail,<span style='color:green'>Lift,<span style='color:green'>Lift,<span style='color:red'>Fail,<span style='color:red'>Fail,<span style='color:red'>Fail,<span style='color:red'>Fail,<span style='color:green'>Lift,<span style='color:red'>Fail,<span style='color:red'>Fail,<span style='color:green'>Lift","<span style='color:red'>Fail,<span style='color:red'>Fail,<span style='color:green'>Lift,<span style='color:green'>Lift,<span style='color:green'>Lift,<span style='color:green'>Lift,<span style='color:red'>Fail,<span style='color:green'>Lift,<span style='color:green'>Lift,<span style='color:green'>Lift,<span style='color:red'>Fail,<span style='color:green'>Lift","<span style='color:red'>Fail,<span style='color:green'>Lift,<span style='color:green'>Lift,<span style='color:red'>Fail,<span style='color:green'>Lift,<span style='color:green'>Lift","0,0,1,1,0,0,0,0,1,0,0,1","0,0,1,1,1,1,0,1,1,1,0,1","0,1,1,0,1,1",10,20,20,"","","<p style='font-size:30px'><b> New Contest! </b></p>","null","","",4,"",NA,NA,NA,NA,NA,NA,NA,NA,NA,NA,NA,NA,NA,NA,NA,NA,NA,NA,NA,NA,NA,NA,NA,NA,NA,NA,NA,NA,NA,NA,NA,NA,NA,NA,NA,NA,NA,NA,NA,"",NA,NA,NA,NA,NA,NA,NA,NA,NA,2025-11-21 02:17:36
"10824.300000011921","https://psyc-201.github.io/xiang2023/exp/index1.html?PROLIFIC_PID=REDACTED&STUDY_ID=691f8ca61c6b4dcbb0aeb5f4&SESSION_ID=691fc926161344da0ad02c01","survey-html-form",26,468196,"0.0-335.0","DMI9I2sFf/b/yuMM+aYlikNRBaGSBcvhNVsgdbQLNGyYqDuiL0wMRiwlOj9VKnSCFoR3IOcW2h8RyjR7i2CryXYHMCeg0oVcwQ7Jz4hKr3b8+Z5VDh1zcWMkn9BFLrQ2RAI30/VLu2aZ6BXcM7SmGyVzV9lnmy58X36Yz2XmHeuQiO4q9bOM1Il+9pQIt52K0DTGEj4bnmVUaPHC8CLRmSRwhdDxujT6S/jFGk1xKsbOs+sBVw8viWrZ3yIvUUyf1a0MGD9ZzaeYt3ZCo2b/jMN0lQFQszCCR0x5yvDvHYceE2hSZTA0dPBmsp2SEG8vunFeEHmu4ANAHcz6tIMBOg==","691f8ca61c6b4dcbb0aeb5f4","691fc926161344da0ad02c01","index1","<span style='color:red'>Fail,<span style='color:red'>Fail,<span style='color:green'>Lift,<span style='color:green'>Lift,<span style='color:red'>Fail,<span style='color:red'>Fail,<span style='color:red'>Fail,<span style='color:red'>Fail,<span style='color:green'>Lift,<span style='color:red'>Fail,<span style='color:red'>Fail,<span style='color:green'>Lift","<span style='color:red'>Fail,<span style='color:red'>Fail,<span style='color:green'>Lift,<span style='color:green'>Lift,<span style='color:green'>Lift,<span style='color:green'>Lift,<span style='color:red'>Fail,<span style='color:green'>Lift,<span style='color:green'>Lift,<span style='color:green'>Lift,<span style='color:red'>Fail,<span style='color:green'>Lift","<span style='color:red'>Fail,<span style='color:green'>Lift,<span style='color:green'>Lift,<span style='color:red'>Fail,<span style='color:green'>Lift,<span style='color:green'>Lift","0,0,1,1,0,0,0,0,1,0,0,1","0,0,1,1,1,1,0,1,1,1,0,1","0,1,1,0,1,1",10,20,20,"","","","","{""box1"":""10"",""box2"":""10"",""box3"":""50"",""box4"":""50""}","",4,"round1_outcome",1,4,1,10,10,50,50,1,1,10,10,10,50,50,1,1,10,NA,NA,NA,NA,NA,NA,NA,NA,NA,NA,NA,NA,NA,NA,NA,NA,NA,NA,NA,NA,NA,NA,"",NA,NA,NA,NA,NA,NA,NA,NA,NA,2025-11-21 02:17:36
"4586.0999999940395","https://psyc-201.github.io/xiang2023/exp/index1.html?PROLIFIC_PID=REDACTED&STUDY_ID=691f8ca61c6b4dcbb0aeb5f4&SESSION_ID=691fc926161344da0ad02c01","survey-html-form",27,472784,"0.0-336.0","DMI9I2sFf/b/yuMM+aYlikNRBaGSBcvhNVsgdbQLNGyYqDuiL0wMRiwlOj9VKnSCFoR3IOcW2h8RyjR7i2CryXYHMCeg0oVcwQ7Jz4hKr3b8+Z5VDh1zcWMkn9BFLrQ2RAI30/VLu2aZ6BXcM7SmGyVzV9lnmy58X36Yz2XmHeuQiO4q9bOM1Il+9pQIt52K0DTGEj4bnmVUaPHC8CLRmSRwhdDxujT6S/jFGk1xKsbOs+sBVw8viWrZ3yIvUUyf1a0MGD9ZzaeYt3ZCo2b/jMN0lQFQszCCR0x5yvDvHYceE2hSZTA0dPBmsp2SEG8vunFeEHmu4ANAHcz6tIMBOg==","691f8ca61c6b4dcbb0aeb5f4","691fc926161344da0ad02c01","index1","<span style='color:red'>Fail,<span style='color:red'>Fail,<span style='color:green'>Lift,<span style='color:green'>Lift,<span style='color:red'>Fail,<span style='color:red'>Fail,<span style='color:red'>Fail,<span style='color:red'>Fail,<span style='color:green'>Lift,<span style='color:red'>Fail,<span style='color:red'>Fail,<span style='color:green'>Lift","<span style='color:red'>Fail,<span style='color:red'>Fail,<span style='color:green'>Lift,<span style='color:green'>Lift,<span style='color:green'>Lift,<span style='color:green'>Lift,<span style='color:red'>Fail,<span style='color:green'>Lift,<span style='color:green'>Lift,<span style='color:green'>Lift,<span style='color:red'>Fail,<span style='color:green'>Lift","<span style='color:red'>Fail,<span style='color:green'>Lift,<span style='color:green'>Lift,<span style='color:red'>Fail,<span style='color:green'>Lift,<span style='color:green'>Lift","0,0,1,1,0,0,0,0,1,0,0,1","0,0,1,1,1,1,0,1,1,1,0,1","0,1,1,0,1,1",10,20,20,"","","","","{""box1"":""100"",""box2"":""100""}","",4,"round2_ready",2,4,2,NA,NA,NA,NA,NA,NA,NA,NA,NA,NA,NA,NA,NA,NA,100,100,100,100,NA,NA,NA,NA,NA,NA,NA,NA,NA,NA,NA,NA,NA,NA,NA,NA,NA,NA,"",NA,NA,NA,NA,NA,NA,NA,NA,NA,2025-11-21 02:17:36
"6351","https://psyc-201.github.io/xiang2023/exp/index1.html?PROLIFIC_PID=REDACTED&STUDY_ID=691f8ca61c6b4dcbb0aeb5f4&SESSION_ID=691fc926161344da0ad02c01","survey-html-form",28,479137,"0.0-337.0","DMI9I2sFf/b/yuMM+aYlikNRBaGSBcvhNVsgdbQLNGyYqDuiL0wMRiwlOj9VKnSCFoR3IOcW2h8RyjR7i2CryXYHMCeg0oVcwQ7Jz4hKr3b8+Z5VDh1zcWMkn9BFLrQ2RAI30/VLu2aZ6BXcM7SmGyVzV9lnmy58X36Yz2XmHeuQiO4q9bOM1Il+9pQIt52K0DTGEj4bnmVUaPHC8CLRmSRwhdDxujT6S/jFGk1xKsbOs+sBVw8viWrZ3yIvUUyf1a0MGD9ZzaeYt3ZCo2b/jMN0lQFQszCCR0x5yvDvHYceE2hSZTA0dPBmsp2SEG8vunFeEHmu4ANAHcz6tIMBOg==","691f8ca61c6b4dcbb0aeb5f4","691fc926161344da0ad02c01","index1","<span style='color:red'>Fail,<span style='color:red'>Fail,<span style='color:green'>Lift,<span style='color:green'>Lift,<span style='color:red'>Fail,<span style='color:red'>Fail,<span style='color:red'>Fail,<span style='color:red'>Fail,<span style='color:green'>Lift,<span style='color:red'>Fail,<span style='color:red'>Fail,<span style='color:green'>Lift","<span style='color:red'>Fail,<span style='color:red'>Fail,<span style='color:green'>Lift,<span style='color:green'>Lift,<span style='color:green'>Lift,<span style='color:green'>Lift,<span style='color:red'>Fail,<span style='color:green'>Lift,<span style='color:green'>Lift,<span style='color:green'>Lift,<span style='color:red'>Fail,<span style='color:green'>Lift","<span style='color:red'>Fail,<span style='color:green'>Lift,<span style='color:green'>Lift,<span style='color:red'>Fail,<span style='color:green'>Lift,<span style='color:green'>Lift","0,0,1,1,0,0,0,0,1,0,0,1","0,0,1,1,1,1,0,1,1,1,0,1","0,1,1,0,1,1",10,20,20,"","","","","{""box1"":""10"",""box2"":""10"",""box3"":""50"",""box4"":""50""}","",4,"round2_outcome",3,4,2,10,10,50,50,1,1,20,NA,NA,NA,NA,NA,NA,NA,NA,NA,NA,NA,10,10,50,50,1,1,20,NA,NA,NA,NA,NA,NA,NA,NA,NA,NA,NA,"",NA,NA,NA,NA,NA,NA,NA,NA,NA,2025-11-21 02:17:36
"3982.199999988079","https://psyc-201.github.io/xiang2023/exp/index1.html?PROLIFIC_PID=REDACTED&STUDY_ID=691f8ca61c6b4dcbb0aeb5f4&SESSION_ID=691fc926161344da0ad02c01","survey-html-form",29,483121,"0.0-338.0","DMI9I2sFf/b/yuMM+aYlikNRBaGSBcvhNVsgdbQLNGyYqDuiL0wMRiwlOj9VKnSCFoR3IOcW2h8RyjR7i2CryXYHMCeg0oVcwQ7Jz4hKr3b8+Z5VDh1zcWMkn9BFLrQ2RAI30/VLu2aZ6BXcM7SmGyVzV9lnmy58X36Yz2XmHeuQiO4q9bOM1Il+9pQIt52K0DTGEj4bnmVUaPHC8CLRmSRwhdDxujT6S/jFGk1xKsbOs+sBVw8viWrZ3yIvUUyf1a0MGD9ZzaeYt3ZCo2b/jMN0lQFQszCCR0x5yvDvHYceE2hSZTA0dPBmsp2SEG8vunFeEHmu4ANAHcz6tIMBOg==","691f8ca61c6b4dcbb0aeb5f4","691fc926161344da0ad02c01","index1","<span style='color:red'>Fail,<span style='color:red'>Fail,<span style='color:green'>Lift,<span style='color:green'>Lift,<span style='color:red'>Fail,<span style='color:red'>Fail,<span style='color:red'>Fail,<span style='color:red'>Fail,<span style='color:green'>Lift,<span style='color:red'>Fail,<span style='color:red'>Fail,<span style='color:green'>Lift","<span style='color:red'>Fail,<span style='color:red'>Fail,<span style='color:green'>Lift,<span style='color:green'>Lift,<span style='color:green'>Lift,<span style='color:green'>Lift,<span style='color:red'>Fail,<span style='color:green'>Lift,<span style='color:green'>Lift,<span style='color:green'>Lift,<span style='color:red'>Fail,<span style='color:green'>Lift","<span style='color:red'>Fail,<span style='color:green'>Lift,<span style='color:green'>Lift,<span style='color:red'>Fail,<span style='color:green'>Lift,<span style='color:green'>Lift","0,0,1,1,0,0,0,0,1,0,0,1","0,0,1,1,1,1,0,1,1,1,0,1","0,1,1,0,1,1",10,20,20,"","","","","{""box1"":""100""}","",4,"round3_ready",4,4,3,NA,NA,NA,NA,NA,NA,NA,NA,NA,NA,NA,NA,NA,NA,100,100,NA,NA,NA,NA,NA,NA,NA,NA,NA,100,100,NA,NA,NA,NA,NA,NA,NA,NA,NA,"",NA,NA,NA,NA,NA,NA,NA,NA,NA,2025-11-21 02:17:36
"10108.40000000596","https://psyc-201.github.io/xiang2023/exp/index1.html?PROLIFIC_PID=REDACTED&STUDY_ID=691f8ca61c6b4dcbb0aeb5f4&SESSION_ID=691fc926161344da0ad02c01","survey-html-form",30,493231,"0.0-339.0-0.0","DMI9I2sFf/b/yuMM+aYlikNRBaGSBcvhNVsgdbQLNGyYqDuiL0wMRiwlOj9VKnSCFoR3IOcW2h8RyjR7i2CryXYHMCeg0oVcwQ7Jz4hKr3b8+Z5VDh1zcWMkn9BFLrQ2RAI30/VLu2aZ6BXcM7SmGyVzV9lnmy58X36Yz2XmHeuQiO4q9bOM1Il+9pQIt52K0DTGEj4bnmVUaPHC8CLRmSRwhdDxujT6S/jFGk1xKsbOs+sBVw8viWrZ3yIvUUyf1a0MGD9ZzaeYt3ZCo2b/jMN0lQFQszCCR0x5yvDvHYceE2hSZTA0dPBmsp2SEG8vunFeEHmu4ANAHcz6tIMBOg==","691f8ca61c6b4dcbb0aeb5f4","691fc926161344da0ad02c01","index1","<span style='color:red'>Fail,<span style='color:red'>Fail,<span style='color:green'>Lift,<span style='color:green'>Lift,<span style='color:red'>Fail,<span style='color:red'>Fail,<span style='color:red'>Fail,<span style='color:red'>Fail,<span style='color:green'>Lift,<span style='color:red'>Fail,<span style='color:red'>Fail,<span style='color:green'>Lift","<span style='color:red'>Fail,<span style='color:red'>Fail,<span style='color:green'>Lift,<span style='color:green'>Lift,<span style='color:green'>Lift,<span style='color:green'>Lift,<span style='color:red'>Fail,<span style='color:green'>Lift,<span style='color:green'>Lift,<span style='color:green'>Lift,<span style='color:red'>Fail,<span style='color:green'>Lift","<span style='color:red'>Fail,<span style='color:green'>Lift,<span style='color:green'>Lift,<span style='color:red'>Fail,<span style='color:green'>Lift,<span style='color:green'>Lift","0,0,1,1,0,0,0,0,1,0,0,1","0,0,1,1,1,1,0,1,1,1,0,1","0,1,1,0,1,1",10,20,20,"","","","","{""box1"":""10"",""box2"":""10"",""box3"":""25"",""box4"":""25""}","",5,"round3_lift",5,4,3,10,10,25,25,1,1,20,NA,NA,NA,NA,NA,NA,NA,NA,NA,NA,NA,NA,NA,NA,NA,NA,NA,NA,NA,NA,10,10,25,25,1,1,20,NA,NA,"",NA,NA,NA,NA,NA,NA,NA,NA,NA,2025-11-21 02:17:36
"null","https://psyc-201.github.io/xiang2023/exp/index1.html?PROLIFIC_PID=REDACTED&STUDY_ID=691f8ca61c6b4dcbb0aeb5f4&SESSION_ID=691fc926161344da0ad02c01","html-keyboard-response",31,496235,"0.0-343.0","DMI9I2sFf/b/yuMM+aYlikNRBaGSBcvhNVsgdbQLNGyYqDuiL0wMRiwlOj9VKnSCFoR3IOcW2h8RyjR7i2CryXYHMCeg0oVcwQ7Jz4hKr3b8+Z5VDh1zcWMkn9BFLrQ2RAI30/VLu2aZ6BXcM7SmGyVzV9lnmy58X36Yz2XmHeuQiO4q9bOM1Il+9pQIt52K0DTGEj4bnmVUaPHC8CLRmSRwhdDxujT6S/jFGk1xKsbOs+sBVw8viWrZ3yIvUUyf1a0MGD9ZzaeYt3ZCo2b/jMN0lQFQszCCR0x5yvDvHYceE2hSZTA0dPBmsp2SEG8vunFeEHmu4ANAHcz6tIMBOg==","691f8ca61c6b4dcbb0aeb5f4","691fc926161344da0ad02c01","index1","<span style='color:red'>Fail,<span style='color:red'>Fail,<span style='color:green'>Lift,<span style='color:green'>Lift,<span style='color:red'>Fail,<span style='color:red'>Fail,<span style='color:red'>Fail,<span style='color:red'>Fail,<span style='color:green'>Lift,<span style='color:red'>Fail,<span style='color:red'>Fail,<span style='color:green'>Lift","<span style='color:red'>Fail,<span style='color:red'>Fail,<span style='color:green'>Lift,<span style='color:green'>Lift,<span style='color:green'>Lift,<span style='color:green'>Lift,<span style='color:red'>Fail,<span style='color:green'>Lift,<span style='color:green'>Lift,<span style='color:green'>Lift,<span style='color:red'>Fail,<span style='color:green'>Lift","<span style='color:red'>Fail,<span style='color:green'>Lift,<span style='color:green'>Lift,<span style='color:red'>Fail,<span style='color:green'>Lift,<span style='color:green'>Lift","0,0,1,1,0,0,0,0,1,0,0,1","0,0,1,1,1,1,0,1,1,1,0,1","0,1,1,0,1,1",10,20,20,"","","<p style='font-size:30px'><b> New Contest! </b></p>","null","","",5,"",NA,NA,NA,NA,NA,NA,NA,NA,NA,NA,NA,NA,NA,NA,NA,NA,NA,NA,NA,NA,NA,NA,NA,NA,NA,NA,NA,NA,NA,NA,NA,NA,NA,NA,NA,NA,NA,NA,NA,"",NA,NA,NA,NA,NA,NA,NA,NA,NA,2025-11-21 02:17:36
"6323.699999988079","https://psyc-201.github.io/xiang2023/exp/index1.html?PROLIFIC_PID=REDACTED&STUDY_ID=691f8ca61c6b4dcbb0aeb5f4&SESSION_ID=691fc926161344da0ad02c01","survey-html-form",32,502560,"0.0-344.0","DMI9I2sFf/b/yuMM+aYlikNRBaGSBcvhNVsgdbQLNGyYqDuiL0wMRiwlOj9VKnSCFoR3IOcW2h8RyjR7i2CryXYHMCeg0oVcwQ7Jz4hKr3b8+Z5VDh1zcWMkn9BFLrQ2RAI30/VLu2aZ6BXcM7SmGyVzV9lnmy58X36Yz2XmHeuQiO4q9bOM1Il+9pQIt52K0DTGEj4bnmVUaPHC8CLRmSRwhdDxujT6S/jFGk1xKsbOs+sBVw8viWrZ3yIvUUyf1a0MGD9ZzaeYt3ZCo2b/jMN0lQFQszCCR0x5yvDvHYceE2hSZTA0dPBmsp2SEG8vunFeEHmu4ANAHcz6tIMBOg==","691f8ca61c6b4dcbb0aeb5f4","691fc926161344da0ad02c01","index1","<span style='color:red'>Fail,<span style='color:red'>Fail,<span style='color:green'>Lift,<span style='color:green'>Lift,<span style='color:red'>Fail,<span style='color:red'>Fail,<span style='color:red'>Fail,<span style='color:red'>Fail,<span style='color:green'>Lift,<span style='color:red'>Fail,<span style='color:red'>Fail,<span style='color:green'>Lift","<span style='color:red'>Fail,<span style='color:red'>Fail,<span style='color:green'>Lift,<span style='color:green'>Lift,<span style='color:green'>Lift,<span style='color:green'>Lift,<span style='color:red'>Fail,<span style='color:green'>Lift,<span style='color:green'>Lift,<span style='color:green'>Lift,<span style='color:red'>Fail,<span style='color:green'>Lift","<span style='color:red'>Fail,<span style='color:green'>Lift,<span style='color:green'>Lift,<span style='color:red'>Fail,<span style='color:green'>Lift,<span style='color:green'>Lift","0,0,1,1,0,0,0,0,1,0,0,1","0,0,1,1,1,1,0,1,1,1,0,1","0,1,1,0,1,1",10,20,20,"","","","","{""box1"":""5"",""box2"":""5""}","",5,"round1_outcome",1,5,1,5,5,NA,NA,0,0,10,5,5,NA,NA,0,0,10,NA,NA,NA,NA,NA,NA,NA,NA,NA,NA,NA,NA,NA,NA,NA,NA,NA,NA,NA,NA,NA,NA,"",NA,NA,NA,NA,NA,NA,NA,NA,NA,2025-11-21 02:17:36
"5247.199999988079","https://psyc-201.github.io/xiang2023/exp/index1.html?PROLIFIC_PID=REDACTED&STUDY_ID=691f8ca61c6b4dcbb0aeb5f4&SESSION_ID=691fc926161344da0ad02c01","survey-html-form",33,507809,"0.0-345.0","DMI9I2sFf/b/yuMM+aYlikNRBaGSBcvhNVsgdbQLNGyYqDuiL0wMRiwlOj9VKnSCFoR3IOcW2h8RyjR7i2CryXYHMCeg0oVcwQ7Jz4hKr3b8+Z5VDh1zcWMkn9BFLrQ2RAI30/VLu2aZ6BXcM7SmGyVzV9lnmy58X36Yz2XmHeuQiO4q9bOM1Il+9pQIt52K0DTGEj4bnmVUaPHC8CLRmSRwhdDxujT6S/jFGk1xKsbOs+sBVw8viWrZ3yIvUUyf1a0MGD9ZzaeYt3ZCo2b/jMN0lQFQszCCR0x5yvDvHYceE2hSZTA0dPBmsp2SEG8vunFeEHmu4ANAHcz6tIMBOg==","691f8ca61c6b4dcbb0aeb5f4","691fc926161344da0ad02c01","index1","<span style='color:red'>Fail,<span style='color:red'>Fail,<span style='color:green'>Lift,<span style='color:green'>Lift,<span style='color:red'>Fail,<span style='color:red'>Fail,<span style='color:red'>Fail,<span style='color:red'>Fail,<span style='color:green'>Lift,<span style='color:red'>Fail,<span style='color:red'>Fail,<span style='color:green'>Lift","<span style='color:red'>Fail,<span style='color:red'>Fail,<span style='color:green'>Lift,<span style='color:green'>Lift,<span style='color:green'>Lift,<span style='color:green'>Lift,<span style='color:red'>Fail,<span style='color:green'>Lift,<span style='color:green'>Lift,<span style='color:green'>Lift,<span style='color:red'>Fail,<span style='color:green'>Lift","<span style='color:red'>Fail,<span style='color:green'>Lift,<span style='color:green'>Lift,<span style='color:red'>Fail,<span style='color:green'>Lift,<span style='color:green'>Lift","0,0,1,1,0,0,0,0,1,0,0,1","0,0,1,1,1,1,0,1,1,1,0,1","0,1,1,0,1,1",10,20,20,"","","","","{""box1"":""50"",""box2"":""50""}","",5,"round2_ready",2,5,2,NA,NA,NA,NA,NA,NA,NA,NA,NA,NA,NA,NA,NA,NA,50,50,50,50,NA,NA,NA,NA,NA,NA,NA,NA,NA,NA,NA,NA,NA,NA,NA,NA,NA,NA,"",NA,NA,NA,NA,NA,NA,NA,NA,NA,2025-11-21 02:17:36
"8794.90000000596","https://psyc-201.github.io/xiang2023/exp/index1.html?PROLIFIC_PID=REDACTED&STUDY_ID=691f8ca61c6b4dcbb0aeb5f4&SESSION_ID=691fc926161344da0ad02c01","survey-html-form",34,516605,"0.0-346.0","DMI9I2sFf/b/yuMM+aYlikNRBaGSBcvhNVsgdbQLNGyYqDuiL0wMRiwlOj9VKnSCFoR3IOcW2h8RyjR7i2CryXYHMCeg0oVcwQ7Jz4hKr3b8+Z5VDh1zcWMkn9BFLrQ2RAI30/VLu2aZ6BXcM7SmGyVzV9lnmy58X36Yz2XmHeuQiO4q9bOM1Il+9pQIt52K0DTGEj4bnmVUaPHC8CLRmSRwhdDxujT6S/jFGk1xKsbOs+sBVw8viWrZ3yIvUUyf1a0MGD9ZzaeYt3ZCo2b/jMN0lQFQszCCR0x5yvDvHYceE2hSZTA0dPBmsp2SEG8vunFeEHmu4ANAHcz6tIMBOg==","691f8ca61c6b4dcbb0aeb5f4","691fc926161344da0ad02c01","index1","<span style='color:red'>Fail,<span style='color:red'>Fail,<span style='color:green'>Lift,<span style='color:green'>Lift,<span style='color:red'>Fail,<span style='color:red'>Fail,<span style='color:red'>Fail,<span style='color:red'>Fail,<span style='color:green'>Lift,<span style='color:red'>Fail,<span style='color:red'>Fail,<span style='color:green'>Lift","<span style='color:red'>Fail,<span style='color:red'>Fail,<span style='color:green'>Lift,<span style='color:green'>Lift,<span style='color:green'>Lift,<span style='color:green'>Lift,<span style='color:red'>Fail,<span style='color:green'>Lift,<span style='color:green'>Lift,<span style='color:green'>Lift,<span style='color:red'>Fail,<span style='color:green'>Lift","<span style='color:red'>Fail,<span style='color:green'>Lift,<span style='color:green'>Lift,<span style='color:red'>Fail,<span style='color:green'>Lift,<span style='color:green'>Lift","0,0,1,1,0,0,0,0,1,0,0,1","0,0,1,1,1,1,0,1,1,1,0,1","0,1,1,0,1,1",10,20,20,"","","","","{""box1"":""3"",""box2"":""3""}","",5,"round2_outcome",3,5,2,3,3,NA,NA,0,0,20,NA,NA,NA,NA,NA,NA,NA,NA,NA,NA,NA,3,3,NA,NA,0,0,20,NA,NA,NA,NA,NA,NA,NA,NA,NA,NA,NA,"",NA,NA,NA,NA,NA,NA,NA,NA,NA,2025-11-21 02:17:36
"5305.4000000059605","https://psyc-201.github.io/xiang2023/exp/index1.html?PROLIFIC_PID=REDACTED&STUDY_ID=691f8ca61c6b4dcbb0aeb5f4&SESSION_ID=691fc926161344da0ad02c01","survey-html-form",35,521913,"0.0-347.0","DMI9I2sFf/b/yuMM+aYlikNRBaGSBcvhNVsgdbQLNGyYqDuiL0wMRiwlOj9VKnSCFoR3IOcW2h8RyjR7i2CryXYHMCeg0oVcwQ7Jz4hKr3b8+Z5VDh1zcWMkn9BFLrQ2RAI30/VLu2aZ6BXcM7SmGyVzV9lnmy58X36Yz2XmHeuQiO4q9bOM1Il+9pQIt52K0DTGEj4bnmVUaPHC8CLRmSRwhdDxujT6S/jFGk1xKsbOs+sBVw8viWrZ3yIvUUyf1a0MGD9ZzaeYt3ZCo2b/jMN0lQFQszCCR0x5yvDvHYceE2hSZTA0dPBmsp2SEG8vunFeEHmu4ANAHcz6tIMBOg==","691f8ca61c6b4dcbb0aeb5f4","691fc926161344da0ad02c01","index1","<span style='color:red'>Fail,<span style='color:red'>Fail,<span style='color:green'>Lift,<span style='color:green'>Lift,<span style='color:red'>Fail,<span style='color:red'>Fail,<span style='color:red'>Fail,<span style='color:red'>Fail,<span style='color:green'>Lift,<span style='color:red'>Fail,<span style='color:red'>Fail,<span style='color:green'>Lift","<span style='color:red'>Fail,<span style='color:red'>Fail,<span style='color:green'>Lift,<span style='color:green'>Lift,<span style='color:green'>Lift,<span style='color:green'>Lift,<span style='color:red'>Fail,<span style='color:green'>Lift,<span style='color:green'>Lift,<span style='color:green'>Lift,<span style='color:red'>Fail,<span style='color:green'>Lift","<span style='color:red'>Fail,<span style='color:green'>Lift,<span style='color:green'>Lift,<span style='color:red'>Fail,<span style='color:green'>Lift,<span style='color:green'>Lift","0,0,1,1,0,0,0,0,1,0,0,1","0,0,1,1,1,1,0,1,1,1,0,1","0,1,1,0,1,1",10,20,20,"","","","","{""box1"":""50""}","",5,"round3_ready",4,5,3,NA,NA,NA,NA,NA,NA,NA,NA,NA,NA,NA,NA,NA,NA,50,50,NA,NA,NA,NA,NA,NA,NA,NA,NA,50,50,NA,NA,NA,NA,NA,NA,NA,NA,NA,"",NA,NA,NA,NA,NA,NA,NA,NA,NA,2025-11-21 02:17:36
"10658.90000000596","https://psyc-201.github.io/xiang2023/exp/index1.html?PROLIFIC_PID=REDACTED&STUDY_ID=691f8ca61c6b4dcbb0aeb5f4&SESSION_ID=691fc926161344da0ad02c01","survey-html-form",36,532574,"0.0-349.0-0.0","DMI9I2sFf/b/yuMM+aYlikNRBaGSBcvhNVsgdbQLNGyYqDuiL0wMRiwlOj9VKnSCFoR3IOcW2h8RyjR7i2CryXYHMCeg0oVcwQ7Jz4hKr3b8+Z5VDh1zcWMkn9BFLrQ2RAI30/VLu2aZ6BXcM7SmGyVzV9lnmy58X36Yz2XmHeuQiO4q9bOM1Il+9pQIt52K0DTGEj4bnmVUaPHC8CLRmSRwhdDxujT6S/jFGk1xKsbOs+sBVw8viWrZ3yIvUUyf1a0MGD9ZzaeYt3ZCo2b/jMN0lQFQszCCR0x5yvDvHYceE2hSZTA0dPBmsp2SEG8vunFeEHmu4ANAHcz6tIMBOg==","691f8ca61c6b4dcbb0aeb5f4","691fc926161344da0ad02c01","index1","<span style='color:red'>Fail,<span style='color:red'>Fail,<span style='color:green'>Lift,<span style='color:green'>Lift,<span style='color:red'>Fail,<span style='color:red'>Fail,<span style='color:red'>Fail,<span style='color:red'>Fail,<span style='color:green'>Lift,<span style='color:red'>Fail,<span style='color:red'>Fail,<span style='color:green'>Lift","<span style='color:red'>Fail,<span style='color:red'>Fail,<span style='color:green'>Lift,<span style='color:green'>Lift,<span style='color:green'>Lift,<span style='color:green'>Lift,<span style='color:red'>Fail,<span style='color:green'>Lift,<span style='color:green'>Lift,<span style='color:green'>Lift,<span style='color:red'>Fail,<span style='color:green'>Lift","<span style='color:red'>Fail,<span style='color:green'>Lift,<span style='color:green'>Lift,<span style='color:red'>Fail,<span style='color:green'>Lift,<span style='color:green'>Lift","0,0,1,1,0,0,0,0,1,0,0,1","0,0,1,1,1,1,0,1,1,1,0,1","0,1,1,0,1,1",10,20,20,"","","","","{""box1"":""1"",""box2"":""1"",""box3"":""999"",""box4"":""999""}","",6,"round3_fail",5,5,3,1,1,NA,NA,0,0,20,NA,NA,NA,NA,NA,NA,NA,NA,NA,NA,NA,NA,NA,NA,NA,NA,NA,NA,NA,NA,1,1,NA,NA,0,0,20,1,1,"",NA,NA,NA,NA,NA,NA,NA,NA,NA,2025-11-21 02:17:36
"null","https://psyc-201.github.io/xiang2023/exp/index1.html?PROLIFIC_PID=REDACTED&STUDY_ID=691f8ca61c6b4dcbb0aeb5f4&SESSION_ID=691fc926161344da0ad02c01","html-keyboard-response",37,535577,"0.0-352.0","DMI9I2sFf/b/yuMM+aYlikNRBaGSBcvhNVsgdbQLNGyYqDuiL0wMRiwlOj9VKnSCFoR3IOcW2h8RyjR7i2CryXYHMCeg0oVcwQ7Jz4hKr3b8+Z5VDh1zcWMkn9BFLrQ2RAI30/VLu2aZ6BXcM7SmGyVzV9lnmy58X36Yz2XmHeuQiO4q9bOM1Il+9pQIt52K0DTGEj4bnmVUaPHC8CLRmSRwhdDxujT6S/jFGk1xKsbOs+sBVw8viWrZ3yIvUUyf1a0MGD9ZzaeYt3ZCo2b/jMN0lQFQszCCR0x5yvDvHYceE2hSZTA0dPBmsp2SEG8vunFeEHmu4ANAHcz6tIMBOg==","691f8ca61c6b4dcbb0aeb5f4","691fc926161344da0ad02c01","index1","<span style='color:red'>Fail,<span style='color:red'>Fail,<span style='color:green'>Lift,<span style='color:green'>Lift,<span style='color:red'>Fail,<span style='color:red'>Fail,<span style='color:red'>Fail,<span style='color:red'>Fail,<span style='color:green'>Lift,<span style='color:red'>Fail,<span style='color:red'>Fail,<span style='color:green'>Lift","<span style='color:red'>Fail,<span style='color:red'>Fail,<span style='color:green'>Lift,<span style='color:green'>Lift,<span style='color:green'>Lift,<span style='color:green'>Lift,<span style='color:red'>Fail,<span style='color:green'>Lift,<span style='color:green'>Lift,<span style='color:green'>Lift,<span style='color:red'>Fail,<span style='color:green'>Lift","<span style='color:red'>Fail,<span style='color:green'>Lift,<span style='color:green'>Lift,<span style='color:red'>Fail,<span style='color:green'>Lift,<span style='color:green'>Lift","0,0,1,1,0,0,0,0,1,0,0,1","0,0,1,1,1,1,0,1,1,1,0,1","0,1,1,0,1,1",10,20,20,"","","<p style='font-size:30px'><b> New Contest! </b></p>","null","","",6,"",NA,NA,NA,NA,NA,NA,NA,NA,NA,NA,NA,NA,NA,NA,NA,NA,NA,NA,NA,NA,NA,NA,NA,NA,NA,NA,NA,NA,NA,NA,NA,NA,NA,NA,NA,NA,NA,NA,NA,"",NA,NA,NA,NA,NA,NA,NA,NA,NA,2025-11-21 02:17:36
"3902.4000000059605","https://psyc-201.github.io/xiang2023/exp/index1.html?PROLIFIC_PID=REDACTED&STUDY_ID=691f8ca61c6b4dcbb0aeb5f4&SESSION_ID=691fc926161344da0ad02c01","survey-html-form",38,539482,"0.0-353.0","DMI9I2sFf/b/yuMM+aYlikNRBaGSBcvhNVsgdbQLNGyYqDuiL0wMRiwlOj9VKnSCFoR3IOcW2h8RyjR7i2CryXYHMCeg0oVcwQ7Jz4hKr3b8+Z5VDh1zcWMkn9BFLrQ2RAI30/VLu2aZ6BXcM7SmGyVzV9lnmy58X36Yz2XmHeuQiO4q9bOM1Il+9pQIt52K0DTGEj4bnmVUaPHC8CLRmSRwhdDxujT6S/jFGk1xKsbOs+sBVw8viWrZ3yIvUUyf1a0MGD9ZzaeYt3ZCo2b/jMN0lQFQszCCR0x5yvDvHYceE2hSZTA0dPBmsp2SEG8vunFeEHmu4ANAHcz6tIMBOg==","691f8ca61c6b4dcbb0aeb5f4","691fc926161344da0ad02c01","index1","<span style='color:red'>Fail,<span style='color:red'>Fail,<span style='color:green'>Lift,<span style='color:green'>Lift,<span style='color:red'>Fail,<span style='color:red'>Fail,<span style='color:red'>Fail,<span style='color:red'>Fail,<span style='color:green'>Lift,<span style='color:red'>Fail,<span style='color:red'>Fail,<span style='color:green'>Lift","<span style='color:red'>Fail,<span style='color:red'>Fail,<span style='color:green'>Lift,<span style='color:green'>Lift,<span style='color:green'>Lift,<span style='color:green'>Lift,<span style='color:red'>Fail,<span style='color:green'>Lift,<span style='color:green'>Lift,<span style='color:green'>Lift,<span style='color:red'>Fail,<span style='color:green'>Lift","<span style='color:red'>Fail,<span style='color:green'>Lift,<span style='color:green'>Lift,<span style='color:red'>Fail,<span style='color:green'>Lift,<span style='color:green'>Lift","0,0,1,1,0,0,0,0,1,0,0,1","0,0,1,1,1,1,0,1,1,1,0,1","0,1,1,0,1,1",10,20,20,"","","","","{""box1"":""3"",""box2"":""3""}","",6,"round1_outcome",1,6,1,3,3,NA,NA,0,0,10,3,3,NA,NA,0,0,10,NA,NA,NA,NA,NA,NA,NA,NA,NA,NA,NA,NA,NA,NA,NA,NA,NA,NA,NA,NA,NA,NA,"",NA,NA,NA,NA,NA,NA,NA,NA,NA,2025-11-21 02:17:36
"7287.300000011921","https://psyc-201.github.io/xiang2023/exp/index1.html?PROLIFIC_PID=REDACTED&STUDY_ID=691f8ca61c6b4dcbb0aeb5f4&SESSION_ID=691fc926161344da0ad02c01","survey-html-form",39,546771,"0.0-354.0","DMI9I2sFf/b/yuMM+aYlikNRBaGSBcvhNVsgdbQLNGyYqDuiL0wMRiwlOj9VKnSCFoR3IOcW2h8RyjR7i2CryXYHMCeg0oVcwQ7Jz4hKr3b8+Z5VDh1zcWMkn9BFLrQ2RAI30/VLu2aZ6BXcM7SmGyVzV9lnmy58X36Yz2XmHeuQiO4q9bOM1Il+9pQIt52K0DTGEj4bnmVUaPHC8CLRmSRwhdDxujT6S/jFGk1xKsbOs+sBVw8viWrZ3yIvUUyf1a0MGD9ZzaeYt3ZCo2b/jMN0lQFQszCCR0x5yvDvHYceE2hSZTA0dPBmsp2SEG8vunFeEHmu4ANAHcz6tIMBOg==","691f8ca61c6b4dcbb0aeb5f4","691fc926161344da0ad02c01","index1","<span style='color:red'>Fail,<span style='color:red'>Fail,<span style='color:green'>Lift,<span style='color:green'>Lift,<span style='color:red'>Fail,<span style='color:red'>Fail,<span style='color:red'>Fail,<span style='color:red'>Fail,<span style='color:green'>Lift,<span style='color:red'>Fail,<span style='color:red'>Fail,<span style='color:green'>Lift","<span style='color:red'>Fail,<span style='color:red'>Fail,<span style='color:green'>Lift,<span style='color:green'>Lift,<span style='color:green'>Lift,<span style='color:green'>Lift,<span style='color:red'>Fail,<span style='color:green'>Lift,<span style='color:green'>Lift,<span style='color:green'>Lift,<span style='color:red'>Fail,<span style='color:green'>Lift","<span style='color:red'>Fail,<span style='color:green'>Lift,<span style='color:green'>Lift,<span style='color:red'>Fail,<span style='color:green'>Lift,<span style='color:green'>Lift","0,0,1,1,0,0,0,0,1,0,0,1","0,0,1,1,1,1,0,1,1,1,0,1","0,1,1,0,1,1",10,20,20,"","","","","{""box1"":""50"",""box2"":""50""}","",6,"round2_ready",2,6,2,NA,NA,NA,NA,NA,NA,NA,NA,NA,NA,NA,NA,NA,NA,50,50,50,50,NA,NA,NA,NA,NA,NA,NA,NA,NA,NA,NA,NA,NA,NA,NA,NA,NA,NA,"",NA,NA,NA,NA,NA,NA,NA,NA,NA,2025-11-21 02:17:36
"10400.90000000596","https://psyc-201.github.io/xiang2023/exp/index1.html?PROLIFIC_PID=REDACTED&STUDY_ID=691f8ca61c6b4dcbb0aeb5f4&SESSION_ID=691fc926161344da0ad02c01","survey-html-form",40,557174,"0.0-355.0","DMI9I2sFf/b/yuMM+aYlikNRBaGSBcvhNVsgdbQLNGyYqDuiL0wMRiwlOj9VKnSCFoR3IOcW2h8RyjR7i2CryXYHMCeg0oVcwQ7Jz4hKr3b8+Z5VDh1zcWMkn9BFLrQ2RAI30/VLu2aZ6BXcM7SmGyVzV9lnmy58X36Yz2XmHeuQiO4q9bOM1Il+9pQIt52K0DTGEj4bnmVUaPHC8CLRmSRwhdDxujT6S/jFGk1xKsbOs+sBVw8viWrZ3yIvUUyf1a0MGD9ZzaeYt3ZCo2b/jMN0lQFQszCCR0x5yvDvHYceE2hSZTA0dPBmsp2SEG8vunFeEHmu4ANAHcz6tIMBOg==","691f8ca61c6b4dcbb0aeb5f4","691fc926161344da0ad02c01","index1","<span style='color:red'>Fail,<span style='color:red'>Fail,<span style='color:green'>Lift,<span style='color:green'>Lift,<span style='color:red'>Fail,<span style='color:red'>Fail,<span style='color:red'>Fail,<span style='color:red'>Fail,<span style='color:green'>Lift,<span style='color:red'>Fail,<span style='color:red'>Fail,<span style='color:green'>Lift","<span style='color:red'>Fail,<span style='color:red'>Fail,<span style='color:green'>Lift,<span style='color:green'>Lift,<span style='color:green'>Lift,<span style='color:green'>Lift,<span style='color:red'>Fail,<span style='color:green'>Lift,<span style='color:green'>Lift,<span style='color:green'>Lift,<span style='color:red'>Fail,<span style='color:green'>Lift","<span style='color:red'>Fail,<span style='color:green'>Lift,<span style='color:green'>Lift,<span style='color:red'>Fail,<span style='color:green'>Lift,<span style='color:green'>Lift","0,0,1,1,0,0,0,0,1,0,0,1","0,0,1,1,1,1,0,1,1,1,0,1","0,1,1,0,1,1",10,20,20,"","","","","{""box1"":""1"",""box2"":""6"",""box4"":""100""}","",6,"round2_outcome",3,6,2,1,6,NA,100,0,1,20,NA,NA,NA,NA,NA,NA,NA,NA,NA,NA,NA,1,6,NA,100,0,1,20,NA,NA,NA,NA,NA,NA,NA,NA,NA,NA,NA,"",NA,NA,NA,NA,NA,NA,NA,NA,NA,2025-11-21 02:17:36
"3924.7000000178814","https://psyc-201.github.io/xiang2023/exp/index1.html?PROLIFIC_PID=REDACTED&STUDY_ID=691f8ca61c6b4dcbb0aeb5f4&SESSION_ID=691fc926161344da0ad02c01","survey-html-form",41,561100,"0.0-356.0","DMI9I2sFf/b/yuMM+aYlikNRBaGSBcvhNVsgdbQLNGyYqDuiL0wMRiwlOj9VKnSCFoR3IOcW2h8RyjR7i2CryXYHMCeg0oVcwQ7Jz4hKr3b8+Z5VDh1zcWMkn9BFLrQ2RAI30/VLu2aZ6BXcM7SmGyVzV9lnmy58X36Yz2XmHeuQiO4q9bOM1Il+9pQIt52K0DTGEj4bnmVUaPHC8CLRmSRwhdDxujT6S/jFGk1xKsbOs+sBVw8viWrZ3yIvUUyf1a0MGD9ZzaeYt3ZCo2b/jMN0lQFQszCCR0x5yvDvHYceE2hSZTA0dPBmsp2SEG8vunFeEHmu4ANAHcz6tIMBOg==","691f8ca61c6b4dcbb0aeb5f4","691fc926161344da0ad02c01","index1","<span style='color:red'>Fail,<span style='color:red'>Fail,<span style='color:green'>Lift,<span style='color:green'>Lift,<span style='color:red'>Fail,<span style='color:red'>Fail,<span style='color:red'>Fail,<span style='color:red'>Fail,<span style='color:green'>Lift,<span style='color:red'>Fail,<span style='color:red'>Fail,<span style='color:green'>Lift","<span style='color:red'>Fail,<span style='color:red'>Fail,<span style='color:green'>Lift,<span style='color:green'>Lift,<span style='color:green'>Lift,<span style='color:green'>Lift,<span style='color:red'>Fail,<span style='color:green'>Lift,<span style='color:green'>Lift,<span style='color:green'>Lift,<span style='color:red'>Fail,<span style='color:green'>Lift","<span style='color:red'>Fail,<span style='color:green'>Lift,<span style='color:green'>Lift,<span style='color:red'>Fail,<span style='color:green'>Lift,<span style='color:green'>Lift","0,0,1,1,0,0,0,0,1,0,0,1","0,0,1,1,1,1,0,1,1,1,0,1","0,1,1,0,1,1",10,20,20,"","","","","{""box1"":""100""}","",6,"round3_ready",4,6,3,NA,NA,NA,NA,NA,NA,NA,NA,NA,NA,NA,NA,NA,NA,100,100,NA,NA,NA,NA,NA,NA,NA,NA,NA,100,100,NA,NA,NA,NA,NA,NA,NA,NA,NA,"",NA,NA,NA,NA,NA,NA,NA,NA,NA,2025-11-21 02:17:36
"21110.80000001192","https://psyc-201.github.io/xiang2023/exp/index1.html?PROLIFIC_PID=REDACTED&STUDY_ID=691f8ca61c6b4dcbb0aeb5f4&SESSION_ID=691fc926161344da0ad02c01","survey-html-form",42,582213,"0.0-358.0-0.0","DMI9I2sFf/b/yuMM+aYlikNRBaGSBcvhNVsgdbQLNGyYqDuiL0wMRiwlOj9VKnSCFoR3IOcW2h8RyjR7i2CryXYHMCeg0oVcwQ7Jz4hKr3b8+Z5VDh1zcWMkn9BFLrQ2RAI30/VLu2aZ6BXcM7SmGyVzV9lnmy58X36Yz2XmHeuQiO4q9bOM1Il+9pQIt52K0DTGEj4bnmVUaPHC8CLRmSRwhdDxujT6S/jFGk1xKsbOs+sBVw8viWrZ3yIvUUyf1a0MGD9ZzaeYt3ZCo2b/jMN0lQFQszCCR0x5yvDvHYceE2hSZTA0dPBmsp2SEG8vunFeEHmu4ANAHcz6tIMBOg==","691f8ca61c6b4dcbb0aeb5f4","691fc926161344da0ad02c01","index1","<span style='color:red'>Fail,<span style='color:red'>Fail,<span style='color:green'>Lift,<span style='color:green'>Lift,<span style='color:red'>Fail,<span style='color:red'>Fail,<span style='color:red'>Fail,<span style='color:red'>Fail,<span style='color:green'>Lift,<span style='color:red'>Fail,<span style='color:red'>Fail,<span style='color:green'>Lift","<span style='color:red'>Fail,<span style='color:red'>Fail,<span style='color:green'>Lift,<span style='color:green'>Lift,<span style='color:green'>Lift,<span style='color:green'>Lift,<span style='color:red'>Fail,<span style='color:green'>Lift,<span style='color:green'>Lift,<span style='color:green'>Lift,<span style='color:red'>Fail,<span style='color:green'>Lift","<span style='color:red'>Fail,<span style='color:green'>Lift,<span style='color:green'>Lift,<span style='color:red'>Fail,<span style='color:green'>Lift,<span style='color:green'>Lift","0,0,1,1,0,0,0,0,1,0,0,1","0,0,1,1,1,1,0,1,1,1,0,1","0,1,1,0,1,1",10,20,20,"","","","","{""box1"":""1"",""box2"":""5"",""box3"":""999"",""box4"":""999""}","",6,"round3_fail",5,6,3,1,5,NA,NA,0,0,20,NA,NA,NA,NA,NA,NA,NA,NA,NA,NA,NA,NA,NA,NA,NA,NA,NA,NA,NA,NA,1,5,NA,NA,0,0,20,1,1,"",NA,NA,NA,NA,NA,NA,NA,NA,NA,2025-11-21 02:17:36
"23861.09999999404","https://psyc-201.github.io/xiang2023/exp/index1.html?PROLIFIC_PID=REDACTED&STUDY_ID=691f8ca61c6b4dcbb0aeb5f4&SESSION_ID=691fc926161344da0ad02c01","survey-text",43,606077,"0.0-361.0","DMI9I2sFf/b/yuMM+aYlikNRBaGSBcvhNVsgdbQLNGyYqDuiL0wMRiwlOj9VKnSCFoR3IOcW2h8RyjR7i2CryXYHMCeg0oVcwQ7Jz4hKr3b8+Z5VDh1zcWMkn9BFLrQ2RAI30/VLu2aZ6BXcM7SmGyVzV9lnmy58X36Yz2XmHeuQiO4q9bOM1Il+9pQIt52K0DTGEj4bnmVUaPHC8CLRmSRwhdDxujT6S/jFGk1xKsbOs+sBVw8viWrZ3yIvUUyf1a0MGD9ZzaeYt3ZCo2b/jMN0lQFQszCCR0x5yvDvHYceE2hSZTA0dPBmsp2SEG8vunFeEHmu4ANAHcz6tIMBOg==","691f8ca61c6b4dcbb0aeb5f4","691fc926161344da0ad02c01","index1","<span style='color:red'>Fail,<span style='color:red'>Fail,<span style='color:green'>Lift,<span style='color:green'>Lift,<span style='color:red'>Fail,<span style='color:red'>Fail,<span style='color:red'>Fail,<span style='color:red'>Fail,<span style='color:green'>Lift,<span style='color:red'>Fail,<span style='color:red'>Fail,<span style='color:green'>Lift","<span style='color:red'>Fail,<span style='color:red'>Fail,<span style='color:green'>Lift,<span style='color:green'>Lift,<span style='color:green'>Lift,<span style='color:green'>Lift,<span style='color:red'>Fail,<span style='color:green'>Lift,<span style='color:green'>Lift,<span style='color:green'>Lift,<span style='color:red'>Fail,<span style='color:green'>Lift","<span style='color:red'>Fail,<span style='color:green'>Lift,<span style='color:green'>Lift,<span style='color:red'>Fail,<span style='color:green'>Lift,<span style='color:green'>Lift","0,0,1,1,0,0,0,0,1,0,0,1","0,0,1,1,1,1,0,1,1,1,0,1","0,1,1,0,1,1",10,20,20,"","","","","{""Q0"":""I was playing a game where I was guessing the strength of various contestants and the effort they put in.""}","",NA,"",NA,NA,NA,NA,NA,NA,NA,NA,NA,NA,NA,NA,NA,NA,NA,NA,NA,NA,NA,NA,NA,NA,NA,NA,NA,NA,NA,NA,NA,NA,NA,NA,NA,NA,NA,NA,NA,NA,NA,"",NA,NA,NA,NA,NA,NA,NA,NA,NA,2025-11-21 02:17:36
"33208","https://psyc-201.github.io/xiang2023/exp/index1.html?PROLIFIC_PID=REDACTED&STUDY_ID=691f8ca61c6b4dcbb0aeb5f4&SESSION_ID=691fc926161344da0ad02c01","survey-text",44,639286,"0.0-362.0","DMI9I2sFf/b/yuMM+aYlikNRBaGSBcvhNVsgdbQLNGyYqDuiL0wMRiwlOj9VKnSCFoR3IOcW2h8RyjR7i2CryXYHMCeg0oVcwQ7Jz4hKr3b8+Z5VDh1zcWMkn9BFLrQ2RAI30/VLu2aZ6BXcM7SmGyVzV9lnmy58X36Yz2XmHeuQiO4q9bOM1Il+9pQIt52K0DTGEj4bnmVUaPHC8CLRmSRwhdDxujT6S/jFGk1xKsbOs+sBVw8viWrZ3yIvUUyf1a0MGD9ZzaeYt3ZCo2b/jMN0lQFQszCCR0x5yvDvHYceE2hSZTA0dPBmsp2SEG8vunFeEHmu4ANAHcz6tIMBOg==","691f8ca61c6b4dcbb0aeb5f4","691fc926161344da0ad02c01","index1","<span style='color:red'>Fail,<span style='color:red'>Fail,<span style='color:green'>Lift,<span style='color:green'>Lift,<span style='color:red'>Fail,<span style='color:red'>Fail,<span style='color:red'>Fail,<span style='color:red'>Fail,<span style='color:green'>Lift,<span style='color:red'>Fail,<span style='color:red'>Fail,<span style='color:green'>Lift","<span style='color:red'>Fail,<span style='color:red'>Fail,<span style='color:green'>Lift,<span style='color:green'>Lift,<span style='color:green'>Lift,<span style='color:green'>Lift,<span style='color:red'>Fail,<span style='color:green'>Lift,<span style='color:green'>Lift,<span style='color:green'>Lift,<span style='color:red'>Fail,<span style='color:green'>Lift","<span style='color:red'>Fail,<span style='color:green'>Lift,<span style='color:green'>Lift,<span style='color:red'>Fail,<span style='color:green'>Lift,<span style='color:green'>Lift","0,0,1,1,0,0,0,0,1,0,0,1","0,0,1,1,1,1,0,1,1,1,0,1","0,1,1,0,1,1",10,20,20,"","","","","{""Q0"":""""}","",NA,"",NA,NA,NA,NA,NA,NA,NA,NA,NA,NA,NA,NA,NA,NA,NA,NA,NA,NA,NA,NA,NA,NA,NA,NA,NA,NA,NA,NA,NA,NA,NA,NA,NA,NA,NA,NA,NA,NA,NA,"[{""event"":""fullscreenenter"",""trial"":1,""time"":22691}]",6,2,1,50,1,0.5,NA,NA,NA,2025-11-21 02:17:36
"9551.299999982119","https://psyc-201.github.io/xiang2023/exp/index1.html?PROLIFIC_PID=REDACTED&STUDY_ID=691f8ca61c6b4dcbb0aeb5f4&SESSION_ID=691fc926161344da0ad02c01","html-button-response",45,648841,"0.0-363.0","DMI9I2sFf/b/yuMM+aYlikNRBaGSBcvhNVsgdbQLNGyYqDuiL0wMRiwlOj9VKnSCFoR3IOcW2h8RyjR7i2CryXYHMCeg0oVcwQ7Jz4hKr3b8+Z5VDh1zcWMkn9BFLrQ2RAI30/VLu2aZ6BXcM7SmGyVzV9lnmy58X36Yz2XmHeuQiO4q9bOM1Il+9pQIt52K0DTGEj4bnmVUaPHC8CLRmSRwhdDxujT6S/jFGk1xKsbOs+sBVw8viWrZ3yIvUUyf1a0MGD9ZzaeYt3ZCo2b/jMN0lQFQszCCR0x5yvDvHYceE2hSZTA0dPBmsp2SEG8vunFeEHmu4ANAHcz6tIMBOg==","691f8ca61c6b4dcbb0aeb5f4","691fc926161344da0ad02c01","index1","<span style='color:red'>Fail,<span style='color:red'>Fail,<span style='color:green'>Lift,<span style='color:green'>Lift,<span style='color:red'>Fail,<span style='color:red'>Fail,<span style='color:red'>Fail,<span style='color:red'>Fail,<span style='color:green'>Lift,<span style='color:red'>Fail,<span style='color:red'>Fail,<span style='color:green'>Lift","<span style='color:red'>Fail,<span style='color:red'>Fail,<span style='color:green'>Lift,<span style='color:green'>Lift,<span style='color:green'>Lift,<span style='color:green'>Lift,<span style='color:red'>Fail,<span style='color:green'>Lift,<span style='color:green'>Lift,<span style='color:green'>Lift,<span style='color:red'>Fail,<span style='color:green'>Lift","<span style='color:red'>Fail,<span style='color:green'>Lift,<span style='color:green'>Lift,<span style='color:red'>Fail,<span style='color:green'>Lift,<span style='color:green'>Lift","0,0,1,1,0,0,0,0,1,0,0,1","0,0,1,1,1,1,0,1,1,1,0,1","0,1,1,0,1,1",10,20,20,"","","<p> We randomly picked <b>Contest 6, Round 2</b> to calculate your bonus. </p><p> The outcome of Contestant L on that round is <span style='color:green'>Lift</span>. </p><p> The probability you entered was 50. </p><p><b> You won a bonus of $0.50!</b></p><p> IMPORTANT: Please click 'Next' to complete the game.</p>","","","",NA,"",NA,NA,NA,NA,NA,NA,NA,NA,NA,NA,NA,NA,NA,NA,NA,NA,NA,NA,NA,NA,NA,NA,NA,NA,NA,NA,NA,NA,NA,NA,NA,NA,NA,NA,NA,NA,NA,NA,NA,"",NA,NA,NA,NA,NA,NA,0,2,1,2025-11-21 02:17:36
