"rt","url","trial_type","trial_index","time_elapsed","internal_node_id","encryptedProlificId","studyId","sessionId","expIndex","round1_outcomes","round2_outcomes","round3_outcomes","round1_o","round2_o","round3_o","round1_reward","round2_reward","round3_reward","success","view_history","stimulus","key_press","responses","question_order","j","Stage","stage","contest","round","strength_a","strength_b","effort_a","effort_b","outcome_a","outcome_b","reward","r1_strength_a","r1_strength_b","r1_effort_a","r1_effort_b","r1_outcome_a","r1_outcome_b","r1_reward","probability_a","probability_b","r2_prob_a","r2_prob_b","r2_strength_a","r2_strength_b","r2_effort_a","r2_effort_b","r2_outcome_a","r2_outcome_b","r2_reward","r3_prob_a","r3_prob_b","r3_strength_a","r3_strength_b","r3_effort_a","r3_effort_b","r3_outcome_a","r3_outcome_b","r3_reward","attention_check","count","screen","pick_contest","pick_round","pick_side","trial_probability","trial_outcome","bonus","button_pressed","attention_sum","attention","datapipe_meta.attributes.date_modified"
"124882.89999999851","https://psyc-201.github.io/xiang2023/exp/index1.html?PROLIFIC_PID=REDACTED&STUDY_ID=691f8ca61c6b4dcbb0aeb5f4&SESSION_ID=691fb05925b4fae95aaec28a","external-html",0,124915,"0.0-0.0","DEn0A5Af3MB2TBIaiPFNCeqfj5I+P0QvYGb2HGCoxmISERzSkCBjTrReTK/hQuM/lYKjeRIl5PGZIbUtrEV7WBk71gFRr4RO0mrQxJSM/y2inCLQgQ1ykPuOndfpughkRICzufiYorC4FoFhn5C+n2KWWEC10Ah7KVDFB68ezXgITXGnGz0rpZaQ8ti2h6cmDLT73xEFDHp6+KN9nnNcIKSijHtBMBOPuY+vH4Gn/f1IhtLLpGzPKLiSspGEW1KXfPfr+eUgW2WyMSaOwl4/eJD0yhpkC16SJzeZIGYRyn5vfoRs3oeE+qNEaN31uv5GwrxLj/JPZsYPQN5vB02kJQ==","691f8ca61c6b4dcbb0aeb5f4","691fb05925b4fae95aaec28a","index1","<span style='color:red'>Fail,<span style='color:red'>Fail,<span style='color:green'>Lift,<span style='color:green'>Lift,<span style='color:red'>Fail,<span style='color:red'>Fail,<span style='color:red'>Fail,<span style='color:red'>Fail,<span style='color:green'>Lift,<span style='color:red'>Fail,<span style='color:red'>Fail,<span style='color:green'>Lift","<span style='color:red'>Fail,<span style='color:red'>Fail,<span style='color:green'>Lift,<span style='color:green'>Lift,<span style='color:green'>Lift,<span style='color:green'>Lift,<span style='color:red'>Fail,<span style='color:green'>Lift,<span style='color:green'>Lift,<span style='color:green'>Lift,<span style='color:red'>Fail,<span style='color:green'>Lift","<span style='color:red'>Fail,<span style='color:green'>Lift,<span style='color:green'>Lift,<span style='color:red'>Fail,<span style='color:green'>Lift,<span style='color:green'>Lift","0,0,1,1,0,0,0,0,1,0,0,1","0,0,1,1,1,1,0,1,1,1,0,1","0,1,1,0,1,1",10,20,20,"","","","","","",NA,"",NA,NA,NA,NA,NA,NA,NA,NA,NA,NA,NA,NA,NA,NA,NA,NA,NA,NA,NA,NA,NA,NA,NA,NA,NA,NA,NA,NA,NA,NA,NA,NA,NA,NA,NA,NA,NA,NA,NA,"",NA,NA,NA,NA,NA,NA,NA,NA,NA,2025-11-21 00:30:18
"","https://psyc-201.github.io/xiang2023/exp/index1.html?PROLIFIC_PID=REDACTED&STUDY_ID=691f8ca61c6b4dcbb0aeb5f4&SESSION_ID=691fb05925b4fae95aaec28a","fullscreen",1,127749,"0.0-1.0","DEn0A5Af3MB2TBIaiPFNCeqfj5I+P0QvYGb2HGCoxmISERzSkCBjTrReTK/hQuM/lYKjeRIl5PGZIbUtrEV7WBk71gFRr4RO0mrQxJSM/y2inCLQgQ1ykPuOndfpughkRICzufiYorC4FoFhn5C+n2KWWEC10Ah7KVDFB68ezXgITXGnGz0rpZaQ8ti2h6cmDLT73xEFDHp6+KN9nnNcIKSijHtBMBOPuY+vH4Gn/f1IhtLLpGzPKLiSspGEW1KXfPfr+eUgW2WyMSaOwl4/eJD0yhpkC16SJzeZIGYRyn5vfoRs3oeE+qNEaN31uv5GwrxLj/JPZsYPQN5vB02kJQ==","691f8ca61c6b4dcbb0aeb5f4","691fb05925b4fae95aaec28a","index1","<span style='color:red'>Fail,<span style='color:red'>Fail,<span style='color:green'>Lift,<span style='color:green'>Lift,<span style='color:red'>Fail,<span style='color:red'>Fail,<span style='color:red'>Fail,<span style='color:red'>Fail,<span style='color:green'>Lift,<span style='color:red'>Fail,<span style='color:red'>Fail,<span style='color:green'>Lift","<span style='color:red'>Fail,<span style='color:red'>Fail,<span style='color:green'>Lift,<span style='color:green'>Lift,<span style='color:green'>Lift,<span style='color:green'>Lift,<span style='color:red'>Fail,<span style='color:green'>Lift,<span style='color:green'>Lift,<span style='color:green'>Lift,<span style='color:red'>Fail,<span style='color:green'>Lift","<span style='color:red'>Fail,<span style='color:green'>Lift,<span style='color:green'>Lift,<span style='color:red'>Fail,<span style='color:green'>Lift,<span style='color:green'>Lift","0,0,1,1,0,0,0,0,1,0,0,1","0,0,1,1,1,1,0,1,1,1,0,1","0,1,1,0,1,1",10,20,20,"true","","","","","",NA,"",NA,NA,NA,NA,NA,NA,NA,NA,NA,NA,NA,NA,NA,NA,NA,NA,NA,NA,NA,NA,NA,NA,NA,NA,NA,NA,NA,NA,NA,NA,NA,NA,NA,NA,NA,NA,NA,NA,NA,"",NA,NA,NA,NA,NA,NA,NA,NA,NA,2025-11-21 00:30:18
"68429.60000000149","https://psyc-201.github.io/xiang2023/exp/index1.html?PROLIFIC_PID=REDACTED&STUDY_ID=691f8ca61c6b4dcbb0aeb5f4&SESSION_ID=691fb05925b4fae95aaec28a","instructions",2,196180,"0.0-2.0","DEn0A5Af3MB2TBIaiPFNCeqfj5I+P0QvYGb2HGCoxmISERzSkCBjTrReTK/hQuM/lYKjeRIl5PGZIbUtrEV7WBk71gFRr4RO0mrQxJSM/y2inCLQgQ1ykPuOndfpughkRICzufiYorC4FoFhn5C+n2KWWEC10Ah7KVDFB68ezXgITXGnGz0rpZaQ8ti2h6cmDLT73xEFDHp6+KN9nnNcIKSijHtBMBOPuY+vH4Gn/f1IhtLLpGzPKLiSspGEW1KXfPfr+eUgW2WyMSaOwl4/eJD0yhpkC16SJzeZIGYRyn5vfoRs3oeE+qNEaN31uv5GwrxLj/JPZsYPQN5vB02kJQ==","691f8ca61c6b4dcbb0aeb5f4","691fb05925b4fae95aaec28a","index1","<span style='color:red'>Fail,<span style='color:red'>Fail,<span style='color:green'>Lift,<span style='color:green'>Lift,<span style='color:red'>Fail,<span style='color:red'>Fail,<span style='color:red'>Fail,<span style='color:red'>Fail,<span style='color:green'>Lift,<span style='color:red'>Fail,<span style='color:red'>Fail,<span style='color:green'>Lift","<span style='color:red'>Fail,<span style='color:red'>Fail,<span style='color:green'>Lift,<span style='color:green'>Lift,<span style='color:green'>Lift,<span style='color:green'>Lift,<span style='color:red'>Fail,<span style='color:green'>Lift,<span style='color:green'>Lift,<span style='color:green'>Lift,<span style='color:red'>Fail,<span style='color:green'>Lift","<span style='color:red'>Fail,<span style='color:green'>Lift,<span style='color:green'>Lift,<span style='color:red'>Fail,<span style='color:green'>Lift,<span style='color:green'>Lift","0,0,1,1,0,0,0,0,1,0,0,1","0,0,1,1,1,1,0,1,1,1,0,1","0,1,1,0,1,1",10,20,20,"","[{""page_index"":0,""viewing_time"":20479.80000000447},{""page_index"":1,""viewing_time"":9532.79999999702},{""page_index"":2,""viewing_time"":12066.80000000447},{""page_index"":3,""viewing_time"":13116.5},{""page_index"":4,""viewing_time"":4066.7999999970198},{""page_index"":5,""viewing_time"":6549.79999999702},{""page_index"":6,""viewing_time"":2616.7000000029802}]","","","","",NA,"",NA,NA,NA,NA,NA,NA,NA,NA,NA,NA,NA,NA,NA,NA,NA,NA,NA,NA,NA,NA,NA,NA,NA,NA,NA,NA,NA,NA,NA,NA,NA,NA,NA,NA,NA,NA,NA,NA,NA,"",NA,NA,NA,NA,NA,NA,NA,NA,NA,2025-11-21 00:30:18
"null","https://psyc-201.github.io/xiang2023/exp/index1.html?PROLIFIC_PID=REDACTED&STUDY_ID=691f8ca61c6b4dcbb0aeb5f4&SESSION_ID=691fb05925b4fae95aaec28a","html-keyboard-response",3,197183,"0.0-3.0","DEn0A5Af3MB2TBIaiPFNCeqfj5I+P0QvYGb2HGCoxmISERzSkCBjTrReTK/hQuM/lYKjeRIl5PGZIbUtrEV7WBk71gFRr4RO0mrQxJSM/y2inCLQgQ1ykPuOndfpughkRICzufiYorC4FoFhn5C+n2KWWEC10Ah7KVDFB68ezXgITXGnGz0rpZaQ8ti2h6cmDLT73xEFDHp6+KN9nnNcIKSijHtBMBOPuY+vH4Gn/f1IhtLLpGzPKLiSspGEW1KXfPfr+eUgW2WyMSaOwl4/eJD0yhpkC16SJzeZIGYRyn5vfoRs3oeE+qNEaN31uv5GwrxLj/JPZsYPQN5vB02kJQ==","691f8ca61c6b4dcbb0aeb5f4","691fb05925b4fae95aaec28a","index1","<span style='color:red'>Fail,<span style='color:red'>Fail,<span style='color:green'>Lift,<span style='color:green'>Lift,<span style='color:red'>Fail,<span style='color:red'>Fail,<span style='color:red'>Fail,<span style='color:red'>Fail,<span style='color:green'>Lift,<span style='color:red'>Fail,<span style='color:red'>Fail,<span style='color:green'>Lift","<span style='color:red'>Fail,<span style='color:red'>Fail,<span style='color:green'>Lift,<span style='color:green'>Lift,<span style='color:green'>Lift,<span style='color:green'>Lift,<span style='color:red'>Fail,<span style='color:green'>Lift,<span style='color:green'>Lift,<span style='color:green'>Lift,<span style='color:red'>Fail,<span style='color:green'>Lift","<span style='color:red'>Fail,<span style='color:green'>Lift,<span style='color:green'>Lift,<span style='color:red'>Fail,<span style='color:green'>Lift,<span style='color:green'>Lift","0,0,1,1,0,0,0,0,1,0,0,1","0,0,1,1,1,1,0,1,1,1,0,1","0,1,1,0,1,1",10,20,20,"",""," ","null","","",NA,"",NA,NA,NA,NA,NA,NA,NA,NA,NA,NA,NA,NA,NA,NA,NA,NA,NA,NA,NA,NA,NA,NA,NA,NA,NA,NA,NA,NA,NA,NA,NA,NA,NA,NA,NA,NA,NA,NA,NA,"",NA,NA,NA,NA,NA,NA,NA,NA,NA,2025-11-21 00:30:18
"25713.5","https://psyc-201.github.io/xiang2023/exp/index1.html?PROLIFIC_PID=REDACTED&STUDY_ID=691f8ca61c6b4dcbb0aeb5f4&SESSION_ID=691fb05925b4fae95aaec28a","survey-multi-choice",4,222899,"0.0-4.0","DEn0A5Af3MB2TBIaiPFNCeqfj5I+P0QvYGb2HGCoxmISERzSkCBjTrReTK/hQuM/lYKjeRIl5PGZIbUtrEV7WBk71gFRr4RO0mrQxJSM/y2inCLQgQ1ykPuOndfpughkRICzufiYorC4FoFhn5C+n2KWWEC10Ah7KVDFB68ezXgITXGnGz0rpZaQ8ti2h6cmDLT73xEFDHp6+KN9nnNcIKSijHtBMBOPuY+vH4Gn/f1IhtLLpGzPKLiSspGEW1KXfPfr+eUgW2WyMSaOwl4/eJD0yhpkC16SJzeZIGYRyn5vfoRs3oeE+qNEaN31uv5GwrxLj/JPZsYPQN5vB02kJQ==","691f8ca61c6b4dcbb0aeb5f4","691fb05925b4fae95aaec28a","index1","<span style='color:red'>Fail,<span style='color:red'>Fail,<span style='color:green'>Lift,<span style='color:green'>Lift,<span style='color:red'>Fail,<span style='color:red'>Fail,<span style='color:red'>Fail,<span style='color:red'>Fail,<span style='color:green'>Lift,<span style='color:red'>Fail,<span style='color:red'>Fail,<span style='color:green'>Lift","<span style='color:red'>Fail,<span style='color:red'>Fail,<span style='color:green'>Lift,<span style='color:green'>Lift,<span style='color:green'>Lift,<span style='color:green'>Lift,<span style='color:red'>Fail,<span style='color:green'>Lift,<span style='color:green'>Lift,<span style='color:green'>Lift,<span style='color:red'>Fail,<span style='color:green'>Lift","<span style='color:red'>Fail,<span style='color:green'>Lift,<span style='color:green'>Lift,<span style='color:red'>Fail,<span style='color:green'>Lift,<span style='color:green'>Lift","0,0,1,1,0,0,0,0,1,0,0,1","0,0,1,1,1,1,0,1,1,1,0,1","0,1,1,0,1,1",10,20,20,"","","","","{""Q0"":""It consists of multiple contests, each contest with three rounds."",""Q1"":""When a new contest begins."",""Q2"":""The box weight always stays the same (equivalent to strength of 5)."",""Q3"":""Each will get $20."",""Q4"":""How close my guesses are to the actual outcome.""}","[0,1,2,3,4]",NA,"",NA,NA,NA,NA,NA,NA,NA,NA,NA,NA,NA,NA,NA,NA,NA,NA,NA,NA,NA,NA,NA,NA,NA,NA,NA,NA,NA,NA,NA,NA,NA,NA,NA,NA,NA,NA,NA,NA,NA,"",NA,NA,NA,NA,NA,NA,NA,NA,NA,2025-11-21 00:30:18
"8874.59999999404","https://psyc-201.github.io/xiang2023/exp/index1.html?PROLIFIC_PID=REDACTED&STUDY_ID=691f8ca61c6b4dcbb0aeb5f4&SESSION_ID=691fb05925b4fae95aaec28a","instructions",5,231778,"0.0-305.0","DEn0A5Af3MB2TBIaiPFNCeqfj5I+P0QvYGb2HGCoxmISERzSkCBjTrReTK/hQuM/lYKjeRIl5PGZIbUtrEV7WBk71gFRr4RO0mrQxJSM/y2inCLQgQ1ykPuOndfpughkRICzufiYorC4FoFhn5C+n2KWWEC10Ah7KVDFB68ezXgITXGnGz0rpZaQ8ti2h6cmDLT73xEFDHp6+KN9nnNcIKSijHtBMBOPuY+vH4Gn/f1IhtLLpGzPKLiSspGEW1KXfPfr+eUgW2WyMSaOwl4/eJD0yhpkC16SJzeZIGYRyn5vfoRs3oeE+qNEaN31uv5GwrxLj/JPZsYPQN5vB02kJQ==","691f8ca61c6b4dcbb0aeb5f4","691fb05925b4fae95aaec28a","index1","<span style='color:red'>Fail,<span style='color:red'>Fail,<span style='color:green'>Lift,<span style='color:green'>Lift,<span style='color:red'>Fail,<span style='color:red'>Fail,<span style='color:red'>Fail,<span style='color:red'>Fail,<span style='color:green'>Lift,<span style='color:red'>Fail,<span style='color:red'>Fail,<span style='color:green'>Lift","<span style='color:red'>Fail,<span style='color:red'>Fail,<span style='color:green'>Lift,<span style='color:green'>Lift,<span style='color:green'>Lift,<span style='color:green'>Lift,<span style='color:red'>Fail,<span style='color:green'>Lift,<span style='color:green'>Lift,<span style='color:green'>Lift,<span style='color:red'>Fail,<span style='color:green'>Lift","<span style='color:red'>Fail,<span style='color:green'>Lift,<span style='color:green'>Lift,<span style='color:red'>Fail,<span style='color:green'>Lift,<span style='color:green'>Lift","0,0,1,1,0,0,0,0,1,0,0,1","0,0,1,1,1,1,0,1,1,1,0,1","0,1,1,0,1,1",10,20,20,"","[{""page_index"":0,""viewing_time"":4625.5},{""page_index"":1,""viewing_time"":4249}]","","","","",NA,"",NA,NA,NA,NA,NA,NA,NA,NA,NA,NA,NA,NA,NA,NA,NA,NA,NA,NA,NA,NA,NA,NA,NA,NA,NA,NA,NA,NA,NA,NA,NA,NA,NA,NA,NA,NA,NA,NA,NA,"",NA,NA,NA,NA,NA,NA,NA,NA,NA,2025-11-21 00:30:18
"null","https://psyc-201.github.io/xiang2023/exp/index1.html?PROLIFIC_PID=REDACTED&STUDY_ID=691f8ca61c6b4dcbb0aeb5f4&SESSION_ID=691fb05925b4fae95aaec28a","html-keyboard-response",6,232780,"0.0-306.0","DEn0A5Af3MB2TBIaiPFNCeqfj5I+P0QvYGb2HGCoxmISERzSkCBjTrReTK/hQuM/lYKjeRIl5PGZIbUtrEV7WBk71gFRr4RO0mrQxJSM/y2inCLQgQ1ykPuOndfpughkRICzufiYorC4FoFhn5C+n2KWWEC10Ah7KVDFB68ezXgITXGnGz0rpZaQ8ti2h6cmDLT73xEFDHp6+KN9nnNcIKSijHtBMBOPuY+vH4Gn/f1IhtLLpGzPKLiSspGEW1KXfPfr+eUgW2WyMSaOwl4/eJD0yhpkC16SJzeZIGYRyn5vfoRs3oeE+qNEaN31uv5GwrxLj/JPZsYPQN5vB02kJQ==","691f8ca61c6b4dcbb0aeb5f4","691fb05925b4fae95aaec28a","index1","<span style='color:red'>Fail,<span style='color:red'>Fail,<span style='color:green'>Lift,<span style='color:green'>Lift,<span style='color:red'>Fail,<span style='color:red'>Fail,<span style='color:red'>Fail,<span style='color:red'>Fail,<span style='color:green'>Lift,<span style='color:red'>Fail,<span style='color:red'>Fail,<span style='color:green'>Lift","<span style='color:red'>Fail,<span style='color:red'>Fail,<span style='color:green'>Lift,<span style='color:green'>Lift,<span style='color:green'>Lift,<span style='color:green'>Lift,<span style='color:red'>Fail,<span style='color:green'>Lift,<span style='color:green'>Lift,<span style='color:green'>Lift,<span style='color:red'>Fail,<span style='color:green'>Lift","<span style='color:red'>Fail,<span style='color:green'>Lift,<span style='color:green'>Lift,<span style='color:red'>Fail,<span style='color:green'>Lift,<span style='color:green'>Lift","0,0,1,1,0,0,0,0,1,0,0,1","0,0,1,1,1,1,0,1,1,1,0,1","0,1,1,0,1,1",10,20,20,"",""," ","null","","",1,"",NA,NA,NA,NA,NA,NA,NA,NA,NA,NA,NA,NA,NA,NA,NA,NA,NA,NA,NA,NA,NA,NA,NA,NA,NA,NA,NA,NA,NA,NA,NA,NA,NA,NA,NA,NA,NA,NA,NA,"",NA,NA,NA,NA,NA,NA,NA,NA,NA,2025-11-21 00:30:18
"null","https://psyc-201.github.io/xiang2023/exp/index1.html?PROLIFIC_PID=REDACTED&STUDY_ID=691f8ca61c6b4dcbb0aeb5f4&SESSION_ID=691fb05925b4fae95aaec28a","html-keyboard-response",7,235784,"0.0-307.0","DEn0A5Af3MB2TBIaiPFNCeqfj5I+P0QvYGb2HGCoxmISERzSkCBjTrReTK/hQuM/lYKjeRIl5PGZIbUtrEV7WBk71gFRr4RO0mrQxJSM/y2inCLQgQ1ykPuOndfpughkRICzufiYorC4FoFhn5C+n2KWWEC10Ah7KVDFB68ezXgITXGnGz0rpZaQ8ti2h6cmDLT73xEFDHp6+KN9nnNcIKSijHtBMBOPuY+vH4Gn/f1IhtLLpGzPKLiSspGEW1KXfPfr+eUgW2WyMSaOwl4/eJD0yhpkC16SJzeZIGYRyn5vfoRs3oeE+qNEaN31uv5GwrxLj/JPZsYPQN5vB02kJQ==","691f8ca61c6b4dcbb0aeb5f4","691fb05925b4fae95aaec28a","index1","<span style='color:red'>Fail,<span style='color:red'>Fail,<span style='color:green'>Lift,<span style='color:green'>Lift,<span style='color:red'>Fail,<span style='color:red'>Fail,<span style='color:red'>Fail,<span style='color:red'>Fail,<span style='color:green'>Lift,<span style='color:red'>Fail,<span style='color:red'>Fail,<span style='color:green'>Lift","<span style='color:red'>Fail,<span style='color:red'>Fail,<span style='color:green'>Lift,<span style='color:green'>Lift,<span style='color:green'>Lift,<span style='color:green'>Lift,<span style='color:red'>Fail,<span style='color:green'>Lift,<span style='color:green'>Lift,<span style='color:green'>Lift,<span style='color:red'>Fail,<span style='color:green'>Lift","<span style='color:red'>Fail,<span style='color:green'>Lift,<span style='color:green'>Lift,<span style='color:red'>Fail,<span style='color:green'>Lift,<span style='color:green'>Lift","0,0,1,1,0,0,0,0,1,0,0,1","0,0,1,1,1,1,0,1,1,1,0,1","0,1,1,0,1,1",10,20,20,"","","<p style='font-size:30px'><b> New Contest! </b></p>","null","","",1,"",NA,NA,NA,NA,NA,NA,NA,NA,NA,NA,NA,NA,NA,NA,NA,NA,NA,NA,NA,NA,NA,NA,NA,NA,NA,NA,NA,NA,NA,NA,NA,NA,NA,NA,NA,NA,NA,NA,NA,"",NA,NA,NA,NA,NA,NA,NA,NA,NA,2025-11-21 00:30:18
"15728.39999999851","https://psyc-201.github.io/xiang2023/exp/index1.html?PROLIFIC_PID=REDACTED&STUDY_ID=691f8ca61c6b4dcbb0aeb5f4&SESSION_ID=691fb05925b4fae95aaec28a","survey-html-form",8,251516,"0.0-308.0","DEn0A5Af3MB2TBIaiPFNCeqfj5I+P0QvYGb2HGCoxmISERzSkCBjTrReTK/hQuM/lYKjeRIl5PGZIbUtrEV7WBk71gFRr4RO0mrQxJSM/y2inCLQgQ1ykPuOndfpughkRICzufiYorC4FoFhn5C+n2KWWEC10Ah7KVDFB68ezXgITXGnGz0rpZaQ8ti2h6cmDLT73xEFDHp6+KN9nnNcIKSijHtBMBOPuY+vH4Gn/f1IhtLLpGzPKLiSspGEW1KXfPfr+eUgW2WyMSaOwl4/eJD0yhpkC16SJzeZIGYRyn5vfoRs3oeE+qNEaN31uv5GwrxLj/JPZsYPQN5vB02kJQ==","691f8ca61c6b4dcbb0aeb5f4","691fb05925b4fae95aaec28a","index1","<span style='color:red'>Fail,<span style='color:red'>Fail,<span style='color:green'>Lift,<span style='color:green'>Lift,<span style='color:red'>Fail,<span style='color:red'>Fail,<span style='color:red'>Fail,<span style='color:red'>Fail,<span style='color:green'>Lift,<span style='color:red'>Fail,<span style='color:red'>Fail,<span style='color:green'>Lift","<span style='color:red'>Fail,<span style='color:red'>Fail,<span style='color:green'>Lift,<span style='color:green'>Lift,<span style='color:green'>Lift,<span style='color:green'>Lift,<span style='color:red'>Fail,<span style='color:green'>Lift,<span style='color:green'>Lift,<span style='color:green'>Lift,<span style='color:red'>Fail,<span style='color:green'>Lift","<span style='color:red'>Fail,<span style='color:green'>Lift,<span style='color:green'>Lift,<span style='color:red'>Fail,<span style='color:green'>Lift,<span style='color:green'>Lift","0,0,1,1,0,0,0,0,1,0,0,1","0,0,1,1,1,1,0,1,1,1,0,1","0,1,1,0,1,1",10,20,20,"","","","","{""box1"":""3"",""box2"":""3""}","",1,"round1_outcome",1,1,1,3,3,NA,NA,0,0,10,3,3,NA,NA,0,0,10,NA,NA,NA,NA,NA,NA,NA,NA,NA,NA,NA,NA,NA,NA,NA,NA,NA,NA,NA,NA,NA,NA,"",NA,NA,NA,NA,NA,NA,NA,NA,NA,2025-11-21 00:30:18
"7378.5","https://psyc-201.github.io/xiang2023/exp/index1.html?PROLIFIC_PID=REDACTED&STUDY_ID=691f8ca61c6b4dcbb0aeb5f4&SESSION_ID=691fb05925b4fae95aaec28a","survey-html-form",9,258897,"0.0-309.0","DEn0A5Af3MB2TBIaiPFNCeqfj5I+P0QvYGb2HGCoxmISERzSkCBjTrReTK/hQuM/lYKjeRIl5PGZIbUtrEV7WBk71gFRr4RO0mrQxJSM/y2inCLQgQ1ykPuOndfpughkRICzufiYorC4FoFhn5C+n2KWWEC10Ah7KVDFB68ezXgITXGnGz0rpZaQ8ti2h6cmDLT73xEFDHp6+KN9nnNcIKSijHtBMBOPuY+vH4Gn/f1IhtLLpGzPKLiSspGEW1KXfPfr+eUgW2WyMSaOwl4/eJD0yhpkC16SJzeZIGYRyn5vfoRs3oeE+qNEaN31uv5GwrxLj/JPZsYPQN5vB02kJQ==","691f8ca61c6b4dcbb0aeb5f4","691fb05925b4fae95aaec28a","index1","<span style='color:red'>Fail,<span style='color:red'>Fail,<span style='color:green'>Lift,<span style='color:green'>Lift,<span style='color:red'>Fail,<span style='color:red'>Fail,<span style='color:red'>Fail,<span style='color:red'>Fail,<span style='color:green'>Lift,<span style='color:red'>Fail,<span style='color:red'>Fail,<span style='color:green'>Lift","<span style='color:red'>Fail,<span style='color:red'>Fail,<span style='color:green'>Lift,<span style='color:green'>Lift,<span style='color:green'>Lift,<span style='color:green'>Lift,<span style='color:red'>Fail,<span style='color:green'>Lift,<span style='color:green'>Lift,<span style='color:green'>Lift,<span style='color:red'>Fail,<span style='color:green'>Lift","<span style='color:red'>Fail,<span style='color:green'>Lift,<span style='color:green'>Lift,<span style='color:red'>Fail,<span style='color:green'>Lift,<span style='color:green'>Lift","0,0,1,1,0,0,0,0,1,0,0,1","0,0,1,1,1,1,0,1,1,1,0,1","0,1,1,0,1,1",10,20,20,"","","","","{""box1"":""50"",""box2"":""50""}","",1,"round2_ready",2,1,2,NA,NA,NA,NA,NA,NA,NA,NA,NA,NA,NA,NA,NA,NA,50,50,50,50,NA,NA,NA,NA,NA,NA,NA,NA,NA,NA,NA,NA,NA,NA,NA,NA,NA,NA,"",NA,NA,NA,NA,NA,NA,NA,NA,NA,2025-11-21 00:30:18
"26164.5","https://psyc-201.github.io/xiang2023/exp/index1.html?PROLIFIC_PID=REDACTED&STUDY_ID=691f8ca61c6b4dcbb0aeb5f4&SESSION_ID=691fb05925b4fae95aaec28a","survey-html-form",10,285063,"0.0-310.0","DEn0A5Af3MB2TBIaiPFNCeqfj5I+P0QvYGb2HGCoxmISERzSkCBjTrReTK/hQuM/lYKjeRIl5PGZIbUtrEV7WBk71gFRr4RO0mrQxJSM/y2inCLQgQ1ykPuOndfpughkRICzufiYorC4FoFhn5C+n2KWWEC10Ah7KVDFB68ezXgITXGnGz0rpZaQ8ti2h6cmDLT73xEFDHp6+KN9nnNcIKSijHtBMBOPuY+vH4Gn/f1IhtLLpGzPKLiSspGEW1KXfPfr+eUgW2WyMSaOwl4/eJD0yhpkC16SJzeZIGYRyn5vfoRs3oeE+qNEaN31uv5GwrxLj/JPZsYPQN5vB02kJQ==","691f8ca61c6b4dcbb0aeb5f4","691fb05925b4fae95aaec28a","index1","<span style='color:red'>Fail,<span style='color:red'>Fail,<span style='color:green'>Lift,<span style='color:green'>Lift,<span style='color:red'>Fail,<span style='color:red'>Fail,<span style='color:red'>Fail,<span style='color:red'>Fail,<span style='color:green'>Lift,<span style='color:red'>Fail,<span style='color:red'>Fail,<span style='color:green'>Lift","<span style='color:red'>Fail,<span style='color:red'>Fail,<span style='color:green'>Lift,<span style='color:green'>Lift,<span style='color:green'>Lift,<span style='color:green'>Lift,<span style='color:red'>Fail,<span style='color:green'>Lift,<span style='color:green'>Lift,<span style='color:green'>Lift,<span style='color:red'>Fail,<span style='color:green'>Lift","<span style='color:red'>Fail,<span style='color:green'>Lift,<span style='color:green'>Lift,<span style='color:red'>Fail,<span style='color:green'>Lift,<span style='color:green'>Lift","0,0,1,1,0,0,0,0,1,0,0,1","0,0,1,1,1,1,0,1,1,1,0,1","0,1,1,0,1,1",10,20,20,"","","","","{""box1"":""7"",""box2"":""7"",""box3"":""75"",""box4"":""75""}","",1,"round2_outcome",3,1,2,7,7,75,75,1,1,20,NA,NA,NA,NA,NA,NA,NA,NA,NA,NA,NA,7,7,75,75,1,1,20,NA,NA,NA,NA,NA,NA,NA,NA,NA,NA,NA,"",NA,NA,NA,NA,NA,NA,NA,NA,NA,2025-11-21 00:30:18
"4130.5","https://psyc-201.github.io/xiang2023/exp/index1.html?PROLIFIC_PID=REDACTED&STUDY_ID=691f8ca61c6b4dcbb0aeb5f4&SESSION_ID=691fb05925b4fae95aaec28a","survey-html-form",11,289196,"0.0-311.0","DEn0A5Af3MB2TBIaiPFNCeqfj5I+P0QvYGb2HGCoxmISERzSkCBjTrReTK/hQuM/lYKjeRIl5PGZIbUtrEV7WBk71gFRr4RO0mrQxJSM/y2inCLQgQ1ykPuOndfpughkRICzufiYorC4FoFhn5C+n2KWWEC10Ah7KVDFB68ezXgITXGnGz0rpZaQ8ti2h6cmDLT73xEFDHp6+KN9nnNcIKSijHtBMBOPuY+vH4Gn/f1IhtLLpGzPKLiSspGEW1KXfPfr+eUgW2WyMSaOwl4/eJD0yhpkC16SJzeZIGYRyn5vfoRs3oeE+qNEaN31uv5GwrxLj/JPZsYPQN5vB02kJQ==","691f8ca61c6b4dcbb0aeb5f4","691fb05925b4fae95aaec28a","index1","<span style='color:red'>Fail,<span style='color:red'>Fail,<span style='color:green'>Lift,<span style='color:green'>Lift,<span style='color:red'>Fail,<span style='color:red'>Fail,<span style='color:red'>Fail,<span style='color:red'>Fail,<span style='color:green'>Lift,<span style='color:red'>Fail,<span style='color:red'>Fail,<span style='color:green'>Lift","<span style='color:red'>Fail,<span style='color:red'>Fail,<span style='color:green'>Lift,<span style='color:green'>Lift,<span style='color:green'>Lift,<span style='color:green'>Lift,<span style='color:red'>Fail,<span style='color:green'>Lift,<span style='color:green'>Lift,<span style='color:green'>Lift,<span style='color:red'>Fail,<span style='color:green'>Lift","<span style='color:red'>Fail,<span style='color:green'>Lift,<span style='color:green'>Lift,<span style='color:red'>Fail,<span style='color:green'>Lift,<span style='color:green'>Lift","0,0,1,1,0,0,0,0,1,0,0,1","0,0,1,1,1,1,0,1,1,1,0,1","0,1,1,0,1,1",10,20,20,"","","","","{""box1"":""100""}","",1,"round3_ready",4,1,3,NA,NA,NA,NA,NA,NA,NA,NA,NA,NA,NA,NA,NA,NA,100,100,NA,NA,NA,NA,NA,NA,NA,NA,NA,100,100,NA,NA,NA,NA,NA,NA,NA,NA,NA,"",NA,NA,NA,NA,NA,NA,NA,NA,NA,2025-11-21 00:30:18
"9831.30000000447","https://psyc-201.github.io/xiang2023/exp/index1.html?PROLIFIC_PID=REDACTED&STUDY_ID=691f8ca61c6b4dcbb0aeb5f4&SESSION_ID=691fb05925b4fae95aaec28a","survey-html-form",12,299030,"0.0-312.0-0.0","DEn0A5Af3MB2TBIaiPFNCeqfj5I+P0QvYGb2HGCoxmISERzSkCBjTrReTK/hQuM/lYKjeRIl5PGZIbUtrEV7WBk71gFRr4RO0mrQxJSM/y2inCLQgQ1ykPuOndfpughkRICzufiYorC4FoFhn5C+n2KWWEC10Ah7KVDFB68ezXgITXGnGz0rpZaQ8ti2h6cmDLT73xEFDHp6+KN9nnNcIKSijHtBMBOPuY+vH4Gn/f1IhtLLpGzPKLiSspGEW1KXfPfr+eUgW2WyMSaOwl4/eJD0yhpkC16SJzeZIGYRyn5vfoRs3oeE+qNEaN31uv5GwrxLj/JPZsYPQN5vB02kJQ==","691f8ca61c6b4dcbb0aeb5f4","691fb05925b4fae95aaec28a","index1","<span style='color:red'>Fail,<span style='color:red'>Fail,<span style='color:green'>Lift,<span style='color:green'>Lift,<span style='color:red'>Fail,<span style='color:red'>Fail,<span style='color:red'>Fail,<span style='color:red'>Fail,<span style='color:green'>Lift,<span style='color:red'>Fail,<span style='color:red'>Fail,<span style='color:green'>Lift","<span style='color:red'>Fail,<span style='color:red'>Fail,<span style='color:green'>Lift,<span style='color:green'>Lift,<span style='color:green'>Lift,<span style='color:green'>Lift,<span style='color:red'>Fail,<span style='color:green'>Lift,<span style='color:green'>Lift,<span style='color:green'>Lift,<span style='color:red'>Fail,<span style='color:green'>Lift","<span style='color:red'>Fail,<span style='color:green'>Lift,<span style='color:green'>Lift,<span style='color:red'>Fail,<span style='color:green'>Lift,<span style='color:green'>Lift","0,0,1,1,0,0,0,0,1,0,0,1","0,0,1,1,1,1,0,1,1,1,0,1","0,1,1,0,1,1",10,20,20,"","","","","{""box1"":""7"",""box2"":""7"",""box3"":""50"",""box4"":""50""}","",2,"round3_lift",5,1,3,7,7,50,50,1,1,20,NA,NA,NA,NA,NA,NA,NA,NA,NA,NA,NA,NA,NA,NA,NA,NA,NA,NA,NA,NA,7,7,50,50,1,1,20,NA,NA,"",NA,NA,NA,NA,NA,NA,NA,NA,NA,2025-11-21 00:30:18
"null","https://psyc-201.github.io/xiang2023/exp/index1.html?PROLIFIC_PID=REDACTED&STUDY_ID=691f8ca61c6b4dcbb0aeb5f4&SESSION_ID=691fb05925b4fae95aaec28a","html-keyboard-response",13,302034,"0.0-316.0","DEn0A5Af3MB2TBIaiPFNCeqfj5I+P0QvYGb2HGCoxmISERzSkCBjTrReTK/hQuM/lYKjeRIl5PGZIbUtrEV7WBk71gFRr4RO0mrQxJSM/y2inCLQgQ1ykPuOndfpughkRICzufiYorC4FoFhn5C+n2KWWEC10Ah7KVDFB68ezXgITXGnGz0rpZaQ8ti2h6cmDLT73xEFDHp6+KN9nnNcIKSijHtBMBOPuY+vH4Gn/f1IhtLLpGzPKLiSspGEW1KXfPfr+eUgW2WyMSaOwl4/eJD0yhpkC16SJzeZIGYRyn5vfoRs3oeE+qNEaN31uv5GwrxLj/JPZsYPQN5vB02kJQ==","691f8ca61c6b4dcbb0aeb5f4","691fb05925b4fae95aaec28a","index1","<span style='color:red'>Fail,<span style='color:red'>Fail,<span style='color:green'>Lift,<span style='color:green'>Lift,<span style='color:red'>Fail,<span style='color:red'>Fail,<span style='color:red'>Fail,<span style='color:red'>Fail,<span style='color:green'>Lift,<span style='color:red'>Fail,<span style='color:red'>Fail,<span style='color:green'>Lift","<span style='color:red'>Fail,<span style='color:red'>Fail,<span style='color:green'>Lift,<span style='color:green'>Lift,<span style='color:green'>Lift,<span style='color:green'>Lift,<span style='color:red'>Fail,<span style='color:green'>Lift,<span style='color:green'>Lift,<span style='color:green'>Lift,<span style='color:red'>Fail,<span style='color:green'>Lift","<span style='color:red'>Fail,<span style='color:green'>Lift,<span style='color:green'>Lift,<span style='color:red'>Fail,<span style='color:green'>Lift,<span style='color:green'>Lift","0,0,1,1,0,0,0,0,1,0,0,1","0,0,1,1,1,1,0,1,1,1,0,1","0,1,1,0,1,1",10,20,20,"","","<p style='font-size:30px'><b> New Contest! </b></p>","null","","",2,"",NA,NA,NA,NA,NA,NA,NA,NA,NA,NA,NA,NA,NA,NA,NA,NA,NA,NA,NA,NA,NA,NA,NA,NA,NA,NA,NA,NA,NA,NA,NA,NA,NA,NA,NA,NA,NA,NA,NA,"",NA,NA,NA,NA,NA,NA,NA,NA,NA,2025-11-21 00:30:18
"16628.39999999851","https://psyc-201.github.io/xiang2023/exp/index1.html?PROLIFIC_PID=REDACTED&STUDY_ID=691f8ca61c6b4dcbb0aeb5f4&SESSION_ID=691fb05925b4fae95aaec28a","survey-html-form",14,318664,"0.0-317.0","DEn0A5Af3MB2TBIaiPFNCeqfj5I+P0QvYGb2HGCoxmISERzSkCBjTrReTK/hQuM/lYKjeRIl5PGZIbUtrEV7WBk71gFRr4RO0mrQxJSM/y2inCLQgQ1ykPuOndfpughkRICzufiYorC4FoFhn5C+n2KWWEC10Ah7KVDFB68ezXgITXGnGz0rpZaQ8ti2h6cmDLT73xEFDHp6+KN9nnNcIKSijHtBMBOPuY+vH4Gn/f1IhtLLpGzPKLiSspGEW1KXfPfr+eUgW2WyMSaOwl4/eJD0yhpkC16SJzeZIGYRyn5vfoRs3oeE+qNEaN31uv5GwrxLj/JPZsYPQN5vB02kJQ==","691f8ca61c6b4dcbb0aeb5f4","691fb05925b4fae95aaec28a","index1","<span style='color:red'>Fail,<span style='color:red'>Fail,<span style='color:green'>Lift,<span style='color:green'>Lift,<span style='color:red'>Fail,<span style='color:red'>Fail,<span style='color:red'>Fail,<span style='color:red'>Fail,<span style='color:green'>Lift,<span style='color:red'>Fail,<span style='color:red'>Fail,<span style='color:green'>Lift","<span style='color:red'>Fail,<span style='color:red'>Fail,<span style='color:green'>Lift,<span style='color:green'>Lift,<span style='color:green'>Lift,<span style='color:green'>Lift,<span style='color:red'>Fail,<span style='color:green'>Lift,<span style='color:green'>Lift,<span style='color:green'>Lift,<span style='color:red'>Fail,<span style='color:green'>Lift","<span style='color:red'>Fail,<span style='color:green'>Lift,<span style='color:green'>Lift,<span style='color:red'>Fail,<span style='color:green'>Lift,<span style='color:green'>Lift","0,0,1,1,0,0,0,0,1,0,0,1","0,0,1,1,1,1,0,1,1,1,0,1","0,1,1,0,1,1",10,20,20,"","","","","{""box1"":""7"",""box2"":""3"",""box3"":""80""}","",2,"round1_outcome",1,2,1,7,3,80,NA,1,0,10,7,3,80,NA,1,0,10,NA,NA,NA,NA,NA,NA,NA,NA,NA,NA,NA,NA,NA,NA,NA,NA,NA,NA,NA,NA,NA,NA,"",NA,NA,NA,NA,NA,NA,NA,NA,NA,2025-11-21 00:30:18
"6948.20000000298","https://psyc-201.github.io/xiang2023/exp/index1.html?PROLIFIC_PID=REDACTED&STUDY_ID=691f8ca61c6b4dcbb0aeb5f4&SESSION_ID=691fb05925b4fae95aaec28a","survey-html-form",15,325614,"0.0-318.0","DEn0A5Af3MB2TBIaiPFNCeqfj5I+P0QvYGb2HGCoxmISERzSkCBjTrReTK/hQuM/lYKjeRIl5PGZIbUtrEV7WBk71gFRr4RO0mrQxJSM/y2inCLQgQ1ykPuOndfpughkRICzufiYorC4FoFhn5C+n2KWWEC10Ah7KVDFB68ezXgITXGnGz0rpZaQ8ti2h6cmDLT73xEFDHp6+KN9nnNcIKSijHtBMBOPuY+vH4Gn/f1IhtLLpGzPKLiSspGEW1KXfPfr+eUgW2WyMSaOwl4/eJD0yhpkC16SJzeZIGYRyn5vfoRs3oeE+qNEaN31uv5GwrxLj/JPZsYPQN5vB02kJQ==","691f8ca61c6b4dcbb0aeb5f4","691fb05925b4fae95aaec28a","index1","<span style='color:red'>Fail,<span style='color:red'>Fail,<span style='color:green'>Lift,<span style='color:green'>Lift,<span style='color:red'>Fail,<span style='color:red'>Fail,<span style='color:red'>Fail,<span style='color:red'>Fail,<span style='color:green'>Lift,<span style='color:red'>Fail,<span style='color:red'>Fail,<span style='color:green'>Lift","<span style='color:red'>Fail,<span style='color:red'>Fail,<span style='color:green'>Lift,<span style='color:green'>Lift,<span style='color:green'>Lift,<span style='color:green'>Lift,<span style='color:red'>Fail,<span style='color:green'>Lift,<span style='color:green'>Lift,<span style='color:green'>Lift,<span style='color:red'>Fail,<span style='color:green'>Lift","<span style='color:red'>Fail,<span style='color:green'>Lift,<span style='color:green'>Lift,<span style='color:red'>Fail,<span style='color:green'>Lift,<span style='color:green'>Lift","0,0,1,1,0,0,0,0,1,0,0,1","0,0,1,1,1,1,0,1,1,1,0,1","0,1,1,0,1,1",10,20,20,"","","","","{""box1"":""100"",""box2"":""75""}","",2,"round2_ready",2,2,2,NA,NA,NA,NA,NA,NA,NA,NA,NA,NA,NA,NA,NA,NA,100,75,100,75,NA,NA,NA,NA,NA,NA,NA,NA,NA,NA,NA,NA,NA,NA,NA,NA,NA,NA,"",NA,NA,NA,NA,NA,NA,NA,NA,NA,2025-11-21 00:30:18
"17147.20000000298","https://psyc-201.github.io/xiang2023/exp/index1.html?PROLIFIC_PID=REDACTED&STUDY_ID=691f8ca61c6b4dcbb0aeb5f4&SESSION_ID=691fb05925b4fae95aaec28a","survey-html-form",16,342764,"0.0-319.0","DEn0A5Af3MB2TBIaiPFNCeqfj5I+P0QvYGb2HGCoxmISERzSkCBjTrReTK/hQuM/lYKjeRIl5PGZIbUtrEV7WBk71gFRr4RO0mrQxJSM/y2inCLQgQ1ykPuOndfpughkRICzufiYorC4FoFhn5C+n2KWWEC10Ah7KVDFB68ezXgITXGnGz0rpZaQ8ti2h6cmDLT73xEFDHp6+KN9nnNcIKSijHtBMBOPuY+vH4Gn/f1IhtLLpGzPKLiSspGEW1KXfPfr+eUgW2WyMSaOwl4/eJD0yhpkC16SJzeZIGYRyn5vfoRs3oeE+qNEaN31uv5GwrxLj/JPZsYPQN5vB02kJQ==","691f8ca61c6b4dcbb0aeb5f4","691fb05925b4fae95aaec28a","index1","<span style='color:red'>Fail,<span style='color:red'>Fail,<span style='color:green'>Lift,<span style='color:green'>Lift,<span style='color:red'>Fail,<span style='color:red'>Fail,<span style='color:red'>Fail,<span style='color:red'>Fail,<span style='color:green'>Lift,<span style='color:red'>Fail,<span style='color:red'>Fail,<span style='color:green'>Lift","<span style='color:red'>Fail,<span style='color:red'>Fail,<span style='color:green'>Lift,<span style='color:green'>Lift,<span style='color:green'>Lift,<span style='color:green'>Lift,<span style='color:red'>Fail,<span style='color:green'>Lift,<span style='color:green'>Lift,<span style='color:green'>Lift,<span style='color:red'>Fail,<span style='color:green'>Lift","<span style='color:red'>Fail,<span style='color:green'>Lift,<span style='color:green'>Lift,<span style='color:red'>Fail,<span style='color:green'>Lift,<span style='color:green'>Lift","0,0,1,1,0,0,0,0,1,0,0,1","0,0,1,1,1,1,0,1,1,1,0,1","0,1,1,0,1,1",10,20,20,"","","","","{""box1"":""7"",""box2"":""7"",""box3"":""80"",""box4"":""70""}","",2,"round2_outcome",3,2,2,7,7,80,70,1,1,20,NA,NA,NA,NA,NA,NA,NA,NA,NA,NA,NA,7,7,80,70,1,1,20,NA,NA,NA,NA,NA,NA,NA,NA,NA,NA,NA,"",NA,NA,NA,NA,NA,NA,NA,NA,NA,2025-11-21 00:30:18
"4397.10000000149","https://psyc-201.github.io/xiang2023/exp/index1.html?PROLIFIC_PID=REDACTED&STUDY_ID=691f8ca61c6b4dcbb0aeb5f4&SESSION_ID=691fb05925b4fae95aaec28a","survey-html-form",17,347163,"0.0-320.0","DEn0A5Af3MB2TBIaiPFNCeqfj5I+P0QvYGb2HGCoxmISERzSkCBjTrReTK/hQuM/lYKjeRIl5PGZIbUtrEV7WBk71gFRr4RO0mrQxJSM/y2inCLQgQ1ykPuOndfpughkRICzufiYorC4FoFhn5C+n2KWWEC10Ah7KVDFB68ezXgITXGnGz0rpZaQ8ti2h6cmDLT73xEFDHp6+KN9nnNcIKSijHtBMBOPuY+vH4Gn/f1IhtLLpGzPKLiSspGEW1KXfPfr+eUgW2WyMSaOwl4/eJD0yhpkC16SJzeZIGYRyn5vfoRs3oeE+qNEaN31uv5GwrxLj/JPZsYPQN5vB02kJQ==","691f8ca61c6b4dcbb0aeb5f4","691fb05925b4fae95aaec28a","index1","<span style='color:red'>Fail,<span style='color:red'>Fail,<span style='color:green'>Lift,<span style='color:green'>Lift,<span style='color:red'>Fail,<span style='color:red'>Fail,<span style='color:red'>Fail,<span style='color:red'>Fail,<span style='color:green'>Lift,<span style='color:red'>Fail,<span style='color:red'>Fail,<span style='color:green'>Lift","<span style='color:red'>Fail,<span style='color:red'>Fail,<span style='color:green'>Lift,<span style='color:green'>Lift,<span style='color:green'>Lift,<span style='color:green'>Lift,<span style='color:red'>Fail,<span style='color:green'>Lift,<span style='color:green'>Lift,<span style='color:green'>Lift,<span style='color:red'>Fail,<span style='color:green'>Lift","<span style='color:red'>Fail,<span style='color:green'>Lift,<span style='color:green'>Lift,<span style='color:red'>Fail,<span style='color:green'>Lift,<span style='color:green'>Lift","0,0,1,1,0,0,0,0,1,0,0,1","0,0,1,1,1,1,0,1,1,1,0,1","0,1,1,0,1,1",10,20,20,"","","","","{""box1"":""100""}","",2,"round3_ready",4,2,3,NA,NA,NA,NA,NA,NA,NA,NA,NA,NA,NA,NA,NA,NA,100,100,NA,NA,NA,NA,NA,NA,NA,NA,NA,100,100,NA,NA,NA,NA,NA,NA,NA,NA,NA,"",NA,NA,NA,NA,NA,NA,NA,NA,NA,2025-11-21 00:30:18
"7981.39999999851","https://psyc-201.github.io/xiang2023/exp/index1.html?PROLIFIC_PID=REDACTED&STUDY_ID=691f8ca61c6b4dcbb0aeb5f4&SESSION_ID=691fb05925b4fae95aaec28a","survey-html-form",18,355146,"0.0-321.0-0.0","DEn0A5Af3MB2TBIaiPFNCeqfj5I+P0QvYGb2HGCoxmISERzSkCBjTrReTK/hQuM/lYKjeRIl5PGZIbUtrEV7WBk71gFRr4RO0mrQxJSM/y2inCLQgQ1ykPuOndfpughkRICzufiYorC4FoFhn5C+n2KWWEC10Ah7KVDFB68ezXgITXGnGz0rpZaQ8ti2h6cmDLT73xEFDHp6+KN9nnNcIKSijHtBMBOPuY+vH4Gn/f1IhtLLpGzPKLiSspGEW1KXfPfr+eUgW2WyMSaOwl4/eJD0yhpkC16SJzeZIGYRyn5vfoRs3oeE+qNEaN31uv5GwrxLj/JPZsYPQN5vB02kJQ==","691f8ca61c6b4dcbb0aeb5f4","691fb05925b4fae95aaec28a","index1","<span style='color:red'>Fail,<span style='color:red'>Fail,<span style='color:green'>Lift,<span style='color:green'>Lift,<span style='color:red'>Fail,<span style='color:red'>Fail,<span style='color:red'>Fail,<span style='color:red'>Fail,<span style='color:green'>Lift,<span style='color:red'>Fail,<span style='color:red'>Fail,<span style='color:green'>Lift","<span style='color:red'>Fail,<span style='color:red'>Fail,<span style='color:green'>Lift,<span style='color:green'>Lift,<span style='color:green'>Lift,<span style='color:green'>Lift,<span style='color:red'>Fail,<span style='color:green'>Lift,<span style='color:green'>Lift,<span style='color:green'>Lift,<span style='color:red'>Fail,<span style='color:green'>Lift","<span style='color:red'>Fail,<span style='color:green'>Lift,<span style='color:green'>Lift,<span style='color:red'>Fail,<span style='color:green'>Lift,<span style='color:green'>Lift","0,0,1,1,0,0,0,0,1,0,0,1","0,0,1,1,1,1,0,1,1,1,0,1","0,1,1,0,1,1",10,20,20,"","","","","{""box1"":""7"",""box2"":""8"",""box3"":""50"",""box4"":""50""}","",3,"round3_lift",5,2,3,7,8,50,50,1,1,20,NA,NA,NA,NA,NA,NA,NA,NA,NA,NA,NA,NA,NA,NA,NA,NA,NA,NA,NA,NA,7,8,50,50,1,1,20,NA,NA,"",NA,NA,NA,NA,NA,NA,NA,NA,NA,2025-11-21 00:30:18
"null","https://psyc-201.github.io/xiang2023/exp/index1.html?PROLIFIC_PID=REDACTED&STUDY_ID=691f8ca61c6b4dcbb0aeb5f4&SESSION_ID=691fb05925b4fae95aaec28a","html-keyboard-response",19,358149,"0.0-325.0","DEn0A5Af3MB2TBIaiPFNCeqfj5I+P0QvYGb2HGCoxmISERzSkCBjTrReTK/hQuM/lYKjeRIl5PGZIbUtrEV7WBk71gFRr4RO0mrQxJSM/y2inCLQgQ1ykPuOndfpughkRICzufiYorC4FoFhn5C+n2KWWEC10Ah7KVDFB68ezXgITXGnGz0rpZaQ8ti2h6cmDLT73xEFDHp6+KN9nnNcIKSijHtBMBOPuY+vH4Gn/f1IhtLLpGzPKLiSspGEW1KXfPfr+eUgW2WyMSaOwl4/eJD0yhpkC16SJzeZIGYRyn5vfoRs3oeE+qNEaN31uv5GwrxLj/JPZsYPQN5vB02kJQ==","691f8ca61c6b4dcbb0aeb5f4","691fb05925b4fae95aaec28a","index1","<span style='color:red'>Fail,<span style='color:red'>Fail,<span style='color:green'>Lift,<span style='color:green'>Lift,<span style='color:red'>Fail,<span style='color:red'>Fail,<span style='color:red'>Fail,<span style='color:red'>Fail,<span style='color:green'>Lift,<span style='color:red'>Fail,<span style='color:red'>Fail,<span style='color:green'>Lift","<span style='color:red'>Fail,<span style='color:red'>Fail,<span style='color:green'>Lift,<span style='color:green'>Lift,<span style='color:green'>Lift,<span style='color:green'>Lift,<span style='color:red'>Fail,<span style='color:green'>Lift,<span style='color:green'>Lift,<span style='color:green'>Lift,<span style='color:red'>Fail,<span style='color:green'>Lift","<span style='color:red'>Fail,<span style='color:green'>Lift,<span style='color:green'>Lift,<span style='color:red'>Fail,<span style='color:green'>Lift,<span style='color:green'>Lift","0,0,1,1,0,0,0,0,1,0,0,1","0,0,1,1,1,1,0,1,1,1,0,1","0,1,1,0,1,1",10,20,20,"","","<p style='font-size:30px'><b> New Contest! </b></p>","null","","",3,"",NA,NA,NA,NA,NA,NA,NA,NA,NA,NA,NA,NA,NA,NA,NA,NA,NA,NA,NA,NA,NA,NA,NA,NA,NA,NA,NA,NA,NA,NA,NA,NA,NA,NA,NA,NA,NA,NA,NA,"",NA,NA,NA,NA,NA,NA,NA,NA,NA,2025-11-21 00:30:18
"13495.29999999702","https://psyc-201.github.io/xiang2023/exp/index1.html?PROLIFIC_PID=REDACTED&STUDY_ID=691f8ca61c6b4dcbb0aeb5f4&SESSION_ID=691fb05925b4fae95aaec28a","survey-html-form",20,371647,"0.0-326.0","DEn0A5Af3MB2TBIaiPFNCeqfj5I+P0QvYGb2HGCoxmISERzSkCBjTrReTK/hQuM/lYKjeRIl5PGZIbUtrEV7WBk71gFRr4RO0mrQxJSM/y2inCLQgQ1ykPuOndfpughkRICzufiYorC4FoFhn5C+n2KWWEC10Ah7KVDFB68ezXgITXGnGz0rpZaQ8ti2h6cmDLT73xEFDHp6+KN9nnNcIKSijHtBMBOPuY+vH4Gn/f1IhtLLpGzPKLiSspGEW1KXfPfr+eUgW2WyMSaOwl4/eJD0yhpkC16SJzeZIGYRyn5vfoRs3oeE+qNEaN31uv5GwrxLj/JPZsYPQN5vB02kJQ==","691f8ca61c6b4dcbb0aeb5f4","691fb05925b4fae95aaec28a","index1","<span style='color:red'>Fail,<span style='color:red'>Fail,<span style='color:green'>Lift,<span style='color:green'>Lift,<span style='color:red'>Fail,<span style='color:red'>Fail,<span style='color:red'>Fail,<span style='color:red'>Fail,<span style='color:green'>Lift,<span style='color:red'>Fail,<span style='color:red'>Fail,<span style='color:green'>Lift","<span style='color:red'>Fail,<span style='color:red'>Fail,<span style='color:green'>Lift,<span style='color:green'>Lift,<span style='color:green'>Lift,<span style='color:green'>Lift,<span style='color:red'>Fail,<span style='color:green'>Lift,<span style='color:green'>Lift,<span style='color:green'>Lift,<span style='color:red'>Fail,<span style='color:green'>Lift","<span style='color:red'>Fail,<span style='color:green'>Lift,<span style='color:green'>Lift,<span style='color:red'>Fail,<span style='color:green'>Lift,<span style='color:green'>Lift","0,0,1,1,0,0,0,0,1,0,0,1","0,0,1,1,1,1,0,1,1,1,0,1","0,1,1,0,1,1",10,20,20,"","","","","{""box1"":""7"",""box2"":""7"",""box3"":""75"",""box4"":""75""}","",3,"round1_outcome",1,3,1,7,7,75,75,1,1,10,7,7,75,75,1,1,10,NA,NA,NA,NA,NA,NA,NA,NA,NA,NA,NA,NA,NA,NA,NA,NA,NA,NA,NA,NA,NA,NA,"",NA,NA,NA,NA,NA,NA,NA,NA,NA,2025-11-21 00:30:18
"6664","https://psyc-201.github.io/xiang2023/exp/index1.html?PROLIFIC_PID=REDACTED&STUDY_ID=691f8ca61c6b4dcbb0aeb5f4&SESSION_ID=691fb05925b4fae95aaec28a","survey-html-form",21,378312,"0.0-327.0","DEn0A5Af3MB2TBIaiPFNCeqfj5I+P0QvYGb2HGCoxmISERzSkCBjTrReTK/hQuM/lYKjeRIl5PGZIbUtrEV7WBk71gFRr4RO0mrQxJSM/y2inCLQgQ1ykPuOndfpughkRICzufiYorC4FoFhn5C+n2KWWEC10Ah7KVDFB68ezXgITXGnGz0rpZaQ8ti2h6cmDLT73xEFDHp6+KN9nnNcIKSijHtBMBOPuY+vH4Gn/f1IhtLLpGzPKLiSspGEW1KXfPfr+eUgW2WyMSaOwl4/eJD0yhpkC16SJzeZIGYRyn5vfoRs3oeE+qNEaN31uv5GwrxLj/JPZsYPQN5vB02kJQ==","691f8ca61c6b4dcbb0aeb5f4","691fb05925b4fae95aaec28a","index1","<span style='color:red'>Fail,<span style='color:red'>Fail,<span style='color:green'>Lift,<span style='color:green'>Lift,<span style='color:red'>Fail,<span style='color:red'>Fail,<span style='color:red'>Fail,<span style='color:red'>Fail,<span style='color:green'>Lift,<span style='color:red'>Fail,<span style='color:red'>Fail,<span style='color:green'>Lift","<span style='color:red'>Fail,<span style='color:red'>Fail,<span style='color:green'>Lift,<span style='color:green'>Lift,<span style='color:green'>Lift,<span style='color:green'>Lift,<span style='color:red'>Fail,<span style='color:green'>Lift,<span style='color:green'>Lift,<span style='color:green'>Lift,<span style='color:red'>Fail,<span style='color:green'>Lift","<span style='color:red'>Fail,<span style='color:green'>Lift,<span style='color:green'>Lift,<span style='color:red'>Fail,<span style='color:green'>Lift,<span style='color:green'>Lift","0,0,1,1,0,0,0,0,1,0,0,1","0,0,1,1,1,1,0,1,1,1,0,1","0,1,1,0,1,1",10,20,20,"","","","","{""box1"":""100"",""box2"":""100""}","",3,"round2_ready",2,3,2,NA,NA,NA,NA,NA,NA,NA,NA,NA,NA,NA,NA,NA,NA,100,100,100,100,NA,NA,NA,NA,NA,NA,NA,NA,NA,NA,NA,NA,NA,NA,NA,NA,NA,NA,"",NA,NA,NA,NA,NA,NA,NA,NA,NA,2025-11-21 00:30:18
"7266","https://psyc-201.github.io/xiang2023/exp/index1.html?PROLIFIC_PID=REDACTED&STUDY_ID=691f8ca61c6b4dcbb0aeb5f4&SESSION_ID=691fb05925b4fae95aaec28a","survey-html-form",22,385580,"0.0-328.0","DEn0A5Af3MB2TBIaiPFNCeqfj5I+P0QvYGb2HGCoxmISERzSkCBjTrReTK/hQuM/lYKjeRIl5PGZIbUtrEV7WBk71gFRr4RO0mrQxJSM/y2inCLQgQ1ykPuOndfpughkRICzufiYorC4FoFhn5C+n2KWWEC10Ah7KVDFB68ezXgITXGnGz0rpZaQ8ti2h6cmDLT73xEFDHp6+KN9nnNcIKSijHtBMBOPuY+vH4Gn/f1IhtLLpGzPKLiSspGEW1KXfPfr+eUgW2WyMSaOwl4/eJD0yhpkC16SJzeZIGYRyn5vfoRs3oeE+qNEaN31uv5GwrxLj/JPZsYPQN5vB02kJQ==","691f8ca61c6b4dcbb0aeb5f4","691fb05925b4fae95aaec28a","index1","<span style='color:red'>Fail,<span style='color:red'>Fail,<span style='color:green'>Lift,<span style='color:green'>Lift,<span style='color:red'>Fail,<span style='color:red'>Fail,<span style='color:red'>Fail,<span style='color:red'>Fail,<span style='color:green'>Lift,<span style='color:red'>Fail,<span style='color:red'>Fail,<span style='color:green'>Lift","<span style='color:red'>Fail,<span style='color:red'>Fail,<span style='color:green'>Lift,<span style='color:green'>Lift,<span style='color:green'>Lift,<span style='color:green'>Lift,<span style='color:red'>Fail,<span style='color:green'>Lift,<span style='color:green'>Lift,<span style='color:green'>Lift,<span style='color:red'>Fail,<span style='color:green'>Lift","<span style='color:red'>Fail,<span style='color:green'>Lift,<span style='color:green'>Lift,<span style='color:red'>Fail,<span style='color:green'>Lift,<span style='color:green'>Lift","0,0,1,1,0,0,0,0,1,0,0,1","0,0,1,1,1,1,0,1,1,1,0,1","0,1,1,0,1,1",10,20,20,"","","","","{""box1"":""7"",""box2"":""7"",""box3"":""80"",""box4"":""80""}","",3,"round2_outcome",3,3,2,7,7,80,80,1,1,20,NA,NA,NA,NA,NA,NA,NA,NA,NA,NA,NA,7,7,80,80,1,1,20,NA,NA,NA,NA,NA,NA,NA,NA,NA,NA,NA,"",NA,NA,NA,NA,NA,NA,NA,NA,NA,2025-11-21 00:30:18
"3163.60000000149","https://psyc-201.github.io/xiang2023/exp/index1.html?PROLIFIC_PID=REDACTED&STUDY_ID=691f8ca61c6b4dcbb0aeb5f4&SESSION_ID=691fb05925b4fae95aaec28a","survey-html-form",23,388746,"0.0-329.0","DEn0A5Af3MB2TBIaiPFNCeqfj5I+P0QvYGb2HGCoxmISERzSkCBjTrReTK/hQuM/lYKjeRIl5PGZIbUtrEV7WBk71gFRr4RO0mrQxJSM/y2inCLQgQ1ykPuOndfpughkRICzufiYorC4FoFhn5C+n2KWWEC10Ah7KVDFB68ezXgITXGnGz0rpZaQ8ti2h6cmDLT73xEFDHp6+KN9nnNcIKSijHtBMBOPuY+vH4Gn/f1IhtLLpGzPKLiSspGEW1KXfPfr+eUgW2WyMSaOwl4/eJD0yhpkC16SJzeZIGYRyn5vfoRs3oeE+qNEaN31uv5GwrxLj/JPZsYPQN5vB02kJQ==","691f8ca61c6b4dcbb0aeb5f4","691fb05925b4fae95aaec28a","index1","<span style='color:red'>Fail,<span style='color:red'>Fail,<span style='color:green'>Lift,<span style='color:green'>Lift,<span style='color:red'>Fail,<span style='color:red'>Fail,<span style='color:red'>Fail,<span style='color:red'>Fail,<span style='color:green'>Lift,<span style='color:red'>Fail,<span style='color:red'>Fail,<span style='color:green'>Lift","<span style='color:red'>Fail,<span style='color:red'>Fail,<span style='color:green'>Lift,<span style='color:green'>Lift,<span style='color:green'>Lift,<span style='color:green'>Lift,<span style='color:red'>Fail,<span style='color:green'>Lift,<span style='color:green'>Lift,<span style='color:green'>Lift,<span style='color:red'>Fail,<span style='color:green'>Lift","<span style='color:red'>Fail,<span style='color:green'>Lift,<span style='color:green'>Lift,<span style='color:red'>Fail,<span style='color:green'>Lift,<span style='color:green'>Lift","0,0,1,1,0,0,0,0,1,0,0,1","0,0,1,1,1,1,0,1,1,1,0,1","0,1,1,0,1,1",10,20,20,"","","","","{""box1"":""100""}","",3,"round3_ready",4,3,3,NA,NA,NA,NA,NA,NA,NA,NA,NA,NA,NA,NA,NA,NA,100,100,NA,NA,NA,NA,NA,NA,NA,NA,NA,100,100,NA,NA,NA,NA,NA,NA,NA,NA,NA,"",NA,NA,NA,NA,NA,NA,NA,NA,NA,2025-11-21 00:30:18
"6265.69999999553","https://psyc-201.github.io/xiang2023/exp/index1.html?PROLIFIC_PID=REDACTED&STUDY_ID=691f8ca61c6b4dcbb0aeb5f4&SESSION_ID=691fb05925b4fae95aaec28a","survey-html-form",24,395014,"0.0-330.0-0.0","DEn0A5Af3MB2TBIaiPFNCeqfj5I+P0QvYGb2HGCoxmISERzSkCBjTrReTK/hQuM/lYKjeRIl5PGZIbUtrEV7WBk71gFRr4RO0mrQxJSM/y2inCLQgQ1ykPuOndfpughkRICzufiYorC4FoFhn5C+n2KWWEC10Ah7KVDFB68ezXgITXGnGz0rpZaQ8ti2h6cmDLT73xEFDHp6+KN9nnNcIKSijHtBMBOPuY+vH4Gn/f1IhtLLpGzPKLiSspGEW1KXfPfr+eUgW2WyMSaOwl4/eJD0yhpkC16SJzeZIGYRyn5vfoRs3oeE+qNEaN31uv5GwrxLj/JPZsYPQN5vB02kJQ==","691f8ca61c6b4dcbb0aeb5f4","691fb05925b4fae95aaec28a","index1","<span style='color:red'>Fail,<span style='color:red'>Fail,<span style='color:green'>Lift,<span style='color:green'>Lift,<span style='color:red'>Fail,<span style='color:red'>Fail,<span style='color:red'>Fail,<span style='color:red'>Fail,<span style='color:green'>Lift,<span style='color:red'>Fail,<span style='color:red'>Fail,<span style='color:green'>Lift","<span style='color:red'>Fail,<span style='color:red'>Fail,<span style='color:green'>Lift,<span style='color:green'>Lift,<span style='color:green'>Lift,<span style='color:green'>Lift,<span style='color:red'>Fail,<span style='color:green'>Lift,<span style='color:green'>Lift,<span style='color:green'>Lift,<span style='color:red'>Fail,<span style='color:green'>Lift","<span style='color:red'>Fail,<span style='color:green'>Lift,<span style='color:green'>Lift,<span style='color:red'>Fail,<span style='color:green'>Lift,<span style='color:green'>Lift","0,0,1,1,0,0,0,0,1,0,0,1","0,0,1,1,1,1,0,1,1,1,0,1","0,1,1,0,1,1",10,20,20,"","","","","{""box1"":""7"",""box2"":""7"",""box3"":""50"",""box4"":""50""}","",4,"round3_lift",5,3,3,7,7,50,50,1,1,20,NA,NA,NA,NA,NA,NA,NA,NA,NA,NA,NA,NA,NA,NA,NA,NA,NA,NA,NA,NA,7,7,50,50,1,1,20,NA,NA,"",NA,NA,NA,NA,NA,NA,NA,NA,NA,2025-11-21 00:30:18
"null","https://psyc-201.github.io/xiang2023/exp/index1.html?PROLIFIC_PID=REDACTED&STUDY_ID=691f8ca61c6b4dcbb0aeb5f4&SESSION_ID=691fb05925b4fae95aaec28a","html-keyboard-response",25,398017,"0.0-334.0","DEn0A5Af3MB2TBIaiPFNCeqfj5I+P0QvYGb2HGCoxmISERzSkCBjTrReTK/hQuM/lYKjeRIl5PGZIbUtrEV7WBk71gFRr4RO0mrQxJSM/y2inCLQgQ1ykPuOndfpughkRICzufiYorC4FoFhn5C+n2KWWEC10Ah7KVDFB68ezXgITXGnGz0rpZaQ8ti2h6cmDLT73xEFDHp6+KN9nnNcIKSijHtBMBOPuY+vH4Gn/f1IhtLLpGzPKLiSspGEW1KXfPfr+eUgW2WyMSaOwl4/eJD0yhpkC16SJzeZIGYRyn5vfoRs3oeE+qNEaN31uv5GwrxLj/JPZsYPQN5vB02kJQ==","691f8ca61c6b4dcbb0aeb5f4","691fb05925b4fae95aaec28a","index1","<span style='color:red'>Fail,<span style='color:red'>Fail,<span style='color:green'>Lift,<span style='color:green'>Lift,<span style='color:red'>Fail,<span style='color:red'>Fail,<span style='color:red'>Fail,<span style='color:red'>Fail,<span style='color:green'>Lift,<span style='color:red'>Fail,<span style='color:red'>Fail,<span style='color:green'>Lift","<span style='color:red'>Fail,<span style='color:red'>Fail,<span style='color:green'>Lift,<span style='color:green'>Lift,<span style='color:green'>Lift,<span style='color:green'>Lift,<span style='color:red'>Fail,<span style='color:green'>Lift,<span style='color:green'>Lift,<span style='color:green'>Lift,<span style='color:red'>Fail,<span style='color:green'>Lift","<span style='color:red'>Fail,<span style='color:green'>Lift,<span style='color:green'>Lift,<span style='color:red'>Fail,<span style='color:green'>Lift,<span style='color:green'>Lift","0,0,1,1,0,0,0,0,1,0,0,1","0,0,1,1,1,1,0,1,1,1,0,1","0,1,1,0,1,1",10,20,20,"","","<p style='font-size:30px'><b> New Contest! </b></p>","null","","",4,"",NA,NA,NA,NA,NA,NA,NA,NA,NA,NA,NA,NA,NA,NA,NA,NA,NA,NA,NA,NA,NA,NA,NA,NA,NA,NA,NA,NA,NA,NA,NA,NA,NA,NA,NA,NA,NA,NA,NA,"",NA,NA,NA,NA,NA,NA,NA,NA,NA,2025-11-21 00:30:18
"5128.39999999851","https://psyc-201.github.io/xiang2023/exp/index1.html?PROLIFIC_PID=REDACTED&STUDY_ID=691f8ca61c6b4dcbb0aeb5f4&SESSION_ID=691fb05925b4fae95aaec28a","survey-html-form",26,403147,"0.0-335.0","DEn0A5Af3MB2TBIaiPFNCeqfj5I+P0QvYGb2HGCoxmISERzSkCBjTrReTK/hQuM/lYKjeRIl5PGZIbUtrEV7WBk71gFRr4RO0mrQxJSM/y2inCLQgQ1ykPuOndfpughkRICzufiYorC4FoFhn5C+n2KWWEC10Ah7KVDFB68ezXgITXGnGz0rpZaQ8ti2h6cmDLT73xEFDHp6+KN9nnNcIKSijHtBMBOPuY+vH4Gn/f1IhtLLpGzPKLiSspGEW1KXfPfr+eUgW2WyMSaOwl4/eJD0yhpkC16SJzeZIGYRyn5vfoRs3oeE+qNEaN31uv5GwrxLj/JPZsYPQN5vB02kJQ==","691f8ca61c6b4dcbb0aeb5f4","691fb05925b4fae95aaec28a","index1","<span style='color:red'>Fail,<span style='color:red'>Fail,<span style='color:green'>Lift,<span style='color:green'>Lift,<span style='color:red'>Fail,<span style='color:red'>Fail,<span style='color:red'>Fail,<span style='color:red'>Fail,<span style='color:green'>Lift,<span style='color:red'>Fail,<span style='color:red'>Fail,<span style='color:green'>Lift","<span style='color:red'>Fail,<span style='color:red'>Fail,<span style='color:green'>Lift,<span style='color:green'>Lift,<span style='color:green'>Lift,<span style='color:green'>Lift,<span style='color:red'>Fail,<span style='color:green'>Lift,<span style='color:green'>Lift,<span style='color:green'>Lift,<span style='color:red'>Fail,<span style='color:green'>Lift","<span style='color:red'>Fail,<span style='color:green'>Lift,<span style='color:green'>Lift,<span style='color:red'>Fail,<span style='color:green'>Lift,<span style='color:green'>Lift","0,0,1,1,0,0,0,0,1,0,0,1","0,0,1,1,1,1,0,1,1,1,0,1","0,1,1,0,1,1",10,20,20,"","","","","{""box1"":""5"",""box2"":""5""}","",4,"round1_outcome",1,4,1,5,5,NA,NA,0,0,10,5,5,NA,NA,0,0,10,NA,NA,NA,NA,NA,NA,NA,NA,NA,NA,NA,NA,NA,NA,NA,NA,NA,NA,NA,NA,NA,NA,"",NA,NA,NA,NA,NA,NA,NA,NA,NA,2025-11-21 00:30:18
"5197","https://psyc-201.github.io/xiang2023/exp/index1.html?PROLIFIC_PID=REDACTED&STUDY_ID=691f8ca61c6b4dcbb0aeb5f4&SESSION_ID=691fb05925b4fae95aaec28a","survey-html-form",27,408346,"0.0-336.0","DEn0A5Af3MB2TBIaiPFNCeqfj5I+P0QvYGb2HGCoxmISERzSkCBjTrReTK/hQuM/lYKjeRIl5PGZIbUtrEV7WBk71gFRr4RO0mrQxJSM/y2inCLQgQ1ykPuOndfpughkRICzufiYorC4FoFhn5C+n2KWWEC10Ah7KVDFB68ezXgITXGnGz0rpZaQ8ti2h6cmDLT73xEFDHp6+KN9nnNcIKSijHtBMBOPuY+vH4Gn/f1IhtLLpGzPKLiSspGEW1KXfPfr+eUgW2WyMSaOwl4/eJD0yhpkC16SJzeZIGYRyn5vfoRs3oeE+qNEaN31uv5GwrxLj/JPZsYPQN5vB02kJQ==","691f8ca61c6b4dcbb0aeb5f4","691fb05925b4fae95aaec28a","index1","<span style='color:red'>Fail,<span style='color:red'>Fail,<span style='color:green'>Lift,<span style='color:green'>Lift,<span style='color:red'>Fail,<span style='color:red'>Fail,<span style='color:red'>Fail,<span style='color:red'>Fail,<span style='color:green'>Lift,<span style='color:red'>Fail,<span style='color:red'>Fail,<span style='color:green'>Lift","<span style='color:red'>Fail,<span style='color:red'>Fail,<span style='color:green'>Lift,<span style='color:green'>Lift,<span style='color:green'>Lift,<span style='color:green'>Lift,<span style='color:red'>Fail,<span style='color:green'>Lift,<span style='color:green'>Lift,<span style='color:green'>Lift,<span style='color:red'>Fail,<span style='color:green'>Lift","<span style='color:red'>Fail,<span style='color:green'>Lift,<span style='color:green'>Lift,<span style='color:red'>Fail,<span style='color:green'>Lift,<span style='color:green'>Lift","0,0,1,1,0,0,0,0,1,0,0,1","0,0,1,1,1,1,0,1,1,1,0,1","0,1,1,0,1,1",10,20,20,"","","","","{""box1"":""50"",""box2"":""50""}","",4,"round2_ready",2,4,2,NA,NA,NA,NA,NA,NA,NA,NA,NA,NA,NA,NA,NA,NA,50,50,50,50,NA,NA,NA,NA,NA,NA,NA,NA,NA,NA,NA,NA,NA,NA,NA,NA,NA,NA,"",NA,NA,NA,NA,NA,NA,NA,NA,NA,2025-11-21 00:30:18
"17481.70000000298","https://psyc-201.github.io/xiang2023/exp/index1.html?PROLIFIC_PID=REDACTED&STUDY_ID=691f8ca61c6b4dcbb0aeb5f4&SESSION_ID=691fb05925b4fae95aaec28a","survey-html-form",28,425830,"0.0-337.0","DEn0A5Af3MB2TBIaiPFNCeqfj5I+P0QvYGb2HGCoxmISERzSkCBjTrReTK/hQuM/lYKjeRIl5PGZIbUtrEV7WBk71gFRr4RO0mrQxJSM/y2inCLQgQ1ykPuOndfpughkRICzufiYorC4FoFhn5C+n2KWWEC10Ah7KVDFB68ezXgITXGnGz0rpZaQ8ti2h6cmDLT73xEFDHp6+KN9nnNcIKSijHtBMBOPuY+vH4Gn/f1IhtLLpGzPKLiSspGEW1KXfPfr+eUgW2WyMSaOwl4/eJD0yhpkC16SJzeZIGYRyn5vfoRs3oeE+qNEaN31uv5GwrxLj/JPZsYPQN5vB02kJQ==","691f8ca61c6b4dcbb0aeb5f4","691fb05925b4fae95aaec28a","index1","<span style='color:red'>Fail,<span style='color:red'>Fail,<span style='color:green'>Lift,<span style='color:green'>Lift,<span style='color:red'>Fail,<span style='color:red'>Fail,<span style='color:red'>Fail,<span style='color:red'>Fail,<span style='color:green'>Lift,<span style='color:red'>Fail,<span style='color:red'>Fail,<span style='color:green'>Lift","<span style='color:red'>Fail,<span style='color:red'>Fail,<span style='color:green'>Lift,<span style='color:green'>Lift,<span style='color:green'>Lift,<span style='color:green'>Lift,<span style='color:red'>Fail,<span style='color:green'>Lift,<span style='color:green'>Lift,<span style='color:green'>Lift,<span style='color:red'>Fail,<span style='color:green'>Lift","<span style='color:red'>Fail,<span style='color:green'>Lift,<span style='color:green'>Lift,<span style='color:red'>Fail,<span style='color:green'>Lift,<span style='color:green'>Lift","0,0,1,1,0,0,0,0,1,0,0,1","0,0,1,1,1,1,0,1,1,1,0,1","0,1,1,0,1,1",10,20,20,"","","","","{""box1"":""2"",""box2"":""5"",""box4"":""100""}","",4,"round2_outcome",3,4,2,2,5,NA,100,0,1,20,NA,NA,NA,NA,NA,NA,NA,NA,NA,NA,NA,2,5,NA,100,0,1,20,NA,NA,NA,NA,NA,NA,NA,NA,NA,NA,NA,"",NA,NA,NA,NA,NA,NA,NA,NA,NA,2025-11-21 00:30:18
"2997.10000000149","https://psyc-201.github.io/xiang2023/exp/index1.html?PROLIFIC_PID=REDACTED&STUDY_ID=691f8ca61c6b4dcbb0aeb5f4&SESSION_ID=691fb05925b4fae95aaec28a","survey-html-form",29,428829,"0.0-338.0","DEn0A5Af3MB2TBIaiPFNCeqfj5I+P0QvYGb2HGCoxmISERzSkCBjTrReTK/hQuM/lYKjeRIl5PGZIbUtrEV7WBk71gFRr4RO0mrQxJSM/y2inCLQgQ1ykPuOndfpughkRICzufiYorC4FoFhn5C+n2KWWEC10Ah7KVDFB68ezXgITXGnGz0rpZaQ8ti2h6cmDLT73xEFDHp6+KN9nnNcIKSijHtBMBOPuY+vH4Gn/f1IhtLLpGzPKLiSspGEW1KXfPfr+eUgW2WyMSaOwl4/eJD0yhpkC16SJzeZIGYRyn5vfoRs3oeE+qNEaN31uv5GwrxLj/JPZsYPQN5vB02kJQ==","691f8ca61c6b4dcbb0aeb5f4","691fb05925b4fae95aaec28a","index1","<span style='color:red'>Fail,<span style='color:red'>Fail,<span style='color:green'>Lift,<span style='color:green'>Lift,<span style='color:red'>Fail,<span style='color:red'>Fail,<span style='color:red'>Fail,<span style='color:red'>Fail,<span style='color:green'>Lift,<span style='color:red'>Fail,<span style='color:red'>Fail,<span style='color:green'>Lift","<span style='color:red'>Fail,<span style='color:red'>Fail,<span style='color:green'>Lift,<span style='color:green'>Lift,<span style='color:green'>Lift,<span style='color:green'>Lift,<span style='color:red'>Fail,<span style='color:green'>Lift,<span style='color:green'>Lift,<span style='color:green'>Lift,<span style='color:red'>Fail,<span style='color:green'>Lift","<span style='color:red'>Fail,<span style='color:green'>Lift,<span style='color:green'>Lift,<span style='color:red'>Fail,<span style='color:green'>Lift,<span style='color:green'>Lift","0,0,1,1,0,0,0,0,1,0,0,1","0,0,1,1,1,1,0,1,1,1,0,1","0,1,1,0,1,1",10,20,20,"","","","","{""box1"":""75""}","",4,"round3_ready",4,4,3,NA,NA,NA,NA,NA,NA,NA,NA,NA,NA,NA,NA,NA,NA,75,75,NA,NA,NA,NA,NA,NA,NA,NA,NA,75,75,NA,NA,NA,NA,NA,NA,NA,NA,NA,"",NA,NA,NA,NA,NA,NA,NA,NA,NA,2025-11-21 00:30:18
"13114.70000000298","https://psyc-201.github.io/xiang2023/exp/index1.html?PROLIFIC_PID=REDACTED&STUDY_ID=691f8ca61c6b4dcbb0aeb5f4&SESSION_ID=691fb05925b4fae95aaec28a","survey-html-form",30,441946,"0.0-340.0-0.0","DEn0A5Af3MB2TBIaiPFNCeqfj5I+P0QvYGb2HGCoxmISERzSkCBjTrReTK/hQuM/lYKjeRIl5PGZIbUtrEV7WBk71gFRr4RO0mrQxJSM/y2inCLQgQ1ykPuOndfpughkRICzufiYorC4FoFhn5C+n2KWWEC10Ah7KVDFB68ezXgITXGnGz0rpZaQ8ti2h6cmDLT73xEFDHp6+KN9nnNcIKSijHtBMBOPuY+vH4Gn/f1IhtLLpGzPKLiSspGEW1KXfPfr+eUgW2WyMSaOwl4/eJD0yhpkC16SJzeZIGYRyn5vfoRs3oeE+qNEaN31uv5GwrxLj/JPZsYPQN5vB02kJQ==","691f8ca61c6b4dcbb0aeb5f4","691fb05925b4fae95aaec28a","index1","<span style='color:red'>Fail,<span style='color:red'>Fail,<span style='color:green'>Lift,<span style='color:green'>Lift,<span style='color:red'>Fail,<span style='color:red'>Fail,<span style='color:red'>Fail,<span style='color:red'>Fail,<span style='color:green'>Lift,<span style='color:red'>Fail,<span style='color:red'>Fail,<span style='color:green'>Lift","<span style='color:red'>Fail,<span style='color:red'>Fail,<span style='color:green'>Lift,<span style='color:green'>Lift,<span style='color:green'>Lift,<span style='color:green'>Lift,<span style='color:red'>Fail,<span style='color:green'>Lift,<span style='color:green'>Lift,<span style='color:green'>Lift,<span style='color:red'>Fail,<span style='color:green'>Lift","<span style='color:red'>Fail,<span style='color:green'>Lift,<span style='color:green'>Lift,<span style='color:red'>Fail,<span style='color:green'>Lift,<span style='color:green'>Lift","0,0,1,1,0,0,0,0,1,0,0,1","0,0,1,1,1,1,0,1,1,1,0,1","0,1,1,0,1,1",10,20,20,"","","","","{""box1"":""2"",""box2"":""7"",""box3"":""999"",""box4"":""999""}","",5,"round3_fail",5,4,3,2,7,NA,NA,0,0,20,NA,NA,NA,NA,NA,NA,NA,NA,NA,NA,NA,NA,NA,NA,NA,NA,NA,NA,NA,NA,2,7,NA,NA,0,0,20,1,1,"",NA,NA,NA,NA,NA,NA,NA,NA,NA,2025-11-21 00:30:18
"null","https://psyc-201.github.io/xiang2023/exp/index1.html?PROLIFIC_PID=REDACTED&STUDY_ID=691f8ca61c6b4dcbb0aeb5f4&SESSION_ID=691fb05925b4fae95aaec28a","html-keyboard-response",31,444949,"0.0-343.0","DEn0A5Af3MB2TBIaiPFNCeqfj5I+P0QvYGb2HGCoxmISERzSkCBjTrReTK/hQuM/lYKjeRIl5PGZIbUtrEV7WBk71gFRr4RO0mrQxJSM/y2inCLQgQ1ykPuOndfpughkRICzufiYorC4FoFhn5C+n2KWWEC10Ah7KVDFB68ezXgITXGnGz0rpZaQ8ti2h6cmDLT73xEFDHp6+KN9nnNcIKSijHtBMBOPuY+vH4Gn/f1IhtLLpGzPKLiSspGEW1KXfPfr+eUgW2WyMSaOwl4/eJD0yhpkC16SJzeZIGYRyn5vfoRs3oeE+qNEaN31uv5GwrxLj/JPZsYPQN5vB02kJQ==","691f8ca61c6b4dcbb0aeb5f4","691fb05925b4fae95aaec28a","index1","<span style='color:red'>Fail,<span style='color:red'>Fail,<span style='color:green'>Lift,<span style='color:green'>Lift,<span style='color:red'>Fail,<span style='color:red'>Fail,<span style='color:red'>Fail,<span style='color:red'>Fail,<span style='color:green'>Lift,<span style='color:red'>Fail,<span style='color:red'>Fail,<span style='color:green'>Lift","<span style='color:red'>Fail,<span style='color:red'>Fail,<span style='color:green'>Lift,<span style='color:green'>Lift,<span style='color:green'>Lift,<span style='color:green'>Lift,<span style='color:red'>Fail,<span style='color:green'>Lift,<span style='color:green'>Lift,<span style='color:green'>Lift,<span style='color:red'>Fail,<span style='color:green'>Lift","<span style='color:red'>Fail,<span style='color:green'>Lift,<span style='color:green'>Lift,<span style='color:red'>Fail,<span style='color:green'>Lift,<span style='color:green'>Lift","0,0,1,1,0,0,0,0,1,0,0,1","0,0,1,1,1,1,0,1,1,1,0,1","0,1,1,0,1,1",10,20,20,"","","<p style='font-size:30px'><b> New Contest! </b></p>","null","","",5,"",NA,NA,NA,NA,NA,NA,NA,NA,NA,NA,NA,NA,NA,NA,NA,NA,NA,NA,NA,NA,NA,NA,NA,NA,NA,NA,NA,NA,NA,NA,NA,NA,NA,NA,NA,NA,NA,NA,NA,"",NA,NA,NA,NA,NA,NA,NA,NA,NA,2025-11-21 00:30:18
"12095.40000000596","https://psyc-201.github.io/xiang2023/exp/index1.html?PROLIFIC_PID=REDACTED&STUDY_ID=691f8ca61c6b4dcbb0aeb5f4&SESSION_ID=691fb05925b4fae95aaec28a","survey-html-form",32,457047,"0.0-344.0","DEn0A5Af3MB2TBIaiPFNCeqfj5I+P0QvYGb2HGCoxmISERzSkCBjTrReTK/hQuM/lYKjeRIl5PGZIbUtrEV7WBk71gFRr4RO0mrQxJSM/y2inCLQgQ1ykPuOndfpughkRICzufiYorC4FoFhn5C+n2KWWEC10Ah7KVDFB68ezXgITXGnGz0rpZaQ8ti2h6cmDLT73xEFDHp6+KN9nnNcIKSijHtBMBOPuY+vH4Gn/f1IhtLLpGzPKLiSspGEW1KXfPfr+eUgW2WyMSaOwl4/eJD0yhpkC16SJzeZIGYRyn5vfoRs3oeE+qNEaN31uv5GwrxLj/JPZsYPQN5vB02kJQ==","691f8ca61c6b4dcbb0aeb5f4","691fb05925b4fae95aaec28a","index1","<span style='color:red'>Fail,<span style='color:red'>Fail,<span style='color:green'>Lift,<span style='color:green'>Lift,<span style='color:red'>Fail,<span style='color:red'>Fail,<span style='color:red'>Fail,<span style='color:red'>Fail,<span style='color:green'>Lift,<span style='color:red'>Fail,<span style='color:red'>Fail,<span style='color:green'>Lift","<span style='color:red'>Fail,<span style='color:red'>Fail,<span style='color:green'>Lift,<span style='color:green'>Lift,<span style='color:green'>Lift,<span style='color:green'>Lift,<span style='color:red'>Fail,<span style='color:green'>Lift,<span style='color:green'>Lift,<span style='color:green'>Lift,<span style='color:red'>Fail,<span style='color:green'>Lift","<span style='color:red'>Fail,<span style='color:green'>Lift,<span style='color:green'>Lift,<span style='color:red'>Fail,<span style='color:green'>Lift,<span style='color:green'>Lift","0,0,1,1,0,0,0,0,1,0,0,1","0,0,1,1,1,1,0,1,1,1,0,1","0,1,1,0,1,1",10,20,20,"","","","","{""box1"":""3"",""box2"":""7"",""box4"":""75""}","",5,"round1_outcome",1,5,1,3,7,NA,75,0,1,10,3,7,NA,75,0,1,10,NA,NA,NA,NA,NA,NA,NA,NA,NA,NA,NA,NA,NA,NA,NA,NA,NA,NA,NA,NA,NA,NA,"",NA,NA,NA,NA,NA,NA,NA,NA,NA,2025-11-21 00:30:18
"6897.30000000447","https://psyc-201.github.io/xiang2023/exp/index1.html?PROLIFIC_PID=REDACTED&STUDY_ID=691f8ca61c6b4dcbb0aeb5f4&SESSION_ID=691fb05925b4fae95aaec28a","survey-html-form",33,463946,"0.0-345.0","DEn0A5Af3MB2TBIaiPFNCeqfj5I+P0QvYGb2HGCoxmISERzSkCBjTrReTK/hQuM/lYKjeRIl5PGZIbUtrEV7WBk71gFRr4RO0mrQxJSM/y2inCLQgQ1ykPuOndfpughkRICzufiYorC4FoFhn5C+n2KWWEC10Ah7KVDFB68ezXgITXGnGz0rpZaQ8ti2h6cmDLT73xEFDHp6+KN9nnNcIKSijHtBMBOPuY+vH4Gn/f1IhtLLpGzPKLiSspGEW1KXfPfr+eUgW2WyMSaOwl4/eJD0yhpkC16SJzeZIGYRyn5vfoRs3oeE+qNEaN31uv5GwrxLj/JPZsYPQN5vB02kJQ==","691f8ca61c6b4dcbb0aeb5f4","691fb05925b4fae95aaec28a","index1","<span style='color:red'>Fail,<span style='color:red'>Fail,<span style='color:green'>Lift,<span style='color:green'>Lift,<span style='color:red'>Fail,<span style='color:red'>Fail,<span style='color:red'>Fail,<span style='color:red'>Fail,<span style='color:green'>Lift,<span style='color:red'>Fail,<span style='color:red'>Fail,<span style='color:green'>Lift","<span style='color:red'>Fail,<span style='color:red'>Fail,<span style='color:green'>Lift,<span style='color:green'>Lift,<span style='color:green'>Lift,<span style='color:green'>Lift,<span style='color:red'>Fail,<span style='color:green'>Lift,<span style='color:green'>Lift,<span style='color:green'>Lift,<span style='color:red'>Fail,<span style='color:green'>Lift","<span style='color:red'>Fail,<span style='color:green'>Lift,<span style='color:green'>Lift,<span style='color:red'>Fail,<span style='color:green'>Lift,<span style='color:green'>Lift","0,0,1,1,0,0,0,0,1,0,0,1","0,0,1,1,1,1,0,1,1,1,0,1","0,1,1,0,1,1",10,20,20,"","","","","{""box1"":""50"",""box2"":""100""}","",5,"round2_ready",2,5,2,NA,NA,NA,NA,NA,NA,NA,NA,NA,NA,NA,NA,NA,NA,50,100,50,100,NA,NA,NA,NA,NA,NA,NA,NA,NA,NA,NA,NA,NA,NA,NA,NA,NA,NA,"",NA,NA,NA,NA,NA,NA,NA,NA,NA,2025-11-21 00:30:18
"8082.39999999851","https://psyc-201.github.io/xiang2023/exp/index1.html?PROLIFIC_PID=REDACTED&STUDY_ID=691f8ca61c6b4dcbb0aeb5f4&SESSION_ID=691fb05925b4fae95aaec28a","survey-html-form",34,472030,"0.0-346.0","DEn0A5Af3MB2TBIaiPFNCeqfj5I+P0QvYGb2HGCoxmISERzSkCBjTrReTK/hQuM/lYKjeRIl5PGZIbUtrEV7WBk71gFRr4RO0mrQxJSM/y2inCLQgQ1ykPuOndfpughkRICzufiYorC4FoFhn5C+n2KWWEC10Ah7KVDFB68ezXgITXGnGz0rpZaQ8ti2h6cmDLT73xEFDHp6+KN9nnNcIKSijHtBMBOPuY+vH4Gn/f1IhtLLpGzPKLiSspGEW1KXfPfr+eUgW2WyMSaOwl4/eJD0yhpkC16SJzeZIGYRyn5vfoRs3oeE+qNEaN31uv5GwrxLj/JPZsYPQN5vB02kJQ==","691f8ca61c6b4dcbb0aeb5f4","691fb05925b4fae95aaec28a","index1","<span style='color:red'>Fail,<span style='color:red'>Fail,<span style='color:green'>Lift,<span style='color:green'>Lift,<span style='color:red'>Fail,<span style='color:red'>Fail,<span style='color:red'>Fail,<span style='color:red'>Fail,<span style='color:green'>Lift,<span style='color:red'>Fail,<span style='color:red'>Fail,<span style='color:green'>Lift","<span style='color:red'>Fail,<span style='color:red'>Fail,<span style='color:green'>Lift,<span style='color:green'>Lift,<span style='color:green'>Lift,<span style='color:green'>Lift,<span style='color:red'>Fail,<span style='color:green'>Lift,<span style='color:green'>Lift,<span style='color:green'>Lift,<span style='color:red'>Fail,<span style='color:green'>Lift","<span style='color:red'>Fail,<span style='color:green'>Lift,<span style='color:green'>Lift,<span style='color:red'>Fail,<span style='color:green'>Lift,<span style='color:green'>Lift","0,0,1,1,0,0,0,0,1,0,0,1","0,0,1,1,1,1,0,1,1,1,0,1","0,1,1,0,1,1",10,20,20,"","","","","{""box1"":""2"",""box2"":""7"",""box4"":""80""}","",5,"round2_outcome",3,5,2,2,7,NA,80,0,1,20,NA,NA,NA,NA,NA,NA,NA,NA,NA,NA,NA,2,7,NA,80,0,1,20,NA,NA,NA,NA,NA,NA,NA,NA,NA,NA,NA,"",NA,NA,NA,NA,NA,NA,NA,NA,NA,2025-11-21 00:30:18
"3030.3000000044703","https://psyc-201.github.io/xiang2023/exp/index1.html?PROLIFIC_PID=REDACTED&STUDY_ID=691f8ca61c6b4dcbb0aeb5f4&SESSION_ID=691fb05925b4fae95aaec28a","survey-html-form",35,475062,"0.0-347.0","DEn0A5Af3MB2TBIaiPFNCeqfj5I+P0QvYGb2HGCoxmISERzSkCBjTrReTK/hQuM/lYKjeRIl5PGZIbUtrEV7WBk71gFRr4RO0mrQxJSM/y2inCLQgQ1ykPuOndfpughkRICzufiYorC4FoFhn5C+n2KWWEC10Ah7KVDFB68ezXgITXGnGz0rpZaQ8ti2h6cmDLT73xEFDHp6+KN9nnNcIKSijHtBMBOPuY+vH4Gn/f1IhtLLpGzPKLiSspGEW1KXfPfr+eUgW2WyMSaOwl4/eJD0yhpkC16SJzeZIGYRyn5vfoRs3oeE+qNEaN31uv5GwrxLj/JPZsYPQN5vB02kJQ==","691f8ca61c6b4dcbb0aeb5f4","691fb05925b4fae95aaec28a","index1","<span style='color:red'>Fail,<span style='color:red'>Fail,<span style='color:green'>Lift,<span style='color:green'>Lift,<span style='color:red'>Fail,<span style='color:red'>Fail,<span style='color:red'>Fail,<span style='color:red'>Fail,<span style='color:green'>Lift,<span style='color:red'>Fail,<span style='color:red'>Fail,<span style='color:green'>Lift","<span style='color:red'>Fail,<span style='color:red'>Fail,<span style='color:green'>Lift,<span style='color:green'>Lift,<span style='color:green'>Lift,<span style='color:green'>Lift,<span style='color:red'>Fail,<span style='color:green'>Lift,<span style='color:green'>Lift,<span style='color:green'>Lift,<span style='color:red'>Fail,<span style='color:green'>Lift","<span style='color:red'>Fail,<span style='color:green'>Lift,<span style='color:green'>Lift,<span style='color:red'>Fail,<span style='color:green'>Lift,<span style='color:green'>Lift","0,0,1,1,0,0,0,0,1,0,0,1","0,0,1,1,1,1,0,1,1,1,0,1","0,1,1,0,1,1",10,20,20,"","","","","{""box1"":""75""}","",5,"round3_ready",4,5,3,NA,NA,NA,NA,NA,NA,NA,NA,NA,NA,NA,NA,NA,NA,75,75,NA,NA,NA,NA,NA,NA,NA,NA,NA,75,75,NA,NA,NA,NA,NA,NA,NA,NA,NA,"",NA,NA,NA,NA,NA,NA,NA,NA,NA,2025-11-21 00:30:18
"17081.89999999851","https://psyc-201.github.io/xiang2023/exp/index1.html?PROLIFIC_PID=REDACTED&STUDY_ID=691f8ca61c6b4dcbb0aeb5f4&SESSION_ID=691fb05925b4fae95aaec28a","survey-html-form",36,492146,"0.0-348.0-0.0","DEn0A5Af3MB2TBIaiPFNCeqfj5I+P0QvYGb2HGCoxmISERzSkCBjTrReTK/hQuM/lYKjeRIl5PGZIbUtrEV7WBk71gFRr4RO0mrQxJSM/y2inCLQgQ1ykPuOndfpughkRICzufiYorC4FoFhn5C+n2KWWEC10Ah7KVDFB68ezXgITXGnGz0rpZaQ8ti2h6cmDLT73xEFDHp6+KN9nnNcIKSijHtBMBOPuY+vH4Gn/f1IhtLLpGzPKLiSspGEW1KXfPfr+eUgW2WyMSaOwl4/eJD0yhpkC16SJzeZIGYRyn5vfoRs3oeE+qNEaN31uv5GwrxLj/JPZsYPQN5vB02kJQ==","691f8ca61c6b4dcbb0aeb5f4","691fb05925b4fae95aaec28a","index1","<span style='color:red'>Fail,<span style='color:red'>Fail,<span style='color:green'>Lift,<span style='color:green'>Lift,<span style='color:red'>Fail,<span style='color:red'>Fail,<span style='color:red'>Fail,<span style='color:red'>Fail,<span style='color:green'>Lift,<span style='color:red'>Fail,<span style='color:red'>Fail,<span style='color:green'>Lift","<span style='color:red'>Fail,<span style='color:red'>Fail,<span style='color:green'>Lift,<span style='color:green'>Lift,<span style='color:green'>Lift,<span style='color:green'>Lift,<span style='color:red'>Fail,<span style='color:green'>Lift,<span style='color:green'>Lift,<span style='color:green'>Lift,<span style='color:red'>Fail,<span style='color:green'>Lift","<span style='color:red'>Fail,<span style='color:green'>Lift,<span style='color:green'>Lift,<span style='color:red'>Fail,<span style='color:green'>Lift,<span style='color:green'>Lift","0,0,1,1,0,0,0,0,1,0,0,1","0,0,1,1,1,1,0,1,1,1,0,1","0,1,1,0,1,1",10,20,20,"","","","","{""box1"":""3"",""box2"":""7"",""box3"":""100"",""box4"":""70""}","",6,"round3_lift",5,5,3,3,7,100,70,1,1,20,NA,NA,NA,NA,NA,NA,NA,NA,NA,NA,NA,NA,NA,NA,NA,NA,NA,NA,NA,NA,3,7,100,70,1,1,20,NA,NA,"",NA,NA,NA,NA,NA,NA,NA,NA,NA,2025-11-21 00:30:18
"null","https://psyc-201.github.io/xiang2023/exp/index1.html?PROLIFIC_PID=REDACTED&STUDY_ID=691f8ca61c6b4dcbb0aeb5f4&SESSION_ID=691fb05925b4fae95aaec28a","html-keyboard-response",37,495149,"0.0-352.0","DEn0A5Af3MB2TBIaiPFNCeqfj5I+P0QvYGb2HGCoxmISERzSkCBjTrReTK/hQuM/lYKjeRIl5PGZIbUtrEV7WBk71gFRr4RO0mrQxJSM/y2inCLQgQ1ykPuOndfpughkRICzufiYorC4FoFhn5C+n2KWWEC10Ah7KVDFB68ezXgITXGnGz0rpZaQ8ti2h6cmDLT73xEFDHp6+KN9nnNcIKSijHtBMBOPuY+vH4Gn/f1IhtLLpGzPKLiSspGEW1KXfPfr+eUgW2WyMSaOwl4/eJD0yhpkC16SJzeZIGYRyn5vfoRs3oeE+qNEaN31uv5GwrxLj/JPZsYPQN5vB02kJQ==","691f8ca61c6b4dcbb0aeb5f4","691fb05925b4fae95aaec28a","index1","<span style='color:red'>Fail,<span style='color:red'>Fail,<span style='color:green'>Lift,<span style='color:green'>Lift,<span style='color:red'>Fail,<span style='color:red'>Fail,<span style='color:red'>Fail,<span style='color:red'>Fail,<span style='color:green'>Lift,<span style='color:red'>Fail,<span style='color:red'>Fail,<span style='color:green'>Lift","<span style='color:red'>Fail,<span style='color:red'>Fail,<span style='color:green'>Lift,<span style='color:green'>Lift,<span style='color:green'>Lift,<span style='color:green'>Lift,<span style='color:red'>Fail,<span style='color:green'>Lift,<span style='color:green'>Lift,<span style='color:green'>Lift,<span style='color:red'>Fail,<span style='color:green'>Lift","<span style='color:red'>Fail,<span style='color:green'>Lift,<span style='color:green'>Lift,<span style='color:red'>Fail,<span style='color:green'>Lift,<span style='color:green'>Lift","0,0,1,1,0,0,0,0,1,0,0,1","0,0,1,1,1,1,0,1,1,1,0,1","0,1,1,0,1,1",10,20,20,"","","<p style='font-size:30px'><b> New Contest! </b></p>","null","","",6,"",NA,NA,NA,NA,NA,NA,NA,NA,NA,NA,NA,NA,NA,NA,NA,NA,NA,NA,NA,NA,NA,NA,NA,NA,NA,NA,NA,NA,NA,NA,NA,NA,NA,NA,NA,NA,NA,NA,NA,"",NA,NA,NA,NA,NA,NA,NA,NA,NA,2025-11-21 00:30:18
"6945.29999999702","https://psyc-201.github.io/xiang2023/exp/index1.html?PROLIFIC_PID=REDACTED&STUDY_ID=691f8ca61c6b4dcbb0aeb5f4&SESSION_ID=691fb05925b4fae95aaec28a","survey-html-form",38,502097,"0.0-353.0","DEn0A5Af3MB2TBIaiPFNCeqfj5I+P0QvYGb2HGCoxmISERzSkCBjTrReTK/hQuM/lYKjeRIl5PGZIbUtrEV7WBk71gFRr4RO0mrQxJSM/y2inCLQgQ1ykPuOndfpughkRICzufiYorC4FoFhn5C+n2KWWEC10Ah7KVDFB68ezXgITXGnGz0rpZaQ8ti2h6cmDLT73xEFDHp6+KN9nnNcIKSijHtBMBOPuY+vH4Gn/f1IhtLLpGzPKLiSspGEW1KXfPfr+eUgW2WyMSaOwl4/eJD0yhpkC16SJzeZIGYRyn5vfoRs3oeE+qNEaN31uv5GwrxLj/JPZsYPQN5vB02kJQ==","691f8ca61c6b4dcbb0aeb5f4","691fb05925b4fae95aaec28a","index1","<span style='color:red'>Fail,<span style='color:red'>Fail,<span style='color:green'>Lift,<span style='color:green'>Lift,<span style='color:red'>Fail,<span style='color:red'>Fail,<span style='color:red'>Fail,<span style='color:red'>Fail,<span style='color:green'>Lift,<span style='color:red'>Fail,<span style='color:red'>Fail,<span style='color:green'>Lift","<span style='color:red'>Fail,<span style='color:red'>Fail,<span style='color:green'>Lift,<span style='color:green'>Lift,<span style='color:green'>Lift,<span style='color:green'>Lift,<span style='color:red'>Fail,<span style='color:green'>Lift,<span style='color:green'>Lift,<span style='color:green'>Lift,<span style='color:red'>Fail,<span style='color:green'>Lift","<span style='color:red'>Fail,<span style='color:green'>Lift,<span style='color:green'>Lift,<span style='color:red'>Fail,<span style='color:green'>Lift,<span style='color:green'>Lift","0,0,1,1,0,0,0,0,1,0,0,1","0,0,1,1,1,1,0,1,1,1,0,1","0,1,1,0,1,1",10,20,20,"","","","","{""box1"":""5"",""box2"":""5""}","",6,"round1_outcome",1,6,1,5,5,NA,NA,0,0,10,5,5,NA,NA,0,0,10,NA,NA,NA,NA,NA,NA,NA,NA,NA,NA,NA,NA,NA,NA,NA,NA,NA,NA,NA,NA,NA,NA,"",NA,NA,NA,NA,NA,NA,NA,NA,NA,2025-11-21 00:30:18
"8030.20000000298","https://psyc-201.github.io/xiang2023/exp/index1.html?PROLIFIC_PID=REDACTED&STUDY_ID=691f8ca61c6b4dcbb0aeb5f4&SESSION_ID=691fb05925b4fae95aaec28a","survey-html-form",39,510129,"0.0-354.0","DEn0A5Af3MB2TBIaiPFNCeqfj5I+P0QvYGb2HGCoxmISERzSkCBjTrReTK/hQuM/lYKjeRIl5PGZIbUtrEV7WBk71gFRr4RO0mrQxJSM/y2inCLQgQ1ykPuOndfpughkRICzufiYorC4FoFhn5C+n2KWWEC10Ah7KVDFB68ezXgITXGnGz0rpZaQ8ti2h6cmDLT73xEFDHp6+KN9nnNcIKSijHtBMBOPuY+vH4Gn/f1IhtLLpGzPKLiSspGEW1KXfPfr+eUgW2WyMSaOwl4/eJD0yhpkC16SJzeZIGYRyn5vfoRs3oeE+qNEaN31uv5GwrxLj/JPZsYPQN5vB02kJQ==","691f8ca61c6b4dcbb0aeb5f4","691fb05925b4fae95aaec28a","index1","<span style='color:red'>Fail,<span style='color:red'>Fail,<span style='color:green'>Lift,<span style='color:green'>Lift,<span style='color:red'>Fail,<span style='color:red'>Fail,<span style='color:red'>Fail,<span style='color:red'>Fail,<span style='color:green'>Lift,<span style='color:red'>Fail,<span style='color:red'>Fail,<span style='color:green'>Lift","<span style='color:red'>Fail,<span style='color:red'>Fail,<span style='color:green'>Lift,<span style='color:green'>Lift,<span style='color:green'>Lift,<span style='color:green'>Lift,<span style='color:red'>Fail,<span style='color:green'>Lift,<span style='color:green'>Lift,<span style='color:green'>Lift,<span style='color:red'>Fail,<span style='color:green'>Lift","<span style='color:red'>Fail,<span style='color:green'>Lift,<span style='color:green'>Lift,<span style='color:red'>Fail,<span style='color:green'>Lift,<span style='color:green'>Lift","0,0,1,1,0,0,0,0,1,0,0,1","0,0,1,1,1,1,0,1,1,1,0,1","0,1,1,0,1,1",10,20,20,"","","","","{""box1"":""50"",""box2"":""50""}","",6,"round2_ready",2,6,2,NA,NA,NA,NA,NA,NA,NA,NA,NA,NA,NA,NA,NA,NA,50,50,50,50,NA,NA,NA,NA,NA,NA,NA,NA,NA,NA,NA,NA,NA,NA,NA,NA,NA,NA,"",NA,NA,NA,NA,NA,NA,NA,NA,NA,2025-11-21 00:30:18
"8097.79999999702","https://psyc-201.github.io/xiang2023/exp/index1.html?PROLIFIC_PID=REDACTED&STUDY_ID=691f8ca61c6b4dcbb0aeb5f4&SESSION_ID=691fb05925b4fae95aaec28a","survey-html-form",40,518228,"0.0-355.0","DEn0A5Af3MB2TBIaiPFNCeqfj5I+P0QvYGb2HGCoxmISERzSkCBjTrReTK/hQuM/lYKjeRIl5PGZIbUtrEV7WBk71gFRr4RO0mrQxJSM/y2inCLQgQ1ykPuOndfpughkRICzufiYorC4FoFhn5C+n2KWWEC10Ah7KVDFB68ezXgITXGnGz0rpZaQ8ti2h6cmDLT73xEFDHp6+KN9nnNcIKSijHtBMBOPuY+vH4Gn/f1IhtLLpGzPKLiSspGEW1KXfPfr+eUgW2WyMSaOwl4/eJD0yhpkC16SJzeZIGYRyn5vfoRs3oeE+qNEaN31uv5GwrxLj/JPZsYPQN5vB02kJQ==","691f8ca61c6b4dcbb0aeb5f4","691fb05925b4fae95aaec28a","index1","<span style='color:red'>Fail,<span style='color:red'>Fail,<span style='color:green'>Lift,<span style='color:green'>Lift,<span style='color:red'>Fail,<span style='color:red'>Fail,<span style='color:red'>Fail,<span style='color:red'>Fail,<span style='color:green'>Lift,<span style='color:red'>Fail,<span style='color:red'>Fail,<span style='color:green'>Lift","<span style='color:red'>Fail,<span style='color:red'>Fail,<span style='color:green'>Lift,<span style='color:green'>Lift,<span style='color:green'>Lift,<span style='color:green'>Lift,<span style='color:red'>Fail,<span style='color:green'>Lift,<span style='color:green'>Lift,<span style='color:green'>Lift,<span style='color:red'>Fail,<span style='color:green'>Lift","<span style='color:red'>Fail,<span style='color:green'>Lift,<span style='color:green'>Lift,<span style='color:red'>Fail,<span style='color:green'>Lift,<span style='color:green'>Lift","0,0,1,1,0,0,0,0,1,0,0,1","0,0,1,1,1,1,0,1,1,1,0,1","0,1,1,0,1,1",10,20,20,"","","","","{""box1"":""3"",""box2"":""3""}","",6,"round2_outcome",3,6,2,3,3,NA,NA,0,0,20,NA,NA,NA,NA,NA,NA,NA,NA,NA,NA,NA,3,3,NA,NA,0,0,20,NA,NA,NA,NA,NA,NA,NA,NA,NA,NA,NA,"",NA,NA,NA,NA,NA,NA,NA,NA,NA,2025-11-21 00:30:18
"3216.7000000029802","https://psyc-201.github.io/xiang2023/exp/index1.html?PROLIFIC_PID=REDACTED&STUDY_ID=691f8ca61c6b4dcbb0aeb5f4&SESSION_ID=691fb05925b4fae95aaec28a","survey-html-form",41,521447,"0.0-356.0","DEn0A5Af3MB2TBIaiPFNCeqfj5I+P0QvYGb2HGCoxmISERzSkCBjTrReTK/hQuM/lYKjeRIl5PGZIbUtrEV7WBk71gFRr4RO0mrQxJSM/y2inCLQgQ1ykPuOndfpughkRICzufiYorC4FoFhn5C+n2KWWEC10Ah7KVDFB68ezXgITXGnGz0rpZaQ8ti2h6cmDLT73xEFDHp6+KN9nnNcIKSijHtBMBOPuY+vH4Gn/f1IhtLLpGzPKLiSspGEW1KXfPfr+eUgW2WyMSaOwl4/eJD0yhpkC16SJzeZIGYRyn5vfoRs3oeE+qNEaN31uv5GwrxLj/JPZsYPQN5vB02kJQ==","691f8ca61c6b4dcbb0aeb5f4","691fb05925b4fae95aaec28a","index1","<span style='color:red'>Fail,<span style='color:red'>Fail,<span style='color:green'>Lift,<span style='color:green'>Lift,<span style='color:red'>Fail,<span style='color:red'>Fail,<span style='color:red'>Fail,<span style='color:red'>Fail,<span style='color:green'>Lift,<span style='color:red'>Fail,<span style='color:red'>Fail,<span style='color:green'>Lift","<span style='color:red'>Fail,<span style='color:red'>Fail,<span style='color:green'>Lift,<span style='color:green'>Lift,<span style='color:green'>Lift,<span style='color:green'>Lift,<span style='color:red'>Fail,<span style='color:green'>Lift,<span style='color:green'>Lift,<span style='color:green'>Lift,<span style='color:red'>Fail,<span style='color:green'>Lift","<span style='color:red'>Fail,<span style='color:green'>Lift,<span style='color:green'>Lift,<span style='color:red'>Fail,<span style='color:green'>Lift,<span style='color:green'>Lift","0,0,1,1,0,0,0,0,1,0,0,1","0,0,1,1,1,1,0,1,1,1,0,1","0,1,1,0,1,1",10,20,20,"","","","","{""box1"":""25""}","",6,"round3_ready",4,6,3,NA,NA,NA,NA,NA,NA,NA,NA,NA,NA,NA,NA,NA,NA,25,25,NA,NA,NA,NA,NA,NA,NA,NA,NA,25,25,NA,NA,NA,NA,NA,NA,NA,NA,NA,"",NA,NA,NA,NA,NA,NA,NA,NA,NA,2025-11-21 00:30:18
"12214","https://psyc-201.github.io/xiang2023/exp/index1.html?PROLIFIC_PID=REDACTED&STUDY_ID=691f8ca61c6b4dcbb0aeb5f4&SESSION_ID=691fb05925b4fae95aaec28a","survey-html-form",42,533663,"0.0-358.0-0.0","DEn0A5Af3MB2TBIaiPFNCeqfj5I+P0QvYGb2HGCoxmISERzSkCBjTrReTK/hQuM/lYKjeRIl5PGZIbUtrEV7WBk71gFRr4RO0mrQxJSM/y2inCLQgQ1ykPuOndfpughkRICzufiYorC4FoFhn5C+n2KWWEC10Ah7KVDFB68ezXgITXGnGz0rpZaQ8ti2h6cmDLT73xEFDHp6+KN9nnNcIKSijHtBMBOPuY+vH4Gn/f1IhtLLpGzPKLiSspGEW1KXfPfr+eUgW2WyMSaOwl4/eJD0yhpkC16SJzeZIGYRyn5vfoRs3oeE+qNEaN31uv5GwrxLj/JPZsYPQN5vB02kJQ==","691f8ca61c6b4dcbb0aeb5f4","691fb05925b4fae95aaec28a","index1","<span style='color:red'>Fail,<span style='color:red'>Fail,<span style='color:green'>Lift,<span style='color:green'>Lift,<span style='color:red'>Fail,<span style='color:red'>Fail,<span style='color:red'>Fail,<span style='color:red'>Fail,<span style='color:green'>Lift,<span style='color:red'>Fail,<span style='color:red'>Fail,<span style='color:green'>Lift","<span style='color:red'>Fail,<span style='color:red'>Fail,<span style='color:green'>Lift,<span style='color:green'>Lift,<span style='color:green'>Lift,<span style='color:green'>Lift,<span style='color:red'>Fail,<span style='color:green'>Lift,<span style='color:green'>Lift,<span style='color:green'>Lift,<span style='color:red'>Fail,<span style='color:green'>Lift","<span style='color:red'>Fail,<span style='color:green'>Lift,<span style='color:green'>Lift,<span style='color:red'>Fail,<span style='color:green'>Lift,<span style='color:green'>Lift","0,0,1,1,0,0,0,0,1,0,0,1","0,0,1,1,1,1,0,1,1,1,0,1","0,1,1,0,1,1",10,20,20,"","","","","{""box1"":""2"",""box2"":""2"",""box3"":""999"",""box4"":""999""}","",6,"round3_fail",5,6,3,2,2,NA,NA,0,0,20,NA,NA,NA,NA,NA,NA,NA,NA,NA,NA,NA,NA,NA,NA,NA,NA,NA,NA,NA,NA,2,2,NA,NA,0,0,20,1,1,"",NA,NA,NA,NA,NA,NA,NA,NA,NA,2025-11-21 00:30:18
"24479.60000000149","https://psyc-201.github.io/xiang2023/exp/index1.html?PROLIFIC_PID=REDACTED&STUDY_ID=691f8ca61c6b4dcbb0aeb5f4&SESSION_ID=691fb05925b4fae95aaec28a","survey-text",43,558145,"0.0-361.0","DEn0A5Af3MB2TBIaiPFNCeqfj5I+P0QvYGb2HGCoxmISERzSkCBjTrReTK/hQuM/lYKjeRIl5PGZIbUtrEV7WBk71gFRr4RO0mrQxJSM/y2inCLQgQ1ykPuOndfpughkRICzufiYorC4FoFhn5C+n2KWWEC10Ah7KVDFB68ezXgITXGnGz0rpZaQ8ti2h6cmDLT73xEFDHp6+KN9nnNcIKSijHtBMBOPuY+vH4Gn/f1IhtLLpGzPKLiSspGEW1KXfPfr+eUgW2WyMSaOwl4/eJD0yhpkC16SJzeZIGYRyn5vfoRs3oeE+qNEaN31uv5GwrxLj/JPZsYPQN5vB02kJQ==","691f8ca61c6b4dcbb0aeb5f4","691fb05925b4fae95aaec28a","index1","<span style='color:red'>Fail,<span style='color:red'>Fail,<span style='color:green'>Lift,<span style='color:green'>Lift,<span style='color:red'>Fail,<span style='color:red'>Fail,<span style='color:red'>Fail,<span style='color:red'>Fail,<span style='color:green'>Lift,<span style='color:red'>Fail,<span style='color:red'>Fail,<span style='color:green'>Lift","<span style='color:red'>Fail,<span style='color:red'>Fail,<span style='color:green'>Lift,<span style='color:green'>Lift,<span style='color:green'>Lift,<span style='color:green'>Lift,<span style='color:red'>Fail,<span style='color:green'>Lift,<span style='color:green'>Lift,<span style='color:green'>Lift,<span style='color:red'>Fail,<span style='color:green'>Lift","<span style='color:red'>Fail,<span style='color:green'>Lift,<span style='color:green'>Lift,<span style='color:red'>Fail,<span style='color:green'>Lift,<span style='color:green'>Lift","0,0,1,1,0,0,0,0,1,0,0,1","0,0,1,1,1,1,0,1,1,1,0,1","0,1,1,0,1,1",10,20,20,"","","","","{""Q0"":""I had to guess the probability that two contestants would be able to lift a box, both as individuals and as a team. I also had to guess their strength and effort they put in.""}","",NA,"",NA,NA,NA,NA,NA,NA,NA,NA,NA,NA,NA,NA,NA,NA,NA,NA,NA,NA,NA,NA,NA,NA,NA,NA,NA,NA,NA,NA,NA,NA,NA,NA,NA,NA,NA,NA,NA,NA,NA,"",NA,NA,NA,NA,NA,NA,NA,NA,NA,2025-11-21 00:30:18
"3364","https://psyc-201.github.io/xiang2023/exp/index1.html?PROLIFIC_PID=REDACTED&STUDY_ID=691f8ca61c6b4dcbb0aeb5f4&SESSION_ID=691fb05925b4fae95aaec28a","survey-text",44,561512,"0.0-362.0","DEn0A5Af3MB2TBIaiPFNCeqfj5I+P0QvYGb2HGCoxmISERzSkCBjTrReTK/hQuM/lYKjeRIl5PGZIbUtrEV7WBk71gFRr4RO0mrQxJSM/y2inCLQgQ1ykPuOndfpughkRICzufiYorC4FoFhn5C+n2KWWEC10Ah7KVDFB68ezXgITXGnGz0rpZaQ8ti2h6cmDLT73xEFDHp6+KN9nnNcIKSijHtBMBOPuY+vH4Gn/f1IhtLLpGzPKLiSspGEW1KXfPfr+eUgW2WyMSaOwl4/eJD0yhpkC16SJzeZIGYRyn5vfoRs3oeE+qNEaN31uv5GwrxLj/JPZsYPQN5vB02kJQ==","691f8ca61c6b4dcbb0aeb5f4","691fb05925b4fae95aaec28a","index1","<span style='color:red'>Fail,<span style='color:red'>Fail,<span style='color:green'>Lift,<span style='color:green'>Lift,<span style='color:red'>Fail,<span style='color:red'>Fail,<span style='color:red'>Fail,<span style='color:red'>Fail,<span style='color:green'>Lift,<span style='color:red'>Fail,<span style='color:red'>Fail,<span style='color:green'>Lift","<span style='color:red'>Fail,<span style='color:red'>Fail,<span style='color:green'>Lift,<span style='color:green'>Lift,<span style='color:green'>Lift,<span style='color:green'>Lift,<span style='color:red'>Fail,<span style='color:green'>Lift,<span style='color:green'>Lift,<span style='color:green'>Lift,<span style='color:red'>Fail,<span style='color:green'>Lift","<span style='color:red'>Fail,<span style='color:green'>Lift,<span style='color:green'>Lift,<span style='color:red'>Fail,<span style='color:green'>Lift,<span style='color:green'>Lift","0,0,1,1,0,0,0,0,1,0,0,1","0,0,1,1,1,1,0,1,1,1,0,1","0,1,1,0,1,1",10,20,20,"","","","","{""Q0"":""""}","",NA,"",NA,NA,NA,NA,NA,NA,NA,NA,NA,NA,NA,NA,NA,NA,NA,NA,NA,NA,NA,NA,NA,NA,NA,NA,NA,NA,NA,NA,NA,NA,NA,NA,NA,NA,NA,NA,NA,NA,NA,"[{""event"":""fullscreenenter"",""trial"":1,""time"":126763}]",3,2,0,100,1,1,NA,NA,NA,2025-11-21 00:30:18
"3647.39999999851","https://psyc-201.github.io/xiang2023/exp/index1.html?PROLIFIC_PID=REDACTED&STUDY_ID=691f8ca61c6b4dcbb0aeb5f4&SESSION_ID=691fb05925b4fae95aaec28a","html-button-response",45,565161,"0.0-363.0","DEn0A5Af3MB2TBIaiPFNCeqfj5I+P0QvYGb2HGCoxmISERzSkCBjTrReTK/hQuM/lYKjeRIl5PGZIbUtrEV7WBk71gFRr4RO0mrQxJSM/y2inCLQgQ1ykPuOndfpughkRICzufiYorC4FoFhn5C+n2KWWEC10Ah7KVDFB68ezXgITXGnGz0rpZaQ8ti2h6cmDLT73xEFDHp6+KN9nnNcIKSijHtBMBOPuY+vH4Gn/f1IhtLLpGzPKLiSspGEW1KXfPfr+eUgW2WyMSaOwl4/eJD0yhpkC16SJzeZIGYRyn5vfoRs3oeE+qNEaN31uv5GwrxLj/JPZsYPQN5vB02kJQ==","691f8ca61c6b4dcbb0aeb5f4","691fb05925b4fae95aaec28a","index1","<span style='color:red'>Fail,<span style='color:red'>Fail,<span style='color:green'>Lift,<span style='color:green'>Lift,<span style='color:red'>Fail,<span style='color:red'>Fail,<span style='color:red'>Fail,<span style='color:red'>Fail,<span style='color:green'>Lift,<span style='color:red'>Fail,<span style='color:red'>Fail,<span style='color:green'>Lift","<span style='color:red'>Fail,<span style='color:red'>Fail,<span style='color:green'>Lift,<span style='color:green'>Lift,<span style='color:green'>Lift,<span style='color:green'>Lift,<span style='color:red'>Fail,<span style='color:green'>Lift,<span style='color:green'>Lift,<span style='color:green'>Lift,<span style='color:red'>Fail,<span style='color:green'>Lift","<span style='color:red'>Fail,<span style='color:green'>Lift,<span style='color:green'>Lift,<span style='color:red'>Fail,<span style='color:green'>Lift,<span style='color:green'>Lift","0,0,1,1,0,0,0,0,1,0,0,1","0,0,1,1,1,1,0,1,1,1,0,1","0,1,1,0,1,1",10,20,20,"","","<p> We randomly picked <b>Contest 3, Round 2</b> to calculate your bonus. </p><p> The outcome of Contestant E on that round is <span style='color:green'>Lift</span>. </p><p> The probability you entered was 100. </p><p><b> You won a bonus of $1.00!</b></p><p> IMPORTANT: Please click 'Next' to complete the game.</p>","","","",NA,"",NA,NA,NA,NA,NA,NA,NA,NA,NA,NA,NA,NA,NA,NA,NA,NA,NA,NA,NA,NA,NA,NA,NA,NA,NA,NA,NA,NA,NA,NA,NA,NA,NA,NA,NA,NA,NA,NA,NA,"",NA,NA,NA,NA,NA,NA,0,2,1,2025-11-21 00:30:18
