"rt","url","trial_type","trial_index","time_elapsed","internal_node_id","encryptedProlificId","studyId","sessionId","expIndex","round1_outcomes","round2_outcomes","round3_outcomes","round1_o","round2_o","round3_o","round1_reward","round2_reward","round3_reward","success","view_history","stimulus","key_press","responses","question_order","button_pressed","j","Stage","stage","contest","round","strength_a","strength_b","effort_a","effort_b","outcome_a","outcome_b","reward","r1_strength_a","r1_strength_b","r1_effort_a","r1_effort_b","r1_outcome_a","r1_outcome_b","r1_reward","probability_a","probability_b","r2_prob_a","r2_prob_b","r2_strength_a","r2_strength_b","r2_effort_a","r2_effort_b","r2_outcome_a","r2_outcome_b","r2_reward","r3_prob_a","r3_prob_b","r3_strength_a","r3_strength_b","r3_effort_a","r3_effort_b","r3_outcome_a","r3_outcome_b","r3_reward","attention_check","count","already","screen","pick_contest","pick_round","pick_side","trial_probability","trial_outcome","bonus","attention_sum","attention","datapipe_meta.attributes.date_modified"
"3979.60000000149","https://psyc-201.github.io/xiang2023/exp/index1.html?PROLIFIC_PID=REDACTED&STUDY_ID=691f8ca61c6b4dcbb0aeb5f4&SESSION_ID=691f8f1d27191784d9e8c4a6","external-html",0,4033,"0.0-0.0","sCDM/3wl2Qw4fMoUU/+U/iD/uE9kVopAU+LwMIV2xJrXfRZCZH7SzoOoCSCzx7Zh8xjy8N5mm80Fcrtun8AWFZDjeNMlCHP0uOsU9RtCzFJcgT6N3DbLbDe+RDTr7BkcjmzFpeWj/nZX9LYZUDuty8BKOry4p+ekoOdqdSH0cbIFh2DorMXuPd1zFBX8kaSOfTuwMAHwz0Hz+KnrrmmQ+yxKG27oA8xdRCnGJoFx4doU545nhrY9fl2WEcja43CJ+RTfG++p3o2ybIxjGEJ5AAW8UmHJWjylxxMNUicw1nxr4S/0x8wxLNJ7bg2FoA1Sc+mwf2a+cEhltKZisuvpug==","691f8ca61c6b4dcbb0aeb5f4","691f8f1d27191784d9e8c4a6","index1","<span style='color:red'>Fail,<span style='color:red'>Fail,<span style='color:green'>Lift,<span style='color:green'>Lift,<span style='color:red'>Fail,<span style='color:red'>Fail,<span style='color:red'>Fail,<span style='color:red'>Fail,<span style='color:green'>Lift,<span style='color:red'>Fail,<span style='color:green'>Lift,<span style='color:red'>Fail","<span style='color:red'>Fail,<span style='color:red'>Fail,<span style='color:green'>Lift,<span style='color:green'>Lift,<span style='color:green'>Lift,<span style='color:green'>Lift,<span style='color:red'>Fail,<span style='color:green'>Lift,<span style='color:green'>Lift,<span style='color:green'>Lift,<span style='color:green'>Lift,<span style='color:red'>Fail","<span style='color:red'>Fail,<span style='color:green'>Lift,<span style='color:green'>Lift,<span style='color:red'>Fail,<span style='color:green'>Lift,<span style='color:green'>Lift","0,0,1,1,0,0,0,0,1,0,1,0","0,0,1,1,1,1,0,1,1,1,1,0","0,1,1,0,1,1",10,20,20,"","","","","","",NA,NA,"",NA,NA,NA,NA,NA,NA,NA,NA,NA,NA,NA,NA,NA,NA,NA,NA,NA,NA,NA,NA,NA,NA,NA,NA,NA,NA,NA,NA,NA,NA,NA,NA,NA,NA,NA,NA,NA,NA,NA,NA,"",NA,NA,NA,NA,NA,NA,NA,NA,2025-11-20 22:24:28
"","https://psyc-201.github.io/xiang2023/exp/index1.html?PROLIFIC_PID=REDACTED&STUDY_ID=691f8ca61c6b4dcbb0aeb5f4&SESSION_ID=691f8f1d27191784d9e8c4a6","fullscreen",1,49453,"0.0-1.0","sCDM/3wl2Qw4fMoUU/+U/iD/uE9kVopAU+LwMIV2xJrXfRZCZH7SzoOoCSCzx7Zh8xjy8N5mm80Fcrtun8AWFZDjeNMlCHP0uOsU9RtCzFJcgT6N3DbLbDe+RDTr7BkcjmzFpeWj/nZX9LYZUDuty8BKOry4p+ekoOdqdSH0cbIFh2DorMXuPd1zFBX8kaSOfTuwMAHwz0Hz+KnrrmmQ+yxKG27oA8xdRCnGJoFx4doU545nhrY9fl2WEcja43CJ+RTfG++p3o2ybIxjGEJ5AAW8UmHJWjylxxMNUicw1nxr4S/0x8wxLNJ7bg2FoA1Sc+mwf2a+cEhltKZisuvpug==","691f8ca61c6b4dcbb0aeb5f4","691f8f1d27191784d9e8c4a6","index1","<span style='color:red'>Fail,<span style='color:red'>Fail,<span style='color:green'>Lift,<span style='color:green'>Lift,<span style='color:red'>Fail,<span style='color:red'>Fail,<span style='color:red'>Fail,<span style='color:red'>Fail,<span style='color:green'>Lift,<span style='color:red'>Fail,<span style='color:green'>Lift,<span style='color:red'>Fail","<span style='color:red'>Fail,<span style='color:red'>Fail,<span style='color:green'>Lift,<span style='color:green'>Lift,<span style='color:green'>Lift,<span style='color:green'>Lift,<span style='color:red'>Fail,<span style='color:green'>Lift,<span style='color:green'>Lift,<span style='color:green'>Lift,<span style='color:green'>Lift,<span style='color:red'>Fail","<span style='color:red'>Fail,<span style='color:green'>Lift,<span style='color:green'>Lift,<span style='color:red'>Fail,<span style='color:green'>Lift,<span style='color:green'>Lift","0,0,1,1,0,0,0,0,1,0,1,0","0,0,1,1,1,1,0,1,1,1,1,0","0,1,1,0,1,1",10,20,20,"true","","","","","",NA,NA,"",NA,NA,NA,NA,NA,NA,NA,NA,NA,NA,NA,NA,NA,NA,NA,NA,NA,NA,NA,NA,NA,NA,NA,NA,NA,NA,NA,NA,NA,NA,NA,NA,NA,NA,NA,NA,NA,NA,NA,NA,"",NA,NA,NA,NA,NA,NA,NA,NA,2025-11-20 22:24:28
"307551.299999997","https://psyc-201.github.io/xiang2023/exp/index1.html?PROLIFIC_PID=REDACTED&STUDY_ID=691f8ca61c6b4dcbb0aeb5f4&SESSION_ID=691f8f1d27191784d9e8c4a6","instructions",2,357006,"0.0-2.0","sCDM/3wl2Qw4fMoUU/+U/iD/uE9kVopAU+LwMIV2xJrXfRZCZH7SzoOoCSCzx7Zh8xjy8N5mm80Fcrtun8AWFZDjeNMlCHP0uOsU9RtCzFJcgT6N3DbLbDe+RDTr7BkcjmzFpeWj/nZX9LYZUDuty8BKOry4p+ekoOdqdSH0cbIFh2DorMXuPd1zFBX8kaSOfTuwMAHwz0Hz+KnrrmmQ+yxKG27oA8xdRCnGJoFx4doU545nhrY9fl2WEcja43CJ+RTfG++p3o2ybIxjGEJ5AAW8UmHJWjylxxMNUicw1nxr4S/0x8wxLNJ7bg2FoA1Sc+mwf2a+cEhltKZisuvpug==","691f8ca61c6b4dcbb0aeb5f4","691f8f1d27191784d9e8c4a6","index1","<span style='color:red'>Fail,<span style='color:red'>Fail,<span style='color:green'>Lift,<span style='color:green'>Lift,<span style='color:red'>Fail,<span style='color:red'>Fail,<span style='color:red'>Fail,<span style='color:red'>Fail,<span style='color:green'>Lift,<span style='color:red'>Fail,<span style='color:green'>Lift,<span style='color:red'>Fail","<span style='color:red'>Fail,<span style='color:red'>Fail,<span style='color:green'>Lift,<span style='color:green'>Lift,<span style='color:green'>Lift,<span style='color:green'>Lift,<span style='color:red'>Fail,<span style='color:green'>Lift,<span style='color:green'>Lift,<span style='color:green'>Lift,<span style='color:green'>Lift,<span style='color:red'>Fail","<span style='color:red'>Fail,<span style='color:green'>Lift,<span style='color:green'>Lift,<span style='color:red'>Fail,<span style='color:green'>Lift,<span style='color:green'>Lift","0,0,1,1,0,0,0,0,1,0,1,0","0,0,1,1,1,1,0,1,1,1,1,0","0,1,1,0,1,1",10,20,20,"","[{""page_index"":0,""viewing_time"":25443.199999999255},{""page_index"":1,""viewing_time"":124868.30000000075},{""page_index"":2,""viewing_time"":111137.89999999851},{""page_index"":3,""viewing_time"":14208.5},{""page_index"":4,""viewing_time"":10782.199999999255},{""page_index"":5,""viewing_time"":14042.800000000745},{""page_index"":6,""viewing_time"":7068.199999999255}]","","","","",NA,NA,"",NA,NA,NA,NA,NA,NA,NA,NA,NA,NA,NA,NA,NA,NA,NA,NA,NA,NA,NA,NA,NA,NA,NA,NA,NA,NA,NA,NA,NA,NA,NA,NA,NA,NA,NA,NA,NA,NA,NA,NA,"",NA,NA,NA,NA,NA,NA,NA,NA,2025-11-20 22:24:28
"null","https://psyc-201.github.io/xiang2023/exp/index1.html?PROLIFIC_PID=REDACTED&STUDY_ID=691f8ca61c6b4dcbb0aeb5f4&SESSION_ID=691f8f1d27191784d9e8c4a6","html-keyboard-response",3,358014,"0.0-3.0","sCDM/3wl2Qw4fMoUU/+U/iD/uE9kVopAU+LwMIV2xJrXfRZCZH7SzoOoCSCzx7Zh8xjy8N5mm80Fcrtun8AWFZDjeNMlCHP0uOsU9RtCzFJcgT6N3DbLbDe+RDTr7BkcjmzFpeWj/nZX9LYZUDuty8BKOry4p+ekoOdqdSH0cbIFh2DorMXuPd1zFBX8kaSOfTuwMAHwz0Hz+KnrrmmQ+yxKG27oA8xdRCnGJoFx4doU545nhrY9fl2WEcja43CJ+RTfG++p3o2ybIxjGEJ5AAW8UmHJWjylxxMNUicw1nxr4S/0x8wxLNJ7bg2FoA1Sc+mwf2a+cEhltKZisuvpug==","691f8ca61c6b4dcbb0aeb5f4","691f8f1d27191784d9e8c4a6","index1","<span style='color:red'>Fail,<span style='color:red'>Fail,<span style='color:green'>Lift,<span style='color:green'>Lift,<span style='color:red'>Fail,<span style='color:red'>Fail,<span style='color:red'>Fail,<span style='color:red'>Fail,<span style='color:green'>Lift,<span style='color:red'>Fail,<span style='color:green'>Lift,<span style='color:red'>Fail","<span style='color:red'>Fail,<span style='color:red'>Fail,<span style='color:green'>Lift,<span style='color:green'>Lift,<span style='color:green'>Lift,<span style='color:green'>Lift,<span style='color:red'>Fail,<span style='color:green'>Lift,<span style='color:green'>Lift,<span style='color:green'>Lift,<span style='color:green'>Lift,<span style='color:red'>Fail","<span style='color:red'>Fail,<span style='color:green'>Lift,<span style='color:green'>Lift,<span style='color:red'>Fail,<span style='color:green'>Lift,<span style='color:green'>Lift","0,0,1,1,0,0,0,0,1,0,1,0","0,0,1,1,1,1,0,1,1,1,1,0","0,1,1,0,1,1",10,20,20,"",""," ","null","","",NA,NA,"",NA,NA,NA,NA,NA,NA,NA,NA,NA,NA,NA,NA,NA,NA,NA,NA,NA,NA,NA,NA,NA,NA,NA,NA,NA,NA,NA,NA,NA,NA,NA,NA,NA,NA,NA,NA,NA,NA,NA,NA,"",NA,NA,NA,NA,NA,NA,NA,NA,2025-11-20 22:24:28
"261269","https://psyc-201.github.io/xiang2023/exp/index1.html?PROLIFIC_PID=REDACTED&STUDY_ID=691f8ca61c6b4dcbb0aeb5f4&SESSION_ID=691f8f1d27191784d9e8c4a6","survey-multi-choice",4,619284,"0.0-4.0","sCDM/3wl2Qw4fMoUU/+U/iD/uE9kVopAU+LwMIV2xJrXfRZCZH7SzoOoCSCzx7Zh8xjy8N5mm80Fcrtun8AWFZDjeNMlCHP0uOsU9RtCzFJcgT6N3DbLbDe+RDTr7BkcjmzFpeWj/nZX9LYZUDuty8BKOry4p+ekoOdqdSH0cbIFh2DorMXuPd1zFBX8kaSOfTuwMAHwz0Hz+KnrrmmQ+yxKG27oA8xdRCnGJoFx4doU545nhrY9fl2WEcja43CJ+RTfG++p3o2ybIxjGEJ5AAW8UmHJWjylxxMNUicw1nxr4S/0x8wxLNJ7bg2FoA1Sc+mwf2a+cEhltKZisuvpug==","691f8ca61c6b4dcbb0aeb5f4","691f8f1d27191784d9e8c4a6","index1","<span style='color:red'>Fail,<span style='color:red'>Fail,<span style='color:green'>Lift,<span style='color:green'>Lift,<span style='color:red'>Fail,<span style='color:red'>Fail,<span style='color:red'>Fail,<span style='color:red'>Fail,<span style='color:green'>Lift,<span style='color:red'>Fail,<span style='color:green'>Lift,<span style='color:red'>Fail","<span style='color:red'>Fail,<span style='color:red'>Fail,<span style='color:green'>Lift,<span style='color:green'>Lift,<span style='color:green'>Lift,<span style='color:green'>Lift,<span style='color:red'>Fail,<span style='color:green'>Lift,<span style='color:green'>Lift,<span style='color:green'>Lift,<span style='color:green'>Lift,<span style='color:red'>Fail","<span style='color:red'>Fail,<span style='color:green'>Lift,<span style='color:green'>Lift,<span style='color:red'>Fail,<span style='color:green'>Lift,<span style='color:green'>Lift","0,0,1,1,0,0,0,0,1,0,1,0","0,0,1,1,1,1,0,1,1,1,1,0","0,1,1,0,1,1",10,20,20,"","","","","{""Q0"":""It consists of multiple contests, each contest with three rounds."",""Q1"":""When a new round starts."",""Q2"":""The box weight always stays the same (equivalent to strength of 5)."",""Q3"":""Each will get $20."",""Q4"":""How close my guesses are to the actual outcome.""}","[0,1,2,3,4]",NA,NA,"",NA,NA,NA,NA,NA,NA,NA,NA,NA,NA,NA,NA,NA,NA,NA,NA,NA,NA,NA,NA,NA,NA,NA,NA,NA,NA,NA,NA,NA,NA,NA,NA,NA,NA,NA,NA,NA,NA,NA,NA,"",NA,NA,NA,NA,NA,NA,NA,NA,2025-11-20 22:24:28
"3039.89999999851","https://psyc-201.github.io/xiang2023/exp/index1.html?PROLIFIC_PID=REDACTED&STUDY_ID=691f8ca61c6b4dcbb0aeb5f4&SESSION_ID=691f8f1d27191784d9e8c4a6","html-button-response",5,622325,"0.0-5.0-1.0","sCDM/3wl2Qw4fMoUU/+U/iD/uE9kVopAU+LwMIV2xJrXfRZCZH7SzoOoCSCzx7Zh8xjy8N5mm80Fcrtun8AWFZDjeNMlCHP0uOsU9RtCzFJcgT6N3DbLbDe+RDTr7BkcjmzFpeWj/nZX9LYZUDuty8BKOry4p+ekoOdqdSH0cbIFh2DorMXuPd1zFBX8kaSOfTuwMAHwz0Hz+KnrrmmQ+yxKG27oA8xdRCnGJoFx4doU545nhrY9fl2WEcja43CJ+RTfG++p3o2ybIxjGEJ5AAW8UmHJWjylxxMNUicw1nxr4S/0x8wxLNJ7bg2FoA1Sc+mwf2a+cEhltKZisuvpug==","691f8ca61c6b4dcbb0aeb5f4","691f8f1d27191784d9e8c4a6","index1","<span style='color:red'>Fail,<span style='color:red'>Fail,<span style='color:green'>Lift,<span style='color:green'>Lift,<span style='color:red'>Fail,<span style='color:red'>Fail,<span style='color:red'>Fail,<span style='color:red'>Fail,<span style='color:green'>Lift,<span style='color:red'>Fail,<span style='color:green'>Lift,<span style='color:red'>Fail","<span style='color:red'>Fail,<span style='color:red'>Fail,<span style='color:green'>Lift,<span style='color:green'>Lift,<span style='color:green'>Lift,<span style='color:green'>Lift,<span style='color:red'>Fail,<span style='color:green'>Lift,<span style='color:green'>Lift,<span style='color:green'>Lift,<span style='color:green'>Lift,<span style='color:red'>Fail","<span style='color:red'>Fail,<span style='color:green'>Lift,<span style='color:green'>Lift,<span style='color:red'>Fail,<span style='color:green'>Lift,<span style='color:green'>Lift","0,0,1,1,0,0,0,0,1,0,1,0","0,0,1,1,1,1,0,1,1,1,1,0","0,1,1,0,1,1",10,20,20,"","","<p> Oops! You did not pass the comprehension check. <b>Please note that you have only 1 attempt(s) left.</b> </p>","","","",1,NA,"",NA,NA,NA,NA,NA,NA,NA,NA,NA,NA,NA,NA,NA,NA,NA,NA,NA,NA,NA,NA,NA,NA,NA,NA,NA,NA,NA,NA,NA,NA,NA,NA,NA,NA,NA,NA,NA,NA,NA,NA,"",NA,NA,NA,NA,NA,NA,NA,NA,2025-11-20 22:24:28
"85400.90000000224","https://psyc-201.github.io/xiang2023/exp/index1.html?PROLIFIC_PID=REDACTED&STUDY_ID=691f8ca61c6b4dcbb0aeb5f4&SESSION_ID=691f8f1d27191784d9e8c4a6","instructions",6,707727,"0.0-6.0-0.0","sCDM/3wl2Qw4fMoUU/+U/iD/uE9kVopAU+LwMIV2xJrXfRZCZH7SzoOoCSCzx7Zh8xjy8N5mm80Fcrtun8AWFZDjeNMlCHP0uOsU9RtCzFJcgT6N3DbLbDe+RDTr7BkcjmzFpeWj/nZX9LYZUDuty8BKOry4p+ekoOdqdSH0cbIFh2DorMXuPd1zFBX8kaSOfTuwMAHwz0Hz+KnrrmmQ+yxKG27oA8xdRCnGJoFx4doU545nhrY9fl2WEcja43CJ+RTfG++p3o2ybIxjGEJ5AAW8UmHJWjylxxMNUicw1nxr4S/0x8wxLNJ7bg2FoA1Sc+mwf2a+cEhltKZisuvpug==","691f8ca61c6b4dcbb0aeb5f4","691f8f1d27191784d9e8c4a6","index1","<span style='color:red'>Fail,<span style='color:red'>Fail,<span style='color:green'>Lift,<span style='color:green'>Lift,<span style='color:red'>Fail,<span style='color:red'>Fail,<span style='color:red'>Fail,<span style='color:red'>Fail,<span style='color:green'>Lift,<span style='color:red'>Fail,<span style='color:green'>Lift,<span style='color:red'>Fail","<span style='color:red'>Fail,<span style='color:red'>Fail,<span style='color:green'>Lift,<span style='color:green'>Lift,<span style='color:green'>Lift,<span style='color:green'>Lift,<span style='color:red'>Fail,<span style='color:green'>Lift,<span style='color:green'>Lift,<span style='color:green'>Lift,<span style='color:green'>Lift,<span style='color:red'>Fail","<span style='color:red'>Fail,<span style='color:green'>Lift,<span style='color:green'>Lift,<span style='color:red'>Fail,<span style='color:green'>Lift,<span style='color:green'>Lift","0,0,1,1,0,0,0,0,1,0,1,0","0,0,1,1,1,1,0,1,1,1,1,0","0,1,1,0,1,1",10,20,20,"","[{""page_index"":0,""viewing_time"":36124.300000000745},{""page_index"":1,""viewing_time"":8205.10000000149},{""page_index"":2,""viewing_time"":9121.099999997765},{""page_index"":3,""viewing_time"":6794.5},{""page_index"":4,""viewing_time"":10839.70000000298},{""page_index"":5,""viewing_time"":6709.599999997765},{""page_index"":6,""viewing_time"":7606.199999999255}]","","","","",NA,NA,"",NA,NA,NA,NA,NA,NA,NA,NA,NA,NA,NA,NA,NA,NA,NA,NA,NA,NA,NA,NA,NA,NA,NA,NA,NA,NA,NA,NA,NA,NA,NA,NA,NA,NA,NA,NA,NA,NA,NA,NA,"",NA,NA,NA,NA,NA,NA,NA,NA,2025-11-20 22:24:28
"null","https://psyc-201.github.io/xiang2023/exp/index1.html?PROLIFIC_PID=REDACTED&STUDY_ID=691f8ca61c6b4dcbb0aeb5f4&SESSION_ID=691f8f1d27191784d9e8c4a6","html-keyboard-response",7,708729,"0.0-6.0-1.0","sCDM/3wl2Qw4fMoUU/+U/iD/uE9kVopAU+LwMIV2xJrXfRZCZH7SzoOoCSCzx7Zh8xjy8N5mm80Fcrtun8AWFZDjeNMlCHP0uOsU9RtCzFJcgT6N3DbLbDe+RDTr7BkcjmzFpeWj/nZX9LYZUDuty8BKOry4p+ekoOdqdSH0cbIFh2DorMXuPd1zFBX8kaSOfTuwMAHwz0Hz+KnrrmmQ+yxKG27oA8xdRCnGJoFx4doU545nhrY9fl2WEcja43CJ+RTfG++p3o2ybIxjGEJ5AAW8UmHJWjylxxMNUicw1nxr4S/0x8wxLNJ7bg2FoA1Sc+mwf2a+cEhltKZisuvpug==","691f8ca61c6b4dcbb0aeb5f4","691f8f1d27191784d9e8c4a6","index1","<span style='color:red'>Fail,<span style='color:red'>Fail,<span style='color:green'>Lift,<span style='color:green'>Lift,<span style='color:red'>Fail,<span style='color:red'>Fail,<span style='color:red'>Fail,<span style='color:red'>Fail,<span style='color:green'>Lift,<span style='color:red'>Fail,<span style='color:green'>Lift,<span style='color:red'>Fail","<span style='color:red'>Fail,<span style='color:red'>Fail,<span style='color:green'>Lift,<span style='color:green'>Lift,<span style='color:green'>Lift,<span style='color:green'>Lift,<span style='color:red'>Fail,<span style='color:green'>Lift,<span style='color:green'>Lift,<span style='color:green'>Lift,<span style='color:green'>Lift,<span style='color:red'>Fail","<span style='color:red'>Fail,<span style='color:green'>Lift,<span style='color:green'>Lift,<span style='color:red'>Fail,<span style='color:green'>Lift,<span style='color:green'>Lift","0,0,1,1,0,0,0,0,1,0,1,0","0,0,1,1,1,1,0,1,1,1,1,0","0,1,1,0,1,1",10,20,20,"",""," ","null","","",NA,NA,"",NA,NA,NA,NA,NA,NA,NA,NA,NA,NA,NA,NA,NA,NA,NA,NA,NA,NA,NA,NA,NA,NA,NA,NA,NA,NA,NA,NA,NA,NA,NA,NA,NA,NA,NA,NA,NA,NA,NA,NA,"",NA,NA,NA,NA,NA,NA,NA,NA,2025-11-20 22:24:28
"44604.800000000745","https://psyc-201.github.io/xiang2023/exp/index1.html?PROLIFIC_PID=REDACTED&STUDY_ID=691f8ca61c6b4dcbb0aeb5f4&SESSION_ID=691f8f1d27191784d9e8c4a6","survey-multi-choice",8,753335,"0.0-7.0-0.0","sCDM/3wl2Qw4fMoUU/+U/iD/uE9kVopAU+LwMIV2xJrXfRZCZH7SzoOoCSCzx7Zh8xjy8N5mm80Fcrtun8AWFZDjeNMlCHP0uOsU9RtCzFJcgT6N3DbLbDe+RDTr7BkcjmzFpeWj/nZX9LYZUDuty8BKOry4p+ekoOdqdSH0cbIFh2DorMXuPd1zFBX8kaSOfTuwMAHwz0Hz+KnrrmmQ+yxKG27oA8xdRCnGJoFx4doU545nhrY9fl2WEcja43CJ+RTfG++p3o2ybIxjGEJ5AAW8UmHJWjylxxMNUicw1nxr4S/0x8wxLNJ7bg2FoA1Sc+mwf2a+cEhltKZisuvpug==","691f8ca61c6b4dcbb0aeb5f4","691f8f1d27191784d9e8c4a6","index1","<span style='color:red'>Fail,<span style='color:red'>Fail,<span style='color:green'>Lift,<span style='color:green'>Lift,<span style='color:red'>Fail,<span style='color:red'>Fail,<span style='color:red'>Fail,<span style='color:red'>Fail,<span style='color:green'>Lift,<span style='color:red'>Fail,<span style='color:green'>Lift,<span style='color:red'>Fail","<span style='color:red'>Fail,<span style='color:red'>Fail,<span style='color:green'>Lift,<span style='color:green'>Lift,<span style='color:green'>Lift,<span style='color:green'>Lift,<span style='color:red'>Fail,<span style='color:green'>Lift,<span style='color:green'>Lift,<span style='color:green'>Lift,<span style='color:green'>Lift,<span style='color:red'>Fail","<span style='color:red'>Fail,<span style='color:green'>Lift,<span style='color:green'>Lift,<span style='color:red'>Fail,<span style='color:green'>Lift,<span style='color:green'>Lift","0,0,1,1,0,0,0,0,1,0,1,0","0,0,1,1,1,1,0,1,1,1,1,0","0,1,1,0,1,1",10,20,20,"","","","","{""Q0"":""It consists of multiple contests, each contest with three rounds."",""Q1"":""When a new contest begins."",""Q2"":""The box weight always stays the same (equivalent to strength of 5)."",""Q3"":""Each will get $20."",""Q4"":""How close my guesses are to the actual outcome.""}","[0,1,2,3,4]",NA,NA,"",NA,NA,NA,NA,NA,NA,NA,NA,NA,NA,NA,NA,NA,NA,NA,NA,NA,NA,NA,NA,NA,NA,NA,NA,NA,NA,NA,NA,NA,NA,NA,NA,NA,NA,NA,NA,NA,NA,NA,NA,"",NA,NA,NA,NA,NA,NA,NA,NA,2025-11-20 22:24:28
"39172.60000000149","https://psyc-201.github.io/xiang2023/exp/index1.html?PROLIFIC_PID=REDACTED&STUDY_ID=691f8ca61c6b4dcbb0aeb5f4&SESSION_ID=691f8f1d27191784d9e8c4a6","instructions",9,792513,"0.0-305.0","sCDM/3wl2Qw4fMoUU/+U/iD/uE9kVopAU+LwMIV2xJrXfRZCZH7SzoOoCSCzx7Zh8xjy8N5mm80Fcrtun8AWFZDjeNMlCHP0uOsU9RtCzFJcgT6N3DbLbDe+RDTr7BkcjmzFpeWj/nZX9LYZUDuty8BKOry4p+ekoOdqdSH0cbIFh2DorMXuPd1zFBX8kaSOfTuwMAHwz0Hz+KnrrmmQ+yxKG27oA8xdRCnGJoFx4doU545nhrY9fl2WEcja43CJ+RTfG++p3o2ybIxjGEJ5AAW8UmHJWjylxxMNUicw1nxr4S/0x8wxLNJ7bg2FoA1Sc+mwf2a+cEhltKZisuvpug==","691f8ca61c6b4dcbb0aeb5f4","691f8f1d27191784d9e8c4a6","index1","<span style='color:red'>Fail,<span style='color:red'>Fail,<span style='color:green'>Lift,<span style='color:green'>Lift,<span style='color:red'>Fail,<span style='color:red'>Fail,<span style='color:red'>Fail,<span style='color:red'>Fail,<span style='color:green'>Lift,<span style='color:red'>Fail,<span style='color:green'>Lift,<span style='color:red'>Fail","<span style='color:red'>Fail,<span style='color:red'>Fail,<span style='color:green'>Lift,<span style='color:green'>Lift,<span style='color:green'>Lift,<span style='color:green'>Lift,<span style='color:red'>Fail,<span style='color:green'>Lift,<span style='color:green'>Lift,<span style='color:green'>Lift,<span style='color:green'>Lift,<span style='color:red'>Fail","<span style='color:red'>Fail,<span style='color:green'>Lift,<span style='color:green'>Lift,<span style='color:red'>Fail,<span style='color:green'>Lift,<span style='color:green'>Lift","0,0,1,1,0,0,0,0,1,0,1,0","0,0,1,1,1,1,0,1,1,1,1,0","0,1,1,0,1,1",10,20,20,"","[{""page_index"":0,""viewing_time"":10220.300000000745},{""page_index"":1,""viewing_time"":28952.199999999255}]","","","","",NA,NA,"",NA,NA,NA,NA,NA,NA,NA,NA,NA,NA,NA,NA,NA,NA,NA,NA,NA,NA,NA,NA,NA,NA,NA,NA,NA,NA,NA,NA,NA,NA,NA,NA,NA,NA,NA,NA,NA,NA,NA,NA,"",NA,NA,NA,NA,NA,NA,NA,NA,2025-11-20 22:24:28
"null","https://psyc-201.github.io/xiang2023/exp/index1.html?PROLIFIC_PID=REDACTED&STUDY_ID=691f8ca61c6b4dcbb0aeb5f4&SESSION_ID=691f8f1d27191784d9e8c4a6","html-keyboard-response",10,793519,"0.0-306.0","sCDM/3wl2Qw4fMoUU/+U/iD/uE9kVopAU+LwMIV2xJrXfRZCZH7SzoOoCSCzx7Zh8xjy8N5mm80Fcrtun8AWFZDjeNMlCHP0uOsU9RtCzFJcgT6N3DbLbDe+RDTr7BkcjmzFpeWj/nZX9LYZUDuty8BKOry4p+ekoOdqdSH0cbIFh2DorMXuPd1zFBX8kaSOfTuwMAHwz0Hz+KnrrmmQ+yxKG27oA8xdRCnGJoFx4doU545nhrY9fl2WEcja43CJ+RTfG++p3o2ybIxjGEJ5AAW8UmHJWjylxxMNUicw1nxr4S/0x8wxLNJ7bg2FoA1Sc+mwf2a+cEhltKZisuvpug==","691f8ca61c6b4dcbb0aeb5f4","691f8f1d27191784d9e8c4a6","index1","<span style='color:red'>Fail,<span style='color:red'>Fail,<span style='color:green'>Lift,<span style='color:green'>Lift,<span style='color:red'>Fail,<span style='color:red'>Fail,<span style='color:red'>Fail,<span style='color:red'>Fail,<span style='color:green'>Lift,<span style='color:red'>Fail,<span style='color:green'>Lift,<span style='color:red'>Fail","<span style='color:red'>Fail,<span style='color:red'>Fail,<span style='color:green'>Lift,<span style='color:green'>Lift,<span style='color:green'>Lift,<span style='color:green'>Lift,<span style='color:red'>Fail,<span style='color:green'>Lift,<span style='color:green'>Lift,<span style='color:green'>Lift,<span style='color:green'>Lift,<span style='color:red'>Fail","<span style='color:red'>Fail,<span style='color:green'>Lift,<span style='color:green'>Lift,<span style='color:red'>Fail,<span style='color:green'>Lift,<span style='color:green'>Lift","0,0,1,1,0,0,0,0,1,0,1,0","0,0,1,1,1,1,0,1,1,1,1,0","0,1,1,0,1,1",10,20,20,"",""," ","null","","",NA,1,"",NA,NA,NA,NA,NA,NA,NA,NA,NA,NA,NA,NA,NA,NA,NA,NA,NA,NA,NA,NA,NA,NA,NA,NA,NA,NA,NA,NA,NA,NA,NA,NA,NA,NA,NA,NA,NA,NA,NA,NA,"",NA,NA,NA,NA,NA,NA,NA,NA,2025-11-20 22:24:28
"null","https://psyc-201.github.io/xiang2023/exp/index1.html?PROLIFIC_PID=REDACTED&STUDY_ID=691f8ca61c6b4dcbb0aeb5f4&SESSION_ID=691f8f1d27191784d9e8c4a6","html-keyboard-response",11,796523,"0.0-307.0","sCDM/3wl2Qw4fMoUU/+U/iD/uE9kVopAU+LwMIV2xJrXfRZCZH7SzoOoCSCzx7Zh8xjy8N5mm80Fcrtun8AWFZDjeNMlCHP0uOsU9RtCzFJcgT6N3DbLbDe+RDTr7BkcjmzFpeWj/nZX9LYZUDuty8BKOry4p+ekoOdqdSH0cbIFh2DorMXuPd1zFBX8kaSOfTuwMAHwz0Hz+KnrrmmQ+yxKG27oA8xdRCnGJoFx4doU545nhrY9fl2WEcja43CJ+RTfG++p3o2ybIxjGEJ5AAW8UmHJWjylxxMNUicw1nxr4S/0x8wxLNJ7bg2FoA1Sc+mwf2a+cEhltKZisuvpug==","691f8ca61c6b4dcbb0aeb5f4","691f8f1d27191784d9e8c4a6","index1","<span style='color:red'>Fail,<span style='color:red'>Fail,<span style='color:green'>Lift,<span style='color:green'>Lift,<span style='color:red'>Fail,<span style='color:red'>Fail,<span style='color:red'>Fail,<span style='color:red'>Fail,<span style='color:green'>Lift,<span style='color:red'>Fail,<span style='color:green'>Lift,<span style='color:red'>Fail","<span style='color:red'>Fail,<span style='color:red'>Fail,<span style='color:green'>Lift,<span style='color:green'>Lift,<span style='color:green'>Lift,<span style='color:green'>Lift,<span style='color:red'>Fail,<span style='color:green'>Lift,<span style='color:green'>Lift,<span style='color:green'>Lift,<span style='color:green'>Lift,<span style='color:red'>Fail","<span style='color:red'>Fail,<span style='color:green'>Lift,<span style='color:green'>Lift,<span style='color:red'>Fail,<span style='color:green'>Lift,<span style='color:green'>Lift","0,0,1,1,0,0,0,0,1,0,1,0","0,0,1,1,1,1,0,1,1,1,1,0","0,1,1,0,1,1",10,20,20,"","","<p style='font-size:30px'><b> New Contest! </b></p>","null","","",NA,1,"",NA,NA,NA,NA,NA,NA,NA,NA,NA,NA,NA,NA,NA,NA,NA,NA,NA,NA,NA,NA,NA,NA,NA,NA,NA,NA,NA,NA,NA,NA,NA,NA,NA,NA,NA,NA,NA,NA,NA,NA,"",NA,NA,NA,NA,NA,NA,NA,NA,2025-11-20 22:24:28
"21929.699999999255","https://psyc-201.github.io/xiang2023/exp/index1.html?PROLIFIC_PID=REDACTED&STUDY_ID=691f8ca61c6b4dcbb0aeb5f4&SESSION_ID=691f8f1d27191784d9e8c4a6","survey-html-form",12,818454,"0.0-308.0","sCDM/3wl2Qw4fMoUU/+U/iD/uE9kVopAU+LwMIV2xJrXfRZCZH7SzoOoCSCzx7Zh8xjy8N5mm80Fcrtun8AWFZDjeNMlCHP0uOsU9RtCzFJcgT6N3DbLbDe+RDTr7BkcjmzFpeWj/nZX9LYZUDuty8BKOry4p+ekoOdqdSH0cbIFh2DorMXuPd1zFBX8kaSOfTuwMAHwz0Hz+KnrrmmQ+yxKG27oA8xdRCnGJoFx4doU545nhrY9fl2WEcja43CJ+RTfG++p3o2ybIxjGEJ5AAW8UmHJWjylxxMNUicw1nxr4S/0x8wxLNJ7bg2FoA1Sc+mwf2a+cEhltKZisuvpug==","691f8ca61c6b4dcbb0aeb5f4","691f8f1d27191784d9e8c4a6","index1","<span style='color:red'>Fail,<span style='color:red'>Fail,<span style='color:green'>Lift,<span style='color:green'>Lift,<span style='color:red'>Fail,<span style='color:red'>Fail,<span style='color:red'>Fail,<span style='color:red'>Fail,<span style='color:green'>Lift,<span style='color:red'>Fail,<span style='color:green'>Lift,<span style='color:red'>Fail","<span style='color:red'>Fail,<span style='color:red'>Fail,<span style='color:green'>Lift,<span style='color:green'>Lift,<span style='color:green'>Lift,<span style='color:green'>Lift,<span style='color:red'>Fail,<span style='color:green'>Lift,<span style='color:green'>Lift,<span style='color:green'>Lift,<span style='color:green'>Lift,<span style='color:red'>Fail","<span style='color:red'>Fail,<span style='color:green'>Lift,<span style='color:green'>Lift,<span style='color:red'>Fail,<span style='color:green'>Lift,<span style='color:green'>Lift","0,0,1,1,0,0,0,0,1,0,1,0","0,0,1,1,1,1,0,1,1,1,1,0","0,1,1,0,1,1",10,20,20,"","","","","{""box1"":""2"",""box2"":""2""}","",NA,1,"round1_outcome",1,1,1,2,2,NA,NA,0,0,10,2,2,NA,NA,0,0,10,NA,NA,NA,NA,NA,NA,NA,NA,NA,NA,NA,NA,NA,NA,NA,NA,NA,NA,NA,NA,NA,NA,NA,"",NA,NA,NA,NA,NA,NA,NA,NA,2025-11-20 22:24:28
"15212.60000000149","https://psyc-201.github.io/xiang2023/exp/index1.html?PROLIFIC_PID=REDACTED&STUDY_ID=691f8ca61c6b4dcbb0aeb5f4&SESSION_ID=691f8f1d27191784d9e8c4a6","survey-html-form",13,833668,"0.0-309.0","sCDM/3wl2Qw4fMoUU/+U/iD/uE9kVopAU+LwMIV2xJrXfRZCZH7SzoOoCSCzx7Zh8xjy8N5mm80Fcrtun8AWFZDjeNMlCHP0uOsU9RtCzFJcgT6N3DbLbDe+RDTr7BkcjmzFpeWj/nZX9LYZUDuty8BKOry4p+ekoOdqdSH0cbIFh2DorMXuPd1zFBX8kaSOfTuwMAHwz0Hz+KnrrmmQ+yxKG27oA8xdRCnGJoFx4doU545nhrY9fl2WEcja43CJ+RTfG++p3o2ybIxjGEJ5AAW8UmHJWjylxxMNUicw1nxr4S/0x8wxLNJ7bg2FoA1Sc+mwf2a+cEhltKZisuvpug==","691f8ca61c6b4dcbb0aeb5f4","691f8f1d27191784d9e8c4a6","index1","<span style='color:red'>Fail,<span style='color:red'>Fail,<span style='color:green'>Lift,<span style='color:green'>Lift,<span style='color:red'>Fail,<span style='color:red'>Fail,<span style='color:red'>Fail,<span style='color:red'>Fail,<span style='color:green'>Lift,<span style='color:red'>Fail,<span style='color:green'>Lift,<span style='color:red'>Fail","<span style='color:red'>Fail,<span style='color:red'>Fail,<span style='color:green'>Lift,<span style='color:green'>Lift,<span style='color:green'>Lift,<span style='color:green'>Lift,<span style='color:red'>Fail,<span style='color:green'>Lift,<span style='color:green'>Lift,<span style='color:green'>Lift,<span style='color:green'>Lift,<span style='color:red'>Fail","<span style='color:red'>Fail,<span style='color:green'>Lift,<span style='color:green'>Lift,<span style='color:red'>Fail,<span style='color:green'>Lift,<span style='color:green'>Lift","0,0,1,1,0,0,0,0,1,0,1,0","0,0,1,1,1,1,0,1,1,1,1,0","0,1,1,0,1,1",10,20,20,"","","","","{""box1"":""25"",""box2"":""25""}","",NA,1,"round2_ready",2,1,2,NA,NA,NA,NA,NA,NA,NA,NA,NA,NA,NA,NA,NA,NA,25,25,25,25,NA,NA,NA,NA,NA,NA,NA,NA,NA,NA,NA,NA,NA,NA,NA,NA,NA,NA,NA,"",NA,NA,NA,NA,NA,NA,NA,NA,2025-11-20 22:24:28
"25798","https://psyc-201.github.io/xiang2023/exp/index1.html?PROLIFIC_PID=REDACTED&STUDY_ID=691f8ca61c6b4dcbb0aeb5f4&SESSION_ID=691f8f1d27191784d9e8c4a6","survey-html-form",14,859467,"0.0-310.0","sCDM/3wl2Qw4fMoUU/+U/iD/uE9kVopAU+LwMIV2xJrXfRZCZH7SzoOoCSCzx7Zh8xjy8N5mm80Fcrtun8AWFZDjeNMlCHP0uOsU9RtCzFJcgT6N3DbLbDe+RDTr7BkcjmzFpeWj/nZX9LYZUDuty8BKOry4p+ekoOdqdSH0cbIFh2DorMXuPd1zFBX8kaSOfTuwMAHwz0Hz+KnrrmmQ+yxKG27oA8xdRCnGJoFx4doU545nhrY9fl2WEcja43CJ+RTfG++p3o2ybIxjGEJ5AAW8UmHJWjylxxMNUicw1nxr4S/0x8wxLNJ7bg2FoA1Sc+mwf2a+cEhltKZisuvpug==","691f8ca61c6b4dcbb0aeb5f4","691f8f1d27191784d9e8c4a6","index1","<span style='color:red'>Fail,<span style='color:red'>Fail,<span style='color:green'>Lift,<span style='color:green'>Lift,<span style='color:red'>Fail,<span style='color:red'>Fail,<span style='color:red'>Fail,<span style='color:red'>Fail,<span style='color:green'>Lift,<span style='color:red'>Fail,<span style='color:green'>Lift,<span style='color:red'>Fail","<span style='color:red'>Fail,<span style='color:red'>Fail,<span style='color:green'>Lift,<span style='color:green'>Lift,<span style='color:green'>Lift,<span style='color:green'>Lift,<span style='color:red'>Fail,<span style='color:green'>Lift,<span style='color:green'>Lift,<span style='color:green'>Lift,<span style='color:green'>Lift,<span style='color:red'>Fail","<span style='color:red'>Fail,<span style='color:green'>Lift,<span style='color:green'>Lift,<span style='color:red'>Fail,<span style='color:green'>Lift,<span style='color:green'>Lift","0,0,1,1,0,0,0,0,1,0,1,0","0,0,1,1,1,1,0,1,1,1,1,0","0,1,1,0,1,1",10,20,20,"","","","","{""box1"":""4"",""box2"":""4"",""box3"":""100"",""box4"":""100""}","",NA,1,"round2_outcome",3,1,2,4,4,100,100,1,1,20,NA,NA,NA,NA,NA,NA,NA,NA,NA,NA,NA,4,4,100,100,1,1,20,NA,NA,NA,NA,NA,NA,NA,NA,NA,NA,NA,NA,"",NA,NA,NA,NA,NA,NA,NA,NA,2025-11-20 22:24:28
"7957.199999999255","https://psyc-201.github.io/xiang2023/exp/index1.html?PROLIFIC_PID=REDACTED&STUDY_ID=691f8ca61c6b4dcbb0aeb5f4&SESSION_ID=691f8f1d27191784d9e8c4a6","survey-html-form",15,867425,"0.0-311.0","sCDM/3wl2Qw4fMoUU/+U/iD/uE9kVopAU+LwMIV2xJrXfRZCZH7SzoOoCSCzx7Zh8xjy8N5mm80Fcrtun8AWFZDjeNMlCHP0uOsU9RtCzFJcgT6N3DbLbDe+RDTr7BkcjmzFpeWj/nZX9LYZUDuty8BKOry4p+ekoOdqdSH0cbIFh2DorMXuPd1zFBX8kaSOfTuwMAHwz0Hz+KnrrmmQ+yxKG27oA8xdRCnGJoFx4doU545nhrY9fl2WEcja43CJ+RTfG++p3o2ybIxjGEJ5AAW8UmHJWjylxxMNUicw1nxr4S/0x8wxLNJ7bg2FoA1Sc+mwf2a+cEhltKZisuvpug==","691f8ca61c6b4dcbb0aeb5f4","691f8f1d27191784d9e8c4a6","index1","<span style='color:red'>Fail,<span style='color:red'>Fail,<span style='color:green'>Lift,<span style='color:green'>Lift,<span style='color:red'>Fail,<span style='color:red'>Fail,<span style='color:red'>Fail,<span style='color:red'>Fail,<span style='color:green'>Lift,<span style='color:red'>Fail,<span style='color:green'>Lift,<span style='color:red'>Fail","<span style='color:red'>Fail,<span style='color:red'>Fail,<span style='color:green'>Lift,<span style='color:green'>Lift,<span style='color:green'>Lift,<span style='color:green'>Lift,<span style='color:red'>Fail,<span style='color:green'>Lift,<span style='color:green'>Lift,<span style='color:green'>Lift,<span style='color:green'>Lift,<span style='color:red'>Fail","<span style='color:red'>Fail,<span style='color:green'>Lift,<span style='color:green'>Lift,<span style='color:red'>Fail,<span style='color:green'>Lift,<span style='color:green'>Lift","0,0,1,1,0,0,0,0,1,0,1,0","0,0,1,1,1,1,0,1,1,1,1,0","0,1,1,0,1,1",10,20,20,"","","","","{""box1"":""100""}","",NA,1,"round3_ready",4,1,3,NA,NA,NA,NA,NA,NA,NA,NA,NA,NA,NA,NA,NA,NA,100,100,NA,NA,NA,NA,NA,NA,NA,NA,NA,100,100,NA,NA,NA,NA,NA,NA,NA,NA,NA,NA,"",NA,NA,NA,NA,NA,NA,NA,NA,2025-11-20 22:24:28
"16727.199999999255","https://psyc-201.github.io/xiang2023/exp/index1.html?PROLIFIC_PID=REDACTED&STUDY_ID=691f8ca61c6b4dcbb0aeb5f4&SESSION_ID=691f8f1d27191784d9e8c4a6","survey-html-form",16,884154,"0.0-312.0-0.0","sCDM/3wl2Qw4fMoUU/+U/iD/uE9kVopAU+LwMIV2xJrXfRZCZH7SzoOoCSCzx7Zh8xjy8N5mm80Fcrtun8AWFZDjeNMlCHP0uOsU9RtCzFJcgT6N3DbLbDe+RDTr7BkcjmzFpeWj/nZX9LYZUDuty8BKOry4p+ekoOdqdSH0cbIFh2DorMXuPd1zFBX8kaSOfTuwMAHwz0Hz+KnrrmmQ+yxKG27oA8xdRCnGJoFx4doU545nhrY9fl2WEcja43CJ+RTfG++p3o2ybIxjGEJ5AAW8UmHJWjylxxMNUicw1nxr4S/0x8wxLNJ7bg2FoA1Sc+mwf2a+cEhltKZisuvpug==","691f8ca61c6b4dcbb0aeb5f4","691f8f1d27191784d9e8c4a6","index1","<span style='color:red'>Fail,<span style='color:red'>Fail,<span style='color:green'>Lift,<span style='color:green'>Lift,<span style='color:red'>Fail,<span style='color:red'>Fail,<span style='color:red'>Fail,<span style='color:red'>Fail,<span style='color:green'>Lift,<span style='color:red'>Fail,<span style='color:green'>Lift,<span style='color:red'>Fail","<span style='color:red'>Fail,<span style='color:red'>Fail,<span style='color:green'>Lift,<span style='color:green'>Lift,<span style='color:green'>Lift,<span style='color:green'>Lift,<span style='color:red'>Fail,<span style='color:green'>Lift,<span style='color:green'>Lift,<span style='color:green'>Lift,<span style='color:green'>Lift,<span style='color:red'>Fail","<span style='color:red'>Fail,<span style='color:green'>Lift,<span style='color:green'>Lift,<span style='color:red'>Fail,<span style='color:green'>Lift,<span style='color:green'>Lift","0,0,1,1,0,0,0,0,1,0,1,0","0,0,1,1,1,1,0,1,1,1,1,0","0,1,1,0,1,1",10,20,20,"","","","","{""box1"":""4"",""box2"":""4"",""box3"":""50"",""box4"":""50""}","",NA,2,"round3_lift",5,1,3,4,4,50,50,1,1,20,NA,NA,NA,NA,NA,NA,NA,NA,NA,NA,NA,NA,NA,NA,NA,NA,NA,NA,NA,NA,4,4,50,50,1,1,20,NA,NA,NA,"",NA,NA,NA,NA,NA,NA,NA,NA,2025-11-20 22:24:28
"null","https://psyc-201.github.io/xiang2023/exp/index1.html?PROLIFIC_PID=REDACTED&STUDY_ID=691f8ca61c6b4dcbb0aeb5f4&SESSION_ID=691f8f1d27191784d9e8c4a6","html-keyboard-response",17,887159,"0.0-316.0","sCDM/3wl2Qw4fMoUU/+U/iD/uE9kVopAU+LwMIV2xJrXfRZCZH7SzoOoCSCzx7Zh8xjy8N5mm80Fcrtun8AWFZDjeNMlCHP0uOsU9RtCzFJcgT6N3DbLbDe+RDTr7BkcjmzFpeWj/nZX9LYZUDuty8BKOry4p+ekoOdqdSH0cbIFh2DorMXuPd1zFBX8kaSOfTuwMAHwz0Hz+KnrrmmQ+yxKG27oA8xdRCnGJoFx4doU545nhrY9fl2WEcja43CJ+RTfG++p3o2ybIxjGEJ5AAW8UmHJWjylxxMNUicw1nxr4S/0x8wxLNJ7bg2FoA1Sc+mwf2a+cEhltKZisuvpug==","691f8ca61c6b4dcbb0aeb5f4","691f8f1d27191784d9e8c4a6","index1","<span style='color:red'>Fail,<span style='color:red'>Fail,<span style='color:green'>Lift,<span style='color:green'>Lift,<span style='color:red'>Fail,<span style='color:red'>Fail,<span style='color:red'>Fail,<span style='color:red'>Fail,<span style='color:green'>Lift,<span style='color:red'>Fail,<span style='color:green'>Lift,<span style='color:red'>Fail","<span style='color:red'>Fail,<span style='color:red'>Fail,<span style='color:green'>Lift,<span style='color:green'>Lift,<span style='color:green'>Lift,<span style='color:green'>Lift,<span style='color:red'>Fail,<span style='color:green'>Lift,<span style='color:green'>Lift,<span style='color:green'>Lift,<span style='color:green'>Lift,<span style='color:red'>Fail","<span style='color:red'>Fail,<span style='color:green'>Lift,<span style='color:green'>Lift,<span style='color:red'>Fail,<span style='color:green'>Lift,<span style='color:green'>Lift","0,0,1,1,0,0,0,0,1,0,1,0","0,0,1,1,1,1,0,1,1,1,1,0","0,1,1,0,1,1",10,20,20,"","","<p style='font-size:30px'><b> New Contest! </b></p>","null","","",NA,2,"",NA,NA,NA,NA,NA,NA,NA,NA,NA,NA,NA,NA,NA,NA,NA,NA,NA,NA,NA,NA,NA,NA,NA,NA,NA,NA,NA,NA,NA,NA,NA,NA,NA,NA,NA,NA,NA,NA,NA,NA,"",NA,NA,NA,NA,NA,NA,NA,NA,2025-11-20 22:24:28
"38725.199999999255","https://psyc-201.github.io/xiang2023/exp/index1.html?PROLIFIC_PID=REDACTED&STUDY_ID=691f8ca61c6b4dcbb0aeb5f4&SESSION_ID=691f8f1d27191784d9e8c4a6","survey-html-form",18,925886,"0.0-317.0","sCDM/3wl2Qw4fMoUU/+U/iD/uE9kVopAU+LwMIV2xJrXfRZCZH7SzoOoCSCzx7Zh8xjy8N5mm80Fcrtun8AWFZDjeNMlCHP0uOsU9RtCzFJcgT6N3DbLbDe+RDTr7BkcjmzFpeWj/nZX9LYZUDuty8BKOry4p+ekoOdqdSH0cbIFh2DorMXuPd1zFBX8kaSOfTuwMAHwz0Hz+KnrrmmQ+yxKG27oA8xdRCnGJoFx4doU545nhrY9fl2WEcja43CJ+RTfG++p3o2ybIxjGEJ5AAW8UmHJWjylxxMNUicw1nxr4S/0x8wxLNJ7bg2FoA1Sc+mwf2a+cEhltKZisuvpug==","691f8ca61c6b4dcbb0aeb5f4","691f8f1d27191784d9e8c4a6","index1","<span style='color:red'>Fail,<span style='color:red'>Fail,<span style='color:green'>Lift,<span style='color:green'>Lift,<span style='color:red'>Fail,<span style='color:red'>Fail,<span style='color:red'>Fail,<span style='color:red'>Fail,<span style='color:green'>Lift,<span style='color:red'>Fail,<span style='color:green'>Lift,<span style='color:red'>Fail","<span style='color:red'>Fail,<span style='color:red'>Fail,<span style='color:green'>Lift,<span style='color:green'>Lift,<span style='color:green'>Lift,<span style='color:green'>Lift,<span style='color:red'>Fail,<span style='color:green'>Lift,<span style='color:green'>Lift,<span style='color:green'>Lift,<span style='color:green'>Lift,<span style='color:red'>Fail","<span style='color:red'>Fail,<span style='color:green'>Lift,<span style='color:green'>Lift,<span style='color:red'>Fail,<span style='color:green'>Lift,<span style='color:green'>Lift","0,0,1,1,0,0,0,0,1,0,1,0","0,0,1,1,1,1,0,1,1,1,1,0","0,1,1,0,1,1",10,20,20,"","","","","{""box1"":""2"",""box2"":""2""}","",NA,2,"round1_outcome",1,2,1,2,2,NA,NA,0,0,10,2,2,NA,NA,0,0,10,NA,NA,NA,NA,NA,NA,NA,NA,NA,NA,NA,NA,NA,NA,NA,NA,NA,NA,NA,NA,NA,NA,NA,"",NA,NA,NA,NA,NA,NA,NA,NA,2025-11-20 22:24:28
"9475.300000000745","https://psyc-201.github.io/xiang2023/exp/index1.html?PROLIFIC_PID=REDACTED&STUDY_ID=691f8ca61c6b4dcbb0aeb5f4&SESSION_ID=691f8f1d27191784d9e8c4a6","survey-html-form",19,935362,"0.0-318.0","sCDM/3wl2Qw4fMoUU/+U/iD/uE9kVopAU+LwMIV2xJrXfRZCZH7SzoOoCSCzx7Zh8xjy8N5mm80Fcrtun8AWFZDjeNMlCHP0uOsU9RtCzFJcgT6N3DbLbDe+RDTr7BkcjmzFpeWj/nZX9LYZUDuty8BKOry4p+ekoOdqdSH0cbIFh2DorMXuPd1zFBX8kaSOfTuwMAHwz0Hz+KnrrmmQ+yxKG27oA8xdRCnGJoFx4doU545nhrY9fl2WEcja43CJ+RTfG++p3o2ybIxjGEJ5AAW8UmHJWjylxxMNUicw1nxr4S/0x8wxLNJ7bg2FoA1Sc+mwf2a+cEhltKZisuvpug==","691f8ca61c6b4dcbb0aeb5f4","691f8f1d27191784d9e8c4a6","index1","<span style='color:red'>Fail,<span style='color:red'>Fail,<span style='color:green'>Lift,<span style='color:green'>Lift,<span style='color:red'>Fail,<span style='color:red'>Fail,<span style='color:red'>Fail,<span style='color:red'>Fail,<span style='color:green'>Lift,<span style='color:red'>Fail,<span style='color:green'>Lift,<span style='color:red'>Fail","<span style='color:red'>Fail,<span style='color:red'>Fail,<span style='color:green'>Lift,<span style='color:green'>Lift,<span style='color:green'>Lift,<span style='color:green'>Lift,<span style='color:red'>Fail,<span style='color:green'>Lift,<span style='color:green'>Lift,<span style='color:green'>Lift,<span style='color:green'>Lift,<span style='color:red'>Fail","<span style='color:red'>Fail,<span style='color:green'>Lift,<span style='color:green'>Lift,<span style='color:red'>Fail,<span style='color:green'>Lift,<span style='color:green'>Lift","0,0,1,1,0,0,0,0,1,0,1,0","0,0,1,1,1,1,0,1,1,1,1,0","0,1,1,0,1,1",10,20,20,"","","","","{""box1"":""50"",""box2"":""50""}","",NA,2,"round2_ready",2,2,2,NA,NA,NA,NA,NA,NA,NA,NA,NA,NA,NA,NA,NA,NA,50,50,50,50,NA,NA,NA,NA,NA,NA,NA,NA,NA,NA,NA,NA,NA,NA,NA,NA,NA,NA,NA,"",NA,NA,NA,NA,NA,NA,NA,NA,2025-11-20 22:24:28
"8498.099999997765","https://psyc-201.github.io/xiang2023/exp/index1.html?PROLIFIC_PID=REDACTED&STUDY_ID=691f8ca61c6b4dcbb0aeb5f4&SESSION_ID=691f8f1d27191784d9e8c4a6","survey-html-form",20,943861,"0.0-319.0","sCDM/3wl2Qw4fMoUU/+U/iD/uE9kVopAU+LwMIV2xJrXfRZCZH7SzoOoCSCzx7Zh8xjy8N5mm80Fcrtun8AWFZDjeNMlCHP0uOsU9RtCzFJcgT6N3DbLbDe+RDTr7BkcjmzFpeWj/nZX9LYZUDuty8BKOry4p+ekoOdqdSH0cbIFh2DorMXuPd1zFBX8kaSOfTuwMAHwz0Hz+KnrrmmQ+yxKG27oA8xdRCnGJoFx4doU545nhrY9fl2WEcja43CJ+RTfG++p3o2ybIxjGEJ5AAW8UmHJWjylxxMNUicw1nxr4S/0x8wxLNJ7bg2FoA1Sc+mwf2a+cEhltKZisuvpug==","691f8ca61c6b4dcbb0aeb5f4","691f8f1d27191784d9e8c4a6","index1","<span style='color:red'>Fail,<span style='color:red'>Fail,<span style='color:green'>Lift,<span style='color:green'>Lift,<span style='color:red'>Fail,<span style='color:red'>Fail,<span style='color:red'>Fail,<span style='color:red'>Fail,<span style='color:green'>Lift,<span style='color:red'>Fail,<span style='color:green'>Lift,<span style='color:red'>Fail","<span style='color:red'>Fail,<span style='color:red'>Fail,<span style='color:green'>Lift,<span style='color:green'>Lift,<span style='color:green'>Lift,<span style='color:green'>Lift,<span style='color:red'>Fail,<span style='color:green'>Lift,<span style='color:green'>Lift,<span style='color:green'>Lift,<span style='color:green'>Lift,<span style='color:red'>Fail","<span style='color:red'>Fail,<span style='color:green'>Lift,<span style='color:green'>Lift,<span style='color:red'>Fail,<span style='color:green'>Lift,<span style='color:green'>Lift","0,0,1,1,0,0,0,0,1,0,1,0","0,0,1,1,1,1,0,1,1,1,1,0","0,1,1,0,1,1",10,20,20,"","","","","{""box1"":""2"",""box2"":""2""}","",NA,2,"round2_outcome",3,2,2,2,2,NA,NA,0,0,20,NA,NA,NA,NA,NA,NA,NA,NA,NA,NA,NA,2,2,NA,NA,0,0,20,NA,NA,NA,NA,NA,NA,NA,NA,NA,NA,NA,NA,"",NA,NA,NA,NA,NA,NA,NA,NA,2025-11-20 22:24:28
"8094.60000000149","https://psyc-201.github.io/xiang2023/exp/index1.html?PROLIFIC_PID=REDACTED&STUDY_ID=691f8ca61c6b4dcbb0aeb5f4&SESSION_ID=691f8f1d27191784d9e8c4a6","survey-html-form",21,951957,"0.0-320.0","sCDM/3wl2Qw4fMoUU/+U/iD/uE9kVopAU+LwMIV2xJrXfRZCZH7SzoOoCSCzx7Zh8xjy8N5mm80Fcrtun8AWFZDjeNMlCHP0uOsU9RtCzFJcgT6N3DbLbDe+RDTr7BkcjmzFpeWj/nZX9LYZUDuty8BKOry4p+ekoOdqdSH0cbIFh2DorMXuPd1zFBX8kaSOfTuwMAHwz0Hz+KnrrmmQ+yxKG27oA8xdRCnGJoFx4doU545nhrY9fl2WEcja43CJ+RTfG++p3o2ybIxjGEJ5AAW8UmHJWjylxxMNUicw1nxr4S/0x8wxLNJ7bg2FoA1Sc+mwf2a+cEhltKZisuvpug==","691f8ca61c6b4dcbb0aeb5f4","691f8f1d27191784d9e8c4a6","index1","<span style='color:red'>Fail,<span style='color:red'>Fail,<span style='color:green'>Lift,<span style='color:green'>Lift,<span style='color:red'>Fail,<span style='color:red'>Fail,<span style='color:red'>Fail,<span style='color:red'>Fail,<span style='color:green'>Lift,<span style='color:red'>Fail,<span style='color:green'>Lift,<span style='color:red'>Fail","<span style='color:red'>Fail,<span style='color:red'>Fail,<span style='color:green'>Lift,<span style='color:green'>Lift,<span style='color:green'>Lift,<span style='color:green'>Lift,<span style='color:red'>Fail,<span style='color:green'>Lift,<span style='color:green'>Lift,<span style='color:green'>Lift,<span style='color:green'>Lift,<span style='color:red'>Fail","<span style='color:red'>Fail,<span style='color:green'>Lift,<span style='color:green'>Lift,<span style='color:red'>Fail,<span style='color:green'>Lift,<span style='color:green'>Lift","0,0,1,1,0,0,0,0,1,0,1,0","0,0,1,1,1,1,0,1,1,1,1,0","0,1,1,0,1,1",10,20,20,"","","","","{""box1"":""75""}","",NA,2,"round3_ready",4,2,3,NA,NA,NA,NA,NA,NA,NA,NA,NA,NA,NA,NA,NA,NA,75,75,NA,NA,NA,NA,NA,NA,NA,NA,NA,75,75,NA,NA,NA,NA,NA,NA,NA,NA,NA,NA,"",NA,NA,NA,NA,NA,NA,NA,NA,2025-11-20 22:24:28
"16376.70000000298","https://psyc-201.github.io/xiang2023/exp/index1.html?PROLIFIC_PID=REDACTED&STUDY_ID=691f8ca61c6b4dcbb0aeb5f4&SESSION_ID=691f8f1d27191784d9e8c4a6","survey-html-form",22,968334,"0.0-322.0-0.0","sCDM/3wl2Qw4fMoUU/+U/iD/uE9kVopAU+LwMIV2xJrXfRZCZH7SzoOoCSCzx7Zh8xjy8N5mm80Fcrtun8AWFZDjeNMlCHP0uOsU9RtCzFJcgT6N3DbLbDe+RDTr7BkcjmzFpeWj/nZX9LYZUDuty8BKOry4p+ekoOdqdSH0cbIFh2DorMXuPd1zFBX8kaSOfTuwMAHwz0Hz+KnrrmmQ+yxKG27oA8xdRCnGJoFx4doU545nhrY9fl2WEcja43CJ+RTfG++p3o2ybIxjGEJ5AAW8UmHJWjylxxMNUicw1nxr4S/0x8wxLNJ7bg2FoA1Sc+mwf2a+cEhltKZisuvpug==","691f8ca61c6b4dcbb0aeb5f4","691f8f1d27191784d9e8c4a6","index1","<span style='color:red'>Fail,<span style='color:red'>Fail,<span style='color:green'>Lift,<span style='color:green'>Lift,<span style='color:red'>Fail,<span style='color:red'>Fail,<span style='color:red'>Fail,<span style='color:red'>Fail,<span style='color:green'>Lift,<span style='color:red'>Fail,<span style='color:green'>Lift,<span style='color:red'>Fail","<span style='color:red'>Fail,<span style='color:red'>Fail,<span style='color:green'>Lift,<span style='color:green'>Lift,<span style='color:green'>Lift,<span style='color:green'>Lift,<span style='color:red'>Fail,<span style='color:green'>Lift,<span style='color:green'>Lift,<span style='color:green'>Lift,<span style='color:green'>Lift,<span style='color:red'>Fail","<span style='color:red'>Fail,<span style='color:green'>Lift,<span style='color:green'>Lift,<span style='color:red'>Fail,<span style='color:green'>Lift,<span style='color:green'>Lift","0,0,1,1,0,0,0,0,1,0,1,0","0,0,1,1,1,1,0,1,1,1,1,0","0,1,1,0,1,1",10,20,20,"","","","","{""box1"":""1"",""box2"":""1"",""box3"":""70"",""box4"":""70""}","",NA,2,"round3_fail",5,2,3,1,1,NA,NA,0,0,20,NA,NA,NA,NA,NA,NA,NA,NA,NA,NA,NA,NA,NA,NA,NA,NA,NA,NA,NA,NA,1,1,NA,NA,0,0,20,0,1,NA,"",NA,NA,NA,NA,NA,NA,NA,NA,2025-11-20 22:24:28
"null","https://psyc-201.github.io/xiang2023/exp/index1.html?PROLIFIC_PID=REDACTED&STUDY_ID=691f8ca61c6b4dcbb0aeb5f4&SESSION_ID=691f8f1d27191784d9e8c4a6","html-keyboard-response",23,973336,"0.0-323.0-0.0","sCDM/3wl2Qw4fMoUU/+U/iD/uE9kVopAU+LwMIV2xJrXfRZCZH7SzoOoCSCzx7Zh8xjy8N5mm80Fcrtun8AWFZDjeNMlCHP0uOsU9RtCzFJcgT6N3DbLbDe+RDTr7BkcjmzFpeWj/nZX9LYZUDuty8BKOry4p+ekoOdqdSH0cbIFh2DorMXuPd1zFBX8kaSOfTuwMAHwz0Hz+KnrrmmQ+yxKG27oA8xdRCnGJoFx4doU545nhrY9fl2WEcja43CJ+RTfG++p3o2ybIxjGEJ5AAW8UmHJWjylxxMNUicw1nxr4S/0x8wxLNJ7bg2FoA1Sc+mwf2a+cEhltKZisuvpug==","691f8ca61c6b4dcbb0aeb5f4","691f8f1d27191784d9e8c4a6","index1","<span style='color:red'>Fail,<span style='color:red'>Fail,<span style='color:green'>Lift,<span style='color:green'>Lift,<span style='color:red'>Fail,<span style='color:red'>Fail,<span style='color:red'>Fail,<span style='color:red'>Fail,<span style='color:green'>Lift,<span style='color:red'>Fail,<span style='color:green'>Lift,<span style='color:red'>Fail","<span style='color:red'>Fail,<span style='color:red'>Fail,<span style='color:green'>Lift,<span style='color:green'>Lift,<span style='color:green'>Lift,<span style='color:green'>Lift,<span style='color:red'>Fail,<span style='color:green'>Lift,<span style='color:green'>Lift,<span style='color:green'>Lift,<span style='color:green'>Lift,<span style='color:red'>Fail","<span style='color:red'>Fail,<span style='color:green'>Lift,<span style='color:green'>Lift,<span style='color:red'>Fail,<span style='color:green'>Lift,<span style='color:green'>Lift","0,0,1,1,0,0,0,0,1,0,1,0","0,0,1,1,1,1,0,1,1,1,1,0","0,1,1,0,1,1",10,20,20,"","","<p> <b>Oops you failed an attention check!</b> </p><p> <b>We will have to discard your data if you fail another one.</b> </p><p> <b>Please pay more attention!</b> </p>","null","","",NA,3,"warning",NA,NA,NA,NA,NA,NA,NA,NA,NA,NA,NA,NA,NA,NA,NA,NA,NA,NA,NA,NA,NA,NA,NA,NA,NA,NA,NA,NA,NA,NA,NA,NA,NA,NA,NA,NA,NA,NA,NA,1,"",NA,NA,NA,NA,NA,NA,NA,NA,2025-11-20 22:24:28
"null","https://psyc-201.github.io/xiang2023/exp/index1.html?PROLIFIC_PID=REDACTED&STUDY_ID=691f8ca61c6b4dcbb0aeb5f4&SESSION_ID=691f8f1d27191784d9e8c4a6","html-keyboard-response",24,976350,"0.0-325.0","sCDM/3wl2Qw4fMoUU/+U/iD/uE9kVopAU+LwMIV2xJrXfRZCZH7SzoOoCSCzx7Zh8xjy8N5mm80Fcrtun8AWFZDjeNMlCHP0uOsU9RtCzFJcgT6N3DbLbDe+RDTr7BkcjmzFpeWj/nZX9LYZUDuty8BKOry4p+ekoOdqdSH0cbIFh2DorMXuPd1zFBX8kaSOfTuwMAHwz0Hz+KnrrmmQ+yxKG27oA8xdRCnGJoFx4doU545nhrY9fl2WEcja43CJ+RTfG++p3o2ybIxjGEJ5AAW8UmHJWjylxxMNUicw1nxr4S/0x8wxLNJ7bg2FoA1Sc+mwf2a+cEhltKZisuvpug==","691f8ca61c6b4dcbb0aeb5f4","691f8f1d27191784d9e8c4a6","index1","<span style='color:red'>Fail,<span style='color:red'>Fail,<span style='color:green'>Lift,<span style='color:green'>Lift,<span style='color:red'>Fail,<span style='color:red'>Fail,<span style='color:red'>Fail,<span style='color:red'>Fail,<span style='color:green'>Lift,<span style='color:red'>Fail,<span style='color:green'>Lift,<span style='color:red'>Fail","<span style='color:red'>Fail,<span style='color:red'>Fail,<span style='color:green'>Lift,<span style='color:green'>Lift,<span style='color:green'>Lift,<span style='color:green'>Lift,<span style='color:red'>Fail,<span style='color:green'>Lift,<span style='color:green'>Lift,<span style='color:green'>Lift,<span style='color:green'>Lift,<span style='color:red'>Fail","<span style='color:red'>Fail,<span style='color:green'>Lift,<span style='color:green'>Lift,<span style='color:red'>Fail,<span style='color:green'>Lift,<span style='color:green'>Lift","0,0,1,1,0,0,0,0,1,0,1,0","0,0,1,1,1,1,0,1,1,1,1,0","0,1,1,0,1,1",10,20,20,"","","<p style='font-size:30px'><b> New Contest! </b></p>","null","","",NA,3,"",NA,NA,NA,NA,NA,NA,NA,NA,NA,NA,NA,NA,NA,NA,NA,NA,NA,NA,NA,NA,NA,NA,NA,NA,NA,NA,NA,NA,NA,NA,NA,NA,NA,NA,NA,NA,NA,NA,NA,NA,"",NA,NA,NA,NA,NA,NA,NA,NA,2025-11-20 22:24:28
"8867.800000000745","https://psyc-201.github.io/xiang2023/exp/index1.html?PROLIFIC_PID=REDACTED&STUDY_ID=691f8ca61c6b4dcbb0aeb5f4&SESSION_ID=691f8f1d27191784d9e8c4a6","survey-html-form",25,985218,"0.0-326.0","sCDM/3wl2Qw4fMoUU/+U/iD/uE9kVopAU+LwMIV2xJrXfRZCZH7SzoOoCSCzx7Zh8xjy8N5mm80Fcrtun8AWFZDjeNMlCHP0uOsU9RtCzFJcgT6N3DbLbDe+RDTr7BkcjmzFpeWj/nZX9LYZUDuty8BKOry4p+ekoOdqdSH0cbIFh2DorMXuPd1zFBX8kaSOfTuwMAHwz0Hz+KnrrmmQ+yxKG27oA8xdRCnGJoFx4doU545nhrY9fl2WEcja43CJ+RTfG++p3o2ybIxjGEJ5AAW8UmHJWjylxxMNUicw1nxr4S/0x8wxLNJ7bg2FoA1Sc+mwf2a+cEhltKZisuvpug==","691f8ca61c6b4dcbb0aeb5f4","691f8f1d27191784d9e8c4a6","index1","<span style='color:red'>Fail,<span style='color:red'>Fail,<span style='color:green'>Lift,<span style='color:green'>Lift,<span style='color:red'>Fail,<span style='color:red'>Fail,<span style='color:red'>Fail,<span style='color:red'>Fail,<span style='color:green'>Lift,<span style='color:red'>Fail,<span style='color:green'>Lift,<span style='color:red'>Fail","<span style='color:red'>Fail,<span style='color:red'>Fail,<span style='color:green'>Lift,<span style='color:green'>Lift,<span style='color:green'>Lift,<span style='color:green'>Lift,<span style='color:red'>Fail,<span style='color:green'>Lift,<span style='color:green'>Lift,<span style='color:green'>Lift,<span style='color:green'>Lift,<span style='color:red'>Fail","<span style='color:red'>Fail,<span style='color:green'>Lift,<span style='color:green'>Lift,<span style='color:red'>Fail,<span style='color:green'>Lift,<span style='color:green'>Lift","0,0,1,1,0,0,0,0,1,0,1,0","0,0,1,1,1,1,0,1,1,1,1,0","0,1,1,0,1,1",10,20,20,"","","","","{""box1"":""1"",""box2"":""1""}","",NA,3,"round1_outcome",1,3,1,1,1,NA,NA,0,0,10,1,1,NA,NA,0,0,10,NA,NA,NA,NA,NA,NA,NA,NA,NA,NA,NA,NA,NA,NA,NA,NA,NA,NA,NA,NA,NA,NA,NA,"",NA,NA,NA,NA,NA,NA,NA,NA,2025-11-20 22:24:28
"9120.39999999851","https://psyc-201.github.io/xiang2023/exp/index1.html?PROLIFIC_PID=REDACTED&STUDY_ID=691f8ca61c6b4dcbb0aeb5f4&SESSION_ID=691f8f1d27191784d9e8c4a6","survey-html-form",26,994340,"0.0-327.0","sCDM/3wl2Qw4fMoUU/+U/iD/uE9kVopAU+LwMIV2xJrXfRZCZH7SzoOoCSCzx7Zh8xjy8N5mm80Fcrtun8AWFZDjeNMlCHP0uOsU9RtCzFJcgT6N3DbLbDe+RDTr7BkcjmzFpeWj/nZX9LYZUDuty8BKOry4p+ekoOdqdSH0cbIFh2DorMXuPd1zFBX8kaSOfTuwMAHwz0Hz+KnrrmmQ+yxKG27oA8xdRCnGJoFx4doU545nhrY9fl2WEcja43CJ+RTfG++p3o2ybIxjGEJ5AAW8UmHJWjylxxMNUicw1nxr4S/0x8wxLNJ7bg2FoA1Sc+mwf2a+cEhltKZisuvpug==","691f8ca61c6b4dcbb0aeb5f4","691f8f1d27191784d9e8c4a6","index1","<span style='color:red'>Fail,<span style='color:red'>Fail,<span style='color:green'>Lift,<span style='color:green'>Lift,<span style='color:red'>Fail,<span style='color:red'>Fail,<span style='color:red'>Fail,<span style='color:red'>Fail,<span style='color:green'>Lift,<span style='color:red'>Fail,<span style='color:green'>Lift,<span style='color:red'>Fail","<span style='color:red'>Fail,<span style='color:red'>Fail,<span style='color:green'>Lift,<span style='color:green'>Lift,<span style='color:green'>Lift,<span style='color:green'>Lift,<span style='color:red'>Fail,<span style='color:green'>Lift,<span style='color:green'>Lift,<span style='color:green'>Lift,<span style='color:green'>Lift,<span style='color:red'>Fail","<span style='color:red'>Fail,<span style='color:green'>Lift,<span style='color:green'>Lift,<span style='color:red'>Fail,<span style='color:green'>Lift,<span style='color:green'>Lift","0,0,1,1,0,0,0,0,1,0,1,0","0,0,1,1,1,1,0,1,1,1,1,0","0,1,1,0,1,1",10,20,20,"","","","","{""box1"":""20"",""box2"":""20""}","",NA,3,"round2_ready",2,3,2,NA,NA,NA,NA,NA,NA,NA,NA,NA,NA,NA,NA,NA,NA,20,20,20,20,NA,NA,NA,NA,NA,NA,NA,NA,NA,NA,NA,NA,NA,NA,NA,NA,NA,NA,NA,"",NA,NA,NA,NA,NA,NA,NA,NA,2025-11-20 22:24:28
"21870.400000002235","https://psyc-201.github.io/xiang2023/exp/index1.html?PROLIFIC_PID=REDACTED&STUDY_ID=691f8ca61c6b4dcbb0aeb5f4&SESSION_ID=691f8f1d27191784d9e8c4a6","survey-html-form",27,1016211,"0.0-328.0","sCDM/3wl2Qw4fMoUU/+U/iD/uE9kVopAU+LwMIV2xJrXfRZCZH7SzoOoCSCzx7Zh8xjy8N5mm80Fcrtun8AWFZDjeNMlCHP0uOsU9RtCzFJcgT6N3DbLbDe+RDTr7BkcjmzFpeWj/nZX9LYZUDuty8BKOry4p+ekoOdqdSH0cbIFh2DorMXuPd1zFBX8kaSOfTuwMAHwz0Hz+KnrrmmQ+yxKG27oA8xdRCnGJoFx4doU545nhrY9fl2WEcja43CJ+RTfG++p3o2ybIxjGEJ5AAW8UmHJWjylxxMNUicw1nxr4S/0x8wxLNJ7bg2FoA1Sc+mwf2a+cEhltKZisuvpug==","691f8ca61c6b4dcbb0aeb5f4","691f8f1d27191784d9e8c4a6","index1","<span style='color:red'>Fail,<span style='color:red'>Fail,<span style='color:green'>Lift,<span style='color:green'>Lift,<span style='color:red'>Fail,<span style='color:red'>Fail,<span style='color:red'>Fail,<span style='color:red'>Fail,<span style='color:green'>Lift,<span style='color:red'>Fail,<span style='color:green'>Lift,<span style='color:red'>Fail","<span style='color:red'>Fail,<span style='color:red'>Fail,<span style='color:green'>Lift,<span style='color:green'>Lift,<span style='color:green'>Lift,<span style='color:green'>Lift,<span style='color:red'>Fail,<span style='color:green'>Lift,<span style='color:green'>Lift,<span style='color:green'>Lift,<span style='color:green'>Lift,<span style='color:red'>Fail","<span style='color:red'>Fail,<span style='color:green'>Lift,<span style='color:green'>Lift,<span style='color:red'>Fail,<span style='color:green'>Lift,<span style='color:green'>Lift","0,0,1,1,0,0,0,0,1,0,1,0","0,0,1,1,1,1,0,1,1,1,1,0","0,1,1,0,1,1",10,20,20,"","","","","{""box1"":""1"",""box2"":""4"",""box4"":""100""}","",NA,3,"round2_outcome",3,3,2,1,4,NA,100,0,1,20,NA,NA,NA,NA,NA,NA,NA,NA,NA,NA,NA,1,4,NA,100,0,1,20,NA,NA,NA,NA,NA,NA,NA,NA,NA,NA,NA,NA,"",NA,NA,NA,NA,NA,NA,NA,NA,2025-11-20 22:24:28
"10733.89999999851","https://psyc-201.github.io/xiang2023/exp/index1.html?PROLIFIC_PID=REDACTED&STUDY_ID=691f8ca61c6b4dcbb0aeb5f4&SESSION_ID=691f8f1d27191784d9e8c4a6","survey-html-form",28,1026946,"0.0-329.0","sCDM/3wl2Qw4fMoUU/+U/iD/uE9kVopAU+LwMIV2xJrXfRZCZH7SzoOoCSCzx7Zh8xjy8N5mm80Fcrtun8AWFZDjeNMlCHP0uOsU9RtCzFJcgT6N3DbLbDe+RDTr7BkcjmzFpeWj/nZX9LYZUDuty8BKOry4p+ekoOdqdSH0cbIFh2DorMXuPd1zFBX8kaSOfTuwMAHwz0Hz+KnrrmmQ+yxKG27oA8xdRCnGJoFx4doU545nhrY9fl2WEcja43CJ+RTfG++p3o2ybIxjGEJ5AAW8UmHJWjylxxMNUicw1nxr4S/0x8wxLNJ7bg2FoA1Sc+mwf2a+cEhltKZisuvpug==","691f8ca61c6b4dcbb0aeb5f4","691f8f1d27191784d9e8c4a6","index1","<span style='color:red'>Fail,<span style='color:red'>Fail,<span style='color:green'>Lift,<span style='color:green'>Lift,<span style='color:red'>Fail,<span style='color:red'>Fail,<span style='color:red'>Fail,<span style='color:red'>Fail,<span style='color:green'>Lift,<span style='color:red'>Fail,<span style='color:green'>Lift,<span style='color:red'>Fail","<span style='color:red'>Fail,<span style='color:red'>Fail,<span style='color:green'>Lift,<span style='color:green'>Lift,<span style='color:green'>Lift,<span style='color:green'>Lift,<span style='color:red'>Fail,<span style='color:green'>Lift,<span style='color:green'>Lift,<span style='color:green'>Lift,<span style='color:green'>Lift,<span style='color:red'>Fail","<span style='color:red'>Fail,<span style='color:green'>Lift,<span style='color:green'>Lift,<span style='color:red'>Fail,<span style='color:green'>Lift,<span style='color:green'>Lift","0,0,1,1,0,0,0,0,1,0,1,0","0,0,1,1,1,1,0,1,1,1,1,0","0,1,1,0,1,1",10,20,20,"","","","","{""box1"":""90""}","",NA,3,"round3_ready",4,3,3,NA,NA,NA,NA,NA,NA,NA,NA,NA,NA,NA,NA,NA,NA,90,90,NA,NA,NA,NA,NA,NA,NA,NA,NA,90,90,NA,NA,NA,NA,NA,NA,NA,NA,NA,NA,"",NA,NA,NA,NA,NA,NA,NA,NA,2025-11-20 22:24:28
"22535.199999999255","https://psyc-201.github.io/xiang2023/exp/index1.html?PROLIFIC_PID=REDACTED&STUDY_ID=691f8ca61c6b4dcbb0aeb5f4&SESSION_ID=691f8f1d27191784d9e8c4a6","survey-html-form",29,1049482,"0.0-331.0-0.0","sCDM/3wl2Qw4fMoUU/+U/iD/uE9kVopAU+LwMIV2xJrXfRZCZH7SzoOoCSCzx7Zh8xjy8N5mm80Fcrtun8AWFZDjeNMlCHP0uOsU9RtCzFJcgT6N3DbLbDe+RDTr7BkcjmzFpeWj/nZX9LYZUDuty8BKOry4p+ekoOdqdSH0cbIFh2DorMXuPd1zFBX8kaSOfTuwMAHwz0Hz+KnrrmmQ+yxKG27oA8xdRCnGJoFx4doU545nhrY9fl2WEcja43CJ+RTfG++p3o2ybIxjGEJ5AAW8UmHJWjylxxMNUicw1nxr4S/0x8wxLNJ7bg2FoA1Sc+mwf2a+cEhltKZisuvpug==","691f8ca61c6b4dcbb0aeb5f4","691f8f1d27191784d9e8c4a6","index1","<span style='color:red'>Fail,<span style='color:red'>Fail,<span style='color:green'>Lift,<span style='color:green'>Lift,<span style='color:red'>Fail,<span style='color:red'>Fail,<span style='color:red'>Fail,<span style='color:red'>Fail,<span style='color:green'>Lift,<span style='color:red'>Fail,<span style='color:green'>Lift,<span style='color:red'>Fail","<span style='color:red'>Fail,<span style='color:red'>Fail,<span style='color:green'>Lift,<span style='color:green'>Lift,<span style='color:green'>Lift,<span style='color:green'>Lift,<span style='color:red'>Fail,<span style='color:green'>Lift,<span style='color:green'>Lift,<span style='color:green'>Lift,<span style='color:green'>Lift,<span style='color:red'>Fail","<span style='color:red'>Fail,<span style='color:green'>Lift,<span style='color:green'>Lift,<span style='color:red'>Fail,<span style='color:green'>Lift,<span style='color:green'>Lift","0,0,1,1,0,0,0,0,1,0,1,0","0,0,1,1,1,1,0,1,1,1,1,0","0,1,1,0,1,1",10,20,20,"","","","","{""box1"":""1"",""box2"":""3"",""box3"":""999"",""box4"":""999""}","",NA,4,"round3_fail",5,3,3,1,3,NA,NA,0,0,20,NA,NA,NA,NA,NA,NA,NA,NA,NA,NA,NA,NA,NA,NA,NA,NA,NA,NA,NA,NA,1,3,NA,NA,0,0,20,1,1,NA,"",NA,NA,NA,NA,NA,NA,NA,NA,2025-11-20 22:24:28
"null","https://psyc-201.github.io/xiang2023/exp/index1.html?PROLIFIC_PID=REDACTED&STUDY_ID=691f8ca61c6b4dcbb0aeb5f4&SESSION_ID=691f8f1d27191784d9e8c4a6","html-keyboard-response",30,1052486,"0.0-334.0","sCDM/3wl2Qw4fMoUU/+U/iD/uE9kVopAU+LwMIV2xJrXfRZCZH7SzoOoCSCzx7Zh8xjy8N5mm80Fcrtun8AWFZDjeNMlCHP0uOsU9RtCzFJcgT6N3DbLbDe+RDTr7BkcjmzFpeWj/nZX9LYZUDuty8BKOry4p+ekoOdqdSH0cbIFh2DorMXuPd1zFBX8kaSOfTuwMAHwz0Hz+KnrrmmQ+yxKG27oA8xdRCnGJoFx4doU545nhrY9fl2WEcja43CJ+RTfG++p3o2ybIxjGEJ5AAW8UmHJWjylxxMNUicw1nxr4S/0x8wxLNJ7bg2FoA1Sc+mwf2a+cEhltKZisuvpug==","691f8ca61c6b4dcbb0aeb5f4","691f8f1d27191784d9e8c4a6","index1","<span style='color:red'>Fail,<span style='color:red'>Fail,<span style='color:green'>Lift,<span style='color:green'>Lift,<span style='color:red'>Fail,<span style='color:red'>Fail,<span style='color:red'>Fail,<span style='color:red'>Fail,<span style='color:green'>Lift,<span style='color:red'>Fail,<span style='color:green'>Lift,<span style='color:red'>Fail","<span style='color:red'>Fail,<span style='color:red'>Fail,<span style='color:green'>Lift,<span style='color:green'>Lift,<span style='color:green'>Lift,<span style='color:green'>Lift,<span style='color:red'>Fail,<span style='color:green'>Lift,<span style='color:green'>Lift,<span style='color:green'>Lift,<span style='color:green'>Lift,<span style='color:red'>Fail","<span style='color:red'>Fail,<span style='color:green'>Lift,<span style='color:green'>Lift,<span style='color:red'>Fail,<span style='color:green'>Lift,<span style='color:green'>Lift","0,0,1,1,0,0,0,0,1,0,1,0","0,0,1,1,1,1,0,1,1,1,1,0","0,1,1,0,1,1",10,20,20,"","","<p style='font-size:30px'><b> New Contest! </b></p>","null","","",NA,4,"",NA,NA,NA,NA,NA,NA,NA,NA,NA,NA,NA,NA,NA,NA,NA,NA,NA,NA,NA,NA,NA,NA,NA,NA,NA,NA,NA,NA,NA,NA,NA,NA,NA,NA,NA,NA,NA,NA,NA,NA,"",NA,NA,NA,NA,NA,NA,NA,NA,2025-11-20 22:24:28
"22246.400000002235","https://psyc-201.github.io/xiang2023/exp/index1.html?PROLIFIC_PID=REDACTED&STUDY_ID=691f8ca61c6b4dcbb0aeb5f4&SESSION_ID=691f8f1d27191784d9e8c4a6","survey-html-form",31,1074734,"0.0-335.0","sCDM/3wl2Qw4fMoUU/+U/iD/uE9kVopAU+LwMIV2xJrXfRZCZH7SzoOoCSCzx7Zh8xjy8N5mm80Fcrtun8AWFZDjeNMlCHP0uOsU9RtCzFJcgT6N3DbLbDe+RDTr7BkcjmzFpeWj/nZX9LYZUDuty8BKOry4p+ekoOdqdSH0cbIFh2DorMXuPd1zFBX8kaSOfTuwMAHwz0Hz+KnrrmmQ+yxKG27oA8xdRCnGJoFx4doU545nhrY9fl2WEcja43CJ+RTfG++p3o2ybIxjGEJ5AAW8UmHJWjylxxMNUicw1nxr4S/0x8wxLNJ7bg2FoA1Sc+mwf2a+cEhltKZisuvpug==","691f8ca61c6b4dcbb0aeb5f4","691f8f1d27191784d9e8c4a6","index1","<span style='color:red'>Fail,<span style='color:red'>Fail,<span style='color:green'>Lift,<span style='color:green'>Lift,<span style='color:red'>Fail,<span style='color:red'>Fail,<span style='color:red'>Fail,<span style='color:red'>Fail,<span style='color:green'>Lift,<span style='color:red'>Fail,<span style='color:green'>Lift,<span style='color:red'>Fail","<span style='color:red'>Fail,<span style='color:red'>Fail,<span style='color:green'>Lift,<span style='color:green'>Lift,<span style='color:green'>Lift,<span style='color:green'>Lift,<span style='color:red'>Fail,<span style='color:green'>Lift,<span style='color:green'>Lift,<span style='color:green'>Lift,<span style='color:green'>Lift,<span style='color:red'>Fail","<span style='color:red'>Fail,<span style='color:green'>Lift,<span style='color:green'>Lift,<span style='color:red'>Fail,<span style='color:green'>Lift,<span style='color:green'>Lift","0,0,1,1,0,0,0,0,1,0,1,0","0,0,1,1,1,1,0,1,1,1,1,0","0,1,1,0,1,1",10,20,20,"","","","","{""box1"":""6"",""box2"":""2"",""box3"":""80""}","",NA,4,"round1_outcome",1,4,1,6,2,80,NA,1,0,10,6,2,80,NA,1,0,10,NA,NA,NA,NA,NA,NA,NA,NA,NA,NA,NA,NA,NA,NA,NA,NA,NA,NA,NA,NA,NA,NA,NA,"",NA,NA,NA,NA,NA,NA,NA,NA,2025-11-20 22:24:28
"19694.39999999851","https://psyc-201.github.io/xiang2023/exp/index1.html?PROLIFIC_PID=REDACTED&STUDY_ID=691f8ca61c6b4dcbb0aeb5f4&SESSION_ID=691f8f1d27191784d9e8c4a6","survey-html-form",32,1094429,"0.0-336.0","sCDM/3wl2Qw4fMoUU/+U/iD/uE9kVopAU+LwMIV2xJrXfRZCZH7SzoOoCSCzx7Zh8xjy8N5mm80Fcrtun8AWFZDjeNMlCHP0uOsU9RtCzFJcgT6N3DbLbDe+RDTr7BkcjmzFpeWj/nZX9LYZUDuty8BKOry4p+ekoOdqdSH0cbIFh2DorMXuPd1zFBX8kaSOfTuwMAHwz0Hz+KnrrmmQ+yxKG27oA8xdRCnGJoFx4doU545nhrY9fl2WEcja43CJ+RTfG++p3o2ybIxjGEJ5AAW8UmHJWjylxxMNUicw1nxr4S/0x8wxLNJ7bg2FoA1Sc+mwf2a+cEhltKZisuvpug==","691f8ca61c6b4dcbb0aeb5f4","691f8f1d27191784d9e8c4a6","index1","<span style='color:red'>Fail,<span style='color:red'>Fail,<span style='color:green'>Lift,<span style='color:green'>Lift,<span style='color:red'>Fail,<span style='color:red'>Fail,<span style='color:red'>Fail,<span style='color:red'>Fail,<span style='color:green'>Lift,<span style='color:red'>Fail,<span style='color:green'>Lift,<span style='color:red'>Fail","<span style='color:red'>Fail,<span style='color:red'>Fail,<span style='color:green'>Lift,<span style='color:green'>Lift,<span style='color:green'>Lift,<span style='color:green'>Lift,<span style='color:red'>Fail,<span style='color:green'>Lift,<span style='color:green'>Lift,<span style='color:green'>Lift,<span style='color:green'>Lift,<span style='color:red'>Fail","<span style='color:red'>Fail,<span style='color:green'>Lift,<span style='color:green'>Lift,<span style='color:red'>Fail,<span style='color:green'>Lift,<span style='color:green'>Lift","0,0,1,1,0,0,0,0,1,0,1,0","0,0,1,1,1,1,0,1,1,1,1,0","0,1,1,0,1,1",10,20,20,"","","","","{""box1"":""25"",""box2"":""80""}","",NA,4,"round2_ready",2,4,2,NA,NA,NA,NA,NA,NA,NA,NA,NA,NA,NA,NA,NA,NA,25,80,25,80,NA,NA,NA,NA,NA,NA,NA,NA,NA,NA,NA,NA,NA,NA,NA,NA,NA,NA,NA,"",NA,NA,NA,NA,NA,NA,NA,NA,2025-11-20 22:24:28
"30015.099999997765","https://psyc-201.github.io/xiang2023/exp/index1.html?PROLIFIC_PID=REDACTED&STUDY_ID=691f8ca61c6b4dcbb0aeb5f4&SESSION_ID=691f8f1d27191784d9e8c4a6","survey-html-form",33,1124445,"0.0-337.0","sCDM/3wl2Qw4fMoUU/+U/iD/uE9kVopAU+LwMIV2xJrXfRZCZH7SzoOoCSCzx7Zh8xjy8N5mm80Fcrtun8AWFZDjeNMlCHP0uOsU9RtCzFJcgT6N3DbLbDe+RDTr7BkcjmzFpeWj/nZX9LYZUDuty8BKOry4p+ekoOdqdSH0cbIFh2DorMXuPd1zFBX8kaSOfTuwMAHwz0Hz+KnrrmmQ+yxKG27oA8xdRCnGJoFx4doU545nhrY9fl2WEcja43CJ+RTfG++p3o2ybIxjGEJ5AAW8UmHJWjylxxMNUicw1nxr4S/0x8wxLNJ7bg2FoA1Sc+mwf2a+cEhltKZisuvpug==","691f8ca61c6b4dcbb0aeb5f4","691f8f1d27191784d9e8c4a6","index1","<span style='color:red'>Fail,<span style='color:red'>Fail,<span style='color:green'>Lift,<span style='color:green'>Lift,<span style='color:red'>Fail,<span style='color:red'>Fail,<span style='color:red'>Fail,<span style='color:red'>Fail,<span style='color:green'>Lift,<span style='color:red'>Fail,<span style='color:green'>Lift,<span style='color:red'>Fail","<span style='color:red'>Fail,<span style='color:red'>Fail,<span style='color:green'>Lift,<span style='color:green'>Lift,<span style='color:green'>Lift,<span style='color:green'>Lift,<span style='color:red'>Fail,<span style='color:green'>Lift,<span style='color:green'>Lift,<span style='color:green'>Lift,<span style='color:green'>Lift,<span style='color:red'>Fail","<span style='color:red'>Fail,<span style='color:green'>Lift,<span style='color:green'>Lift,<span style='color:red'>Fail,<span style='color:green'>Lift,<span style='color:green'>Lift","0,0,1,1,0,0,0,0,1,0,1,0","0,0,1,1,1,1,0,1,1,1,1,0","0,1,1,0,1,1",10,20,20,"","","","","{""box1"":""6"",""box2"":""2"",""box3"":""70""}","",NA,4,"round2_outcome",3,4,2,6,2,70,NA,1,0,20,NA,NA,NA,NA,NA,NA,NA,NA,NA,NA,NA,6,2,70,NA,1,0,20,NA,NA,NA,NA,NA,NA,NA,NA,NA,NA,NA,NA,"",NA,NA,NA,NA,NA,NA,NA,NA,2025-11-20 22:24:28
"8243.699999999255","https://psyc-201.github.io/xiang2023/exp/index1.html?PROLIFIC_PID=REDACTED&STUDY_ID=691f8ca61c6b4dcbb0aeb5f4&SESSION_ID=691f8f1d27191784d9e8c4a6","survey-html-form",34,1132690,"0.0-338.0","sCDM/3wl2Qw4fMoUU/+U/iD/uE9kVopAU+LwMIV2xJrXfRZCZH7SzoOoCSCzx7Zh8xjy8N5mm80Fcrtun8AWFZDjeNMlCHP0uOsU9RtCzFJcgT6N3DbLbDe+RDTr7BkcjmzFpeWj/nZX9LYZUDuty8BKOry4p+ekoOdqdSH0cbIFh2DorMXuPd1zFBX8kaSOfTuwMAHwz0Hz+KnrrmmQ+yxKG27oA8xdRCnGJoFx4doU545nhrY9fl2WEcja43CJ+RTfG++p3o2ybIxjGEJ5AAW8UmHJWjylxxMNUicw1nxr4S/0x8wxLNJ7bg2FoA1Sc+mwf2a+cEhltKZisuvpug==","691f8ca61c6b4dcbb0aeb5f4","691f8f1d27191784d9e8c4a6","index1","<span style='color:red'>Fail,<span style='color:red'>Fail,<span style='color:green'>Lift,<span style='color:green'>Lift,<span style='color:red'>Fail,<span style='color:red'>Fail,<span style='color:red'>Fail,<span style='color:red'>Fail,<span style='color:green'>Lift,<span style='color:red'>Fail,<span style='color:green'>Lift,<span style='color:red'>Fail","<span style='color:red'>Fail,<span style='color:red'>Fail,<span style='color:green'>Lift,<span style='color:green'>Lift,<span style='color:green'>Lift,<span style='color:green'>Lift,<span style='color:red'>Fail,<span style='color:green'>Lift,<span style='color:green'>Lift,<span style='color:green'>Lift,<span style='color:green'>Lift,<span style='color:red'>Fail","<span style='color:red'>Fail,<span style='color:green'>Lift,<span style='color:green'>Lift,<span style='color:red'>Fail,<span style='color:green'>Lift,<span style='color:green'>Lift","0,0,1,1,0,0,0,0,1,0,1,0","0,0,1,1,1,1,0,1,1,1,1,0","0,1,1,0,1,1",10,20,20,"","","","","{""box1"":""90""}","",NA,4,"round3_ready",4,4,3,NA,NA,NA,NA,NA,NA,NA,NA,NA,NA,NA,NA,NA,NA,90,90,NA,NA,NA,NA,NA,NA,NA,NA,NA,90,90,NA,NA,NA,NA,NA,NA,NA,NA,NA,NA,"",NA,NA,NA,NA,NA,NA,NA,NA,2025-11-20 22:24:28
"31099.10000000149","https://psyc-201.github.io/xiang2023/exp/index1.html?PROLIFIC_PID=REDACTED&STUDY_ID=691f8ca61c6b4dcbb0aeb5f4&SESSION_ID=691f8f1d27191784d9e8c4a6","survey-html-form",35,1163790,"0.0-339.0-0.0","sCDM/3wl2Qw4fMoUU/+U/iD/uE9kVopAU+LwMIV2xJrXfRZCZH7SzoOoCSCzx7Zh8xjy8N5mm80Fcrtun8AWFZDjeNMlCHP0uOsU9RtCzFJcgT6N3DbLbDe+RDTr7BkcjmzFpeWj/nZX9LYZUDuty8BKOry4p+ekoOdqdSH0cbIFh2DorMXuPd1zFBX8kaSOfTuwMAHwz0Hz+KnrrmmQ+yxKG27oA8xdRCnGJoFx4doU545nhrY9fl2WEcja43CJ+RTfG++p3o2ybIxjGEJ5AAW8UmHJWjylxxMNUicw1nxr4S/0x8wxLNJ7bg2FoA1Sc+mwf2a+cEhltKZisuvpug==","691f8ca61c6b4dcbb0aeb5f4","691f8f1d27191784d9e8c4a6","index1","<span style='color:red'>Fail,<span style='color:red'>Fail,<span style='color:green'>Lift,<span style='color:green'>Lift,<span style='color:red'>Fail,<span style='color:red'>Fail,<span style='color:red'>Fail,<span style='color:red'>Fail,<span style='color:green'>Lift,<span style='color:red'>Fail,<span style='color:green'>Lift,<span style='color:red'>Fail","<span style='color:red'>Fail,<span style='color:red'>Fail,<span style='color:green'>Lift,<span style='color:green'>Lift,<span style='color:green'>Lift,<span style='color:green'>Lift,<span style='color:red'>Fail,<span style='color:green'>Lift,<span style='color:green'>Lift,<span style='color:green'>Lift,<span style='color:green'>Lift,<span style='color:red'>Fail","<span style='color:red'>Fail,<span style='color:green'>Lift,<span style='color:green'>Lift,<span style='color:red'>Fail,<span style='color:green'>Lift,<span style='color:green'>Lift","0,0,1,1,0,0,0,0,1,0,1,0","0,0,1,1,1,1,0,1,1,1,1,0","0,1,1,0,1,1",10,20,20,"","","","","{""box1"":""7"",""box2"":""2"",""box3"":""40"",""box4"":""60""}","",NA,5,"round3_lift",5,4,3,7,2,40,60,1,1,20,NA,NA,NA,NA,NA,NA,NA,NA,NA,NA,NA,NA,NA,NA,NA,NA,NA,NA,NA,NA,7,2,40,60,1,1,20,NA,NA,NA,"",NA,NA,NA,NA,NA,NA,NA,NA,2025-11-20 22:24:28
"null","https://psyc-201.github.io/xiang2023/exp/index1.html?PROLIFIC_PID=REDACTED&STUDY_ID=691f8ca61c6b4dcbb0aeb5f4&SESSION_ID=691f8f1d27191784d9e8c4a6","html-keyboard-response",36,1166794,"0.0-343.0","sCDM/3wl2Qw4fMoUU/+U/iD/uE9kVopAU+LwMIV2xJrXfRZCZH7SzoOoCSCzx7Zh8xjy8N5mm80Fcrtun8AWFZDjeNMlCHP0uOsU9RtCzFJcgT6N3DbLbDe+RDTr7BkcjmzFpeWj/nZX9LYZUDuty8BKOry4p+ekoOdqdSH0cbIFh2DorMXuPd1zFBX8kaSOfTuwMAHwz0Hz+KnrrmmQ+yxKG27oA8xdRCnGJoFx4doU545nhrY9fl2WEcja43CJ+RTfG++p3o2ybIxjGEJ5AAW8UmHJWjylxxMNUicw1nxr4S/0x8wxLNJ7bg2FoA1Sc+mwf2a+cEhltKZisuvpug==","691f8ca61c6b4dcbb0aeb5f4","691f8f1d27191784d9e8c4a6","index1","<span style='color:red'>Fail,<span style='color:red'>Fail,<span style='color:green'>Lift,<span style='color:green'>Lift,<span style='color:red'>Fail,<span style='color:red'>Fail,<span style='color:red'>Fail,<span style='color:red'>Fail,<span style='color:green'>Lift,<span style='color:red'>Fail,<span style='color:green'>Lift,<span style='color:red'>Fail","<span style='color:red'>Fail,<span style='color:red'>Fail,<span style='color:green'>Lift,<span style='color:green'>Lift,<span style='color:green'>Lift,<span style='color:green'>Lift,<span style='color:red'>Fail,<span style='color:green'>Lift,<span style='color:green'>Lift,<span style='color:green'>Lift,<span style='color:green'>Lift,<span style='color:red'>Fail","<span style='color:red'>Fail,<span style='color:green'>Lift,<span style='color:green'>Lift,<span style='color:red'>Fail,<span style='color:green'>Lift,<span style='color:green'>Lift","0,0,1,1,0,0,0,0,1,0,1,0","0,0,1,1,1,1,0,1,1,1,1,0","0,1,1,0,1,1",10,20,20,"","","<p style='font-size:30px'><b> New Contest! </b></p>","null","","",NA,5,"",NA,NA,NA,NA,NA,NA,NA,NA,NA,NA,NA,NA,NA,NA,NA,NA,NA,NA,NA,NA,NA,NA,NA,NA,NA,NA,NA,NA,NA,NA,NA,NA,NA,NA,NA,NA,NA,NA,NA,NA,"",NA,NA,NA,NA,NA,NA,NA,NA,2025-11-20 22:24:28
"28250.5","https://psyc-201.github.io/xiang2023/exp/index1.html?PROLIFIC_PID=REDACTED&STUDY_ID=691f8ca61c6b4dcbb0aeb5f4&SESSION_ID=691f8f1d27191784d9e8c4a6","survey-html-form",37,1195046,"0.0-344.0","sCDM/3wl2Qw4fMoUU/+U/iD/uE9kVopAU+LwMIV2xJrXfRZCZH7SzoOoCSCzx7Zh8xjy8N5mm80Fcrtun8AWFZDjeNMlCHP0uOsU9RtCzFJcgT6N3DbLbDe+RDTr7BkcjmzFpeWj/nZX9LYZUDuty8BKOry4p+ekoOdqdSH0cbIFh2DorMXuPd1zFBX8kaSOfTuwMAHwz0Hz+KnrrmmQ+yxKG27oA8xdRCnGJoFx4doU545nhrY9fl2WEcja43CJ+RTfG++p3o2ybIxjGEJ5AAW8UmHJWjylxxMNUicw1nxr4S/0x8wxLNJ7bg2FoA1Sc+mwf2a+cEhltKZisuvpug==","691f8ca61c6b4dcbb0aeb5f4","691f8f1d27191784d9e8c4a6","index1","<span style='color:red'>Fail,<span style='color:red'>Fail,<span style='color:green'>Lift,<span style='color:green'>Lift,<span style='color:red'>Fail,<span style='color:red'>Fail,<span style='color:red'>Fail,<span style='color:red'>Fail,<span style='color:green'>Lift,<span style='color:red'>Fail,<span style='color:green'>Lift,<span style='color:red'>Fail","<span style='color:red'>Fail,<span style='color:red'>Fail,<span style='color:green'>Lift,<span style='color:green'>Lift,<span style='color:green'>Lift,<span style='color:green'>Lift,<span style='color:red'>Fail,<span style='color:green'>Lift,<span style='color:green'>Lift,<span style='color:green'>Lift,<span style='color:green'>Lift,<span style='color:red'>Fail","<span style='color:red'>Fail,<span style='color:green'>Lift,<span style='color:green'>Lift,<span style='color:red'>Fail,<span style='color:green'>Lift,<span style='color:green'>Lift","0,0,1,1,0,0,0,0,1,0,1,0","0,0,1,1,1,1,0,1,1,1,1,0","0,1,1,0,1,1",10,20,20,"","","","","{""box1"":""6"",""box2"":""2"",""box3"":""80""}","",NA,5,"round1_outcome",1,5,1,6,2,80,NA,1,0,10,6,2,80,NA,1,0,10,NA,NA,NA,NA,NA,NA,NA,NA,NA,NA,NA,NA,NA,NA,NA,NA,NA,NA,NA,NA,NA,NA,NA,"",NA,NA,NA,NA,NA,NA,NA,NA,2025-11-20 22:24:28
"11159.10000000149","https://psyc-201.github.io/xiang2023/exp/index1.html?PROLIFIC_PID=REDACTED&STUDY_ID=691f8ca61c6b4dcbb0aeb5f4&SESSION_ID=691f8f1d27191784d9e8c4a6","survey-html-form",38,1206206,"0.0-345.0","sCDM/3wl2Qw4fMoUU/+U/iD/uE9kVopAU+LwMIV2xJrXfRZCZH7SzoOoCSCzx7Zh8xjy8N5mm80Fcrtun8AWFZDjeNMlCHP0uOsU9RtCzFJcgT6N3DbLbDe+RDTr7BkcjmzFpeWj/nZX9LYZUDuty8BKOry4p+ekoOdqdSH0cbIFh2DorMXuPd1zFBX8kaSOfTuwMAHwz0Hz+KnrrmmQ+yxKG27oA8xdRCnGJoFx4doU545nhrY9fl2WEcja43CJ+RTfG++p3o2ybIxjGEJ5AAW8UmHJWjylxxMNUicw1nxr4S/0x8wxLNJ7bg2FoA1Sc+mwf2a+cEhltKZisuvpug==","691f8ca61c6b4dcbb0aeb5f4","691f8f1d27191784d9e8c4a6","index1","<span style='color:red'>Fail,<span style='color:red'>Fail,<span style='color:green'>Lift,<span style='color:green'>Lift,<span style='color:red'>Fail,<span style='color:red'>Fail,<span style='color:red'>Fail,<span style='color:red'>Fail,<span style='color:green'>Lift,<span style='color:red'>Fail,<span style='color:green'>Lift,<span style='color:red'>Fail","<span style='color:red'>Fail,<span style='color:red'>Fail,<span style='color:green'>Lift,<span style='color:green'>Lift,<span style='color:green'>Lift,<span style='color:green'>Lift,<span style='color:red'>Fail,<span style='color:green'>Lift,<span style='color:green'>Lift,<span style='color:green'>Lift,<span style='color:green'>Lift,<span style='color:red'>Fail","<span style='color:red'>Fail,<span style='color:green'>Lift,<span style='color:green'>Lift,<span style='color:red'>Fail,<span style='color:green'>Lift,<span style='color:green'>Lift","0,0,1,1,0,0,0,0,1,0,1,0","0,0,1,1,1,1,0,1,1,1,1,0","0,1,1,0,1,1",10,20,20,"","","","","{""box1"":""80"",""box2"":""30""}","",NA,5,"round2_ready",2,5,2,NA,NA,NA,NA,NA,NA,NA,NA,NA,NA,NA,NA,NA,NA,80,30,80,30,NA,NA,NA,NA,NA,NA,NA,NA,NA,NA,NA,NA,NA,NA,NA,NA,NA,NA,NA,"",NA,NA,NA,NA,NA,NA,NA,NA,2025-11-20 22:24:28
"18701.800000000745","https://psyc-201.github.io/xiang2023/exp/index1.html?PROLIFIC_PID=REDACTED&STUDY_ID=691f8ca61c6b4dcbb0aeb5f4&SESSION_ID=691f8f1d27191784d9e8c4a6","survey-html-form",39,1224909,"0.0-346.0","sCDM/3wl2Qw4fMoUU/+U/iD/uE9kVopAU+LwMIV2xJrXfRZCZH7SzoOoCSCzx7Zh8xjy8N5mm80Fcrtun8AWFZDjeNMlCHP0uOsU9RtCzFJcgT6N3DbLbDe+RDTr7BkcjmzFpeWj/nZX9LYZUDuty8BKOry4p+ekoOdqdSH0cbIFh2DorMXuPd1zFBX8kaSOfTuwMAHwz0Hz+KnrrmmQ+yxKG27oA8xdRCnGJoFx4doU545nhrY9fl2WEcja43CJ+RTfG++p3o2ybIxjGEJ5AAW8UmHJWjylxxMNUicw1nxr4S/0x8wxLNJ7bg2FoA1Sc+mwf2a+cEhltKZisuvpug==","691f8ca61c6b4dcbb0aeb5f4","691f8f1d27191784d9e8c4a6","index1","<span style='color:red'>Fail,<span style='color:red'>Fail,<span style='color:green'>Lift,<span style='color:green'>Lift,<span style='color:red'>Fail,<span style='color:red'>Fail,<span style='color:red'>Fail,<span style='color:red'>Fail,<span style='color:green'>Lift,<span style='color:red'>Fail,<span style='color:green'>Lift,<span style='color:red'>Fail","<span style='color:red'>Fail,<span style='color:red'>Fail,<span style='color:green'>Lift,<span style='color:green'>Lift,<span style='color:green'>Lift,<span style='color:green'>Lift,<span style='color:red'>Fail,<span style='color:green'>Lift,<span style='color:green'>Lift,<span style='color:green'>Lift,<span style='color:green'>Lift,<span style='color:red'>Fail","<span style='color:red'>Fail,<span style='color:green'>Lift,<span style='color:green'>Lift,<span style='color:red'>Fail,<span style='color:green'>Lift,<span style='color:green'>Lift","0,0,1,1,0,0,0,0,1,0,1,0","0,0,1,1,1,1,0,1,1,1,1,0","0,1,1,0,1,1",10,20,20,"","","","","{""box1"":""6"",""box2"":""4"",""box3"":""80"",""box4"":""100""}","",NA,5,"round2_outcome",3,5,2,6,4,80,100,1,1,20,NA,NA,NA,NA,NA,NA,NA,NA,NA,NA,NA,6,4,80,100,1,1,20,NA,NA,NA,NA,NA,NA,NA,NA,NA,NA,NA,NA,"",NA,NA,NA,NA,NA,NA,NA,NA,2025-11-20 22:24:28
"5757.5","https://psyc-201.github.io/xiang2023/exp/index1.html?PROLIFIC_PID=REDACTED&STUDY_ID=691f8ca61c6b4dcbb0aeb5f4&SESSION_ID=691f8f1d27191784d9e8c4a6","survey-html-form",40,1230667,"0.0-347.0","sCDM/3wl2Qw4fMoUU/+U/iD/uE9kVopAU+LwMIV2xJrXfRZCZH7SzoOoCSCzx7Zh8xjy8N5mm80Fcrtun8AWFZDjeNMlCHP0uOsU9RtCzFJcgT6N3DbLbDe+RDTr7BkcjmzFpeWj/nZX9LYZUDuty8BKOry4p+ekoOdqdSH0cbIFh2DorMXuPd1zFBX8kaSOfTuwMAHwz0Hz+KnrrmmQ+yxKG27oA8xdRCnGJoFx4doU545nhrY9fl2WEcja43CJ+RTfG++p3o2ybIxjGEJ5AAW8UmHJWjylxxMNUicw1nxr4S/0x8wxLNJ7bg2FoA1Sc+mwf2a+cEhltKZisuvpug==","691f8ca61c6b4dcbb0aeb5f4","691f8f1d27191784d9e8c4a6","index1","<span style='color:red'>Fail,<span style='color:red'>Fail,<span style='color:green'>Lift,<span style='color:green'>Lift,<span style='color:red'>Fail,<span style='color:red'>Fail,<span style='color:red'>Fail,<span style='color:red'>Fail,<span style='color:green'>Lift,<span style='color:red'>Fail,<span style='color:green'>Lift,<span style='color:red'>Fail","<span style='color:red'>Fail,<span style='color:red'>Fail,<span style='color:green'>Lift,<span style='color:green'>Lift,<span style='color:green'>Lift,<span style='color:green'>Lift,<span style='color:red'>Fail,<span style='color:green'>Lift,<span style='color:green'>Lift,<span style='color:green'>Lift,<span style='color:green'>Lift,<span style='color:red'>Fail","<span style='color:red'>Fail,<span style='color:green'>Lift,<span style='color:green'>Lift,<span style='color:red'>Fail,<span style='color:green'>Lift,<span style='color:green'>Lift","0,0,1,1,0,0,0,0,1,0,1,0","0,0,1,1,1,1,0,1,1,1,1,0","0,1,1,0,1,1",10,20,20,"","","","","{""box1"":""100""}","",NA,5,"round3_ready",4,5,3,NA,NA,NA,NA,NA,NA,NA,NA,NA,NA,NA,NA,NA,NA,100,100,NA,NA,NA,NA,NA,NA,NA,NA,NA,100,100,NA,NA,NA,NA,NA,NA,NA,NA,NA,NA,"",NA,NA,NA,NA,NA,NA,NA,NA,2025-11-20 22:24:28
"23466.800000000745","https://psyc-201.github.io/xiang2023/exp/index1.html?PROLIFIC_PID=REDACTED&STUDY_ID=691f8ca61c6b4dcbb0aeb5f4&SESSION_ID=691f8f1d27191784d9e8c4a6","survey-html-form",41,1254135,"0.0-348.0-0.0","sCDM/3wl2Qw4fMoUU/+U/iD/uE9kVopAU+LwMIV2xJrXfRZCZH7SzoOoCSCzx7Zh8xjy8N5mm80Fcrtun8AWFZDjeNMlCHP0uOsU9RtCzFJcgT6N3DbLbDe+RDTr7BkcjmzFpeWj/nZX9LYZUDuty8BKOry4p+ekoOdqdSH0cbIFh2DorMXuPd1zFBX8kaSOfTuwMAHwz0Hz+KnrrmmQ+yxKG27oA8xdRCnGJoFx4doU545nhrY9fl2WEcja43CJ+RTfG++p3o2ybIxjGEJ5AAW8UmHJWjylxxMNUicw1nxr4S/0x8wxLNJ7bg2FoA1Sc+mwf2a+cEhltKZisuvpug==","691f8ca61c6b4dcbb0aeb5f4","691f8f1d27191784d9e8c4a6","index1","<span style='color:red'>Fail,<span style='color:red'>Fail,<span style='color:green'>Lift,<span style='color:green'>Lift,<span style='color:red'>Fail,<span style='color:red'>Fail,<span style='color:red'>Fail,<span style='color:red'>Fail,<span style='color:green'>Lift,<span style='color:red'>Fail,<span style='color:green'>Lift,<span style='color:red'>Fail","<span style='color:red'>Fail,<span style='color:red'>Fail,<span style='color:green'>Lift,<span style='color:green'>Lift,<span style='color:green'>Lift,<span style='color:green'>Lift,<span style='color:red'>Fail,<span style='color:green'>Lift,<span style='color:green'>Lift,<span style='color:green'>Lift,<span style='color:green'>Lift,<span style='color:red'>Fail","<span style='color:red'>Fail,<span style='color:green'>Lift,<span style='color:green'>Lift,<span style='color:red'>Fail,<span style='color:green'>Lift,<span style='color:green'>Lift","0,0,1,1,0,0,0,0,1,0,1,0","0,0,1,1,1,1,0,1,1,1,1,0","0,1,1,0,1,1",10,20,20,"","","","","{""box1"":""6"",""box2"":""3"",""box3"":""70"",""box4"":""30""}","",NA,6,"round3_lift",5,5,3,6,3,70,30,1,1,20,NA,NA,NA,NA,NA,NA,NA,NA,NA,NA,NA,NA,NA,NA,NA,NA,NA,NA,NA,NA,6,3,70,30,1,1,20,NA,NA,NA,"",NA,NA,NA,NA,NA,NA,NA,NA,2025-11-20 22:24:28
"null","https://psyc-201.github.io/xiang2023/exp/index1.html?PROLIFIC_PID=REDACTED&STUDY_ID=691f8ca61c6b4dcbb0aeb5f4&SESSION_ID=691f8f1d27191784d9e8c4a6","html-keyboard-response",42,1257136,"0.0-352.0","sCDM/3wl2Qw4fMoUU/+U/iD/uE9kVopAU+LwMIV2xJrXfRZCZH7SzoOoCSCzx7Zh8xjy8N5mm80Fcrtun8AWFZDjeNMlCHP0uOsU9RtCzFJcgT6N3DbLbDe+RDTr7BkcjmzFpeWj/nZX9LYZUDuty8BKOry4p+ekoOdqdSH0cbIFh2DorMXuPd1zFBX8kaSOfTuwMAHwz0Hz+KnrrmmQ+yxKG27oA8xdRCnGJoFx4doU545nhrY9fl2WEcja43CJ+RTfG++p3o2ybIxjGEJ5AAW8UmHJWjylxxMNUicw1nxr4S/0x8wxLNJ7bg2FoA1Sc+mwf2a+cEhltKZisuvpug==","691f8ca61c6b4dcbb0aeb5f4","691f8f1d27191784d9e8c4a6","index1","<span style='color:red'>Fail,<span style='color:red'>Fail,<span style='color:green'>Lift,<span style='color:green'>Lift,<span style='color:red'>Fail,<span style='color:red'>Fail,<span style='color:red'>Fail,<span style='color:red'>Fail,<span style='color:green'>Lift,<span style='color:red'>Fail,<span style='color:green'>Lift,<span style='color:red'>Fail","<span style='color:red'>Fail,<span style='color:red'>Fail,<span style='color:green'>Lift,<span style='color:green'>Lift,<span style='color:green'>Lift,<span style='color:green'>Lift,<span style='color:red'>Fail,<span style='color:green'>Lift,<span style='color:green'>Lift,<span style='color:green'>Lift,<span style='color:green'>Lift,<span style='color:red'>Fail","<span style='color:red'>Fail,<span style='color:green'>Lift,<span style='color:green'>Lift,<span style='color:red'>Fail,<span style='color:green'>Lift,<span style='color:green'>Lift","0,0,1,1,0,0,0,0,1,0,1,0","0,0,1,1,1,1,0,1,1,1,1,0","0,1,1,0,1,1",10,20,20,"","","<p style='font-size:30px'><b> New Contest! </b></p>","null","","",NA,6,"",NA,NA,NA,NA,NA,NA,NA,NA,NA,NA,NA,NA,NA,NA,NA,NA,NA,NA,NA,NA,NA,NA,NA,NA,NA,NA,NA,NA,NA,NA,NA,NA,NA,NA,NA,NA,NA,NA,NA,NA,"",NA,NA,NA,NA,NA,NA,NA,NA,2025-11-20 22:24:28
"21620.60000000149","https://psyc-201.github.io/xiang2023/exp/index1.html?PROLIFIC_PID=REDACTED&STUDY_ID=691f8ca61c6b4dcbb0aeb5f4&SESSION_ID=691f8f1d27191784d9e8c4a6","survey-html-form",43,1278758,"0.0-353.0","sCDM/3wl2Qw4fMoUU/+U/iD/uE9kVopAU+LwMIV2xJrXfRZCZH7SzoOoCSCzx7Zh8xjy8N5mm80Fcrtun8AWFZDjeNMlCHP0uOsU9RtCzFJcgT6N3DbLbDe+RDTr7BkcjmzFpeWj/nZX9LYZUDuty8BKOry4p+ekoOdqdSH0cbIFh2DorMXuPd1zFBX8kaSOfTuwMAHwz0Hz+KnrrmmQ+yxKG27oA8xdRCnGJoFx4doU545nhrY9fl2WEcja43CJ+RTfG++p3o2ybIxjGEJ5AAW8UmHJWjylxxMNUicw1nxr4S/0x8wxLNJ7bg2FoA1Sc+mwf2a+cEhltKZisuvpug==","691f8ca61c6b4dcbb0aeb5f4","691f8f1d27191784d9e8c4a6","index1","<span style='color:red'>Fail,<span style='color:red'>Fail,<span style='color:green'>Lift,<span style='color:green'>Lift,<span style='color:red'>Fail,<span style='color:red'>Fail,<span style='color:red'>Fail,<span style='color:red'>Fail,<span style='color:green'>Lift,<span style='color:red'>Fail,<span style='color:green'>Lift,<span style='color:red'>Fail","<span style='color:red'>Fail,<span style='color:red'>Fail,<span style='color:green'>Lift,<span style='color:green'>Lift,<span style='color:green'>Lift,<span style='color:green'>Lift,<span style='color:red'>Fail,<span style='color:green'>Lift,<span style='color:green'>Lift,<span style='color:green'>Lift,<span style='color:green'>Lift,<span style='color:red'>Fail","<span style='color:red'>Fail,<span style='color:green'>Lift,<span style='color:green'>Lift,<span style='color:red'>Fail,<span style='color:green'>Lift,<span style='color:green'>Lift","0,0,1,1,0,0,0,0,1,0,1,0","0,0,1,1,1,1,0,1,1,1,1,0","0,1,1,0,1,1",10,20,20,"","","","","{""box1"":""6"",""box2"":""6"",""box3"":""80"",""box4"":""80""}","",NA,6,"round1_outcome",1,6,1,6,6,80,80,1,1,10,6,6,80,80,1,1,10,NA,NA,NA,NA,NA,NA,NA,NA,NA,NA,NA,NA,NA,NA,NA,NA,NA,NA,NA,NA,NA,NA,NA,"",NA,NA,NA,NA,NA,NA,NA,NA,2025-11-20 22:24:28
"34357.20000000298","https://psyc-201.github.io/xiang2023/exp/index1.html?PROLIFIC_PID=REDACTED&STUDY_ID=691f8ca61c6b4dcbb0aeb5f4&SESSION_ID=691f8f1d27191784d9e8c4a6","survey-html-form",44,1313116,"0.0-354.0","sCDM/3wl2Qw4fMoUU/+U/iD/uE9kVopAU+LwMIV2xJrXfRZCZH7SzoOoCSCzx7Zh8xjy8N5mm80Fcrtun8AWFZDjeNMlCHP0uOsU9RtCzFJcgT6N3DbLbDe+RDTr7BkcjmzFpeWj/nZX9LYZUDuty8BKOry4p+ekoOdqdSH0cbIFh2DorMXuPd1zFBX8kaSOfTuwMAHwz0Hz+KnrrmmQ+yxKG27oA8xdRCnGJoFx4doU545nhrY9fl2WEcja43CJ+RTfG++p3o2ybIxjGEJ5AAW8UmHJWjylxxMNUicw1nxr4S/0x8wxLNJ7bg2FoA1Sc+mwf2a+cEhltKZisuvpug==","691f8ca61c6b4dcbb0aeb5f4","691f8f1d27191784d9e8c4a6","index1","<span style='color:red'>Fail,<span style='color:red'>Fail,<span style='color:green'>Lift,<span style='color:green'>Lift,<span style='color:red'>Fail,<span style='color:red'>Fail,<span style='color:red'>Fail,<span style='color:red'>Fail,<span style='color:green'>Lift,<span style='color:red'>Fail,<span style='color:green'>Lift,<span style='color:red'>Fail","<span style='color:red'>Fail,<span style='color:red'>Fail,<span style='color:green'>Lift,<span style='color:green'>Lift,<span style='color:green'>Lift,<span style='color:green'>Lift,<span style='color:red'>Fail,<span style='color:green'>Lift,<span style='color:green'>Lift,<span style='color:green'>Lift,<span style='color:green'>Lift,<span style='color:red'>Fail","<span style='color:red'>Fail,<span style='color:green'>Lift,<span style='color:green'>Lift,<span style='color:red'>Fail,<span style='color:green'>Lift,<span style='color:green'>Lift","0,0,1,1,0,0,0,0,1,0,1,0","0,0,1,1,1,1,0,1,1,1,1,0","0,1,1,0,1,1",10,20,20,"","","","","{""box1"":""50"",""box2"":""50""}","",NA,6,"round2_ready",2,6,2,NA,NA,NA,NA,NA,NA,NA,NA,NA,NA,NA,NA,NA,NA,50,50,50,50,NA,NA,NA,NA,NA,NA,NA,NA,NA,NA,NA,NA,NA,NA,NA,NA,NA,NA,NA,"",NA,NA,NA,NA,NA,NA,NA,NA,2025-11-20 22:24:28
"15724","https://psyc-201.github.io/xiang2023/exp/index1.html?PROLIFIC_PID=REDACTED&STUDY_ID=691f8ca61c6b4dcbb0aeb5f4&SESSION_ID=691f8f1d27191784d9e8c4a6","survey-html-form",45,1328841,"0.0-355.0","sCDM/3wl2Qw4fMoUU/+U/iD/uE9kVopAU+LwMIV2xJrXfRZCZH7SzoOoCSCzx7Zh8xjy8N5mm80Fcrtun8AWFZDjeNMlCHP0uOsU9RtCzFJcgT6N3DbLbDe+RDTr7BkcjmzFpeWj/nZX9LYZUDuty8BKOry4p+ekoOdqdSH0cbIFh2DorMXuPd1zFBX8kaSOfTuwMAHwz0Hz+KnrrmmQ+yxKG27oA8xdRCnGJoFx4doU545nhrY9fl2WEcja43CJ+RTfG++p3o2ybIxjGEJ5AAW8UmHJWjylxxMNUicw1nxr4S/0x8wxLNJ7bg2FoA1Sc+mwf2a+cEhltKZisuvpug==","691f8ca61c6b4dcbb0aeb5f4","691f8f1d27191784d9e8c4a6","index1","<span style='color:red'>Fail,<span style='color:red'>Fail,<span style='color:green'>Lift,<span style='color:green'>Lift,<span style='color:red'>Fail,<span style='color:red'>Fail,<span style='color:red'>Fail,<span style='color:red'>Fail,<span style='color:green'>Lift,<span style='color:red'>Fail,<span style='color:green'>Lift,<span style='color:red'>Fail","<span style='color:red'>Fail,<span style='color:red'>Fail,<span style='color:green'>Lift,<span style='color:green'>Lift,<span style='color:green'>Lift,<span style='color:green'>Lift,<span style='color:red'>Fail,<span style='color:green'>Lift,<span style='color:green'>Lift,<span style='color:green'>Lift,<span style='color:green'>Lift,<span style='color:red'>Fail","<span style='color:red'>Fail,<span style='color:green'>Lift,<span style='color:green'>Lift,<span style='color:red'>Fail,<span style='color:green'>Lift,<span style='color:green'>Lift","0,0,1,1,0,0,0,0,1,0,1,0","0,0,1,1,1,1,0,1,1,1,1,0","0,1,1,0,1,1",10,20,20,"","","","","{""box1"":""7"",""box2"":""7"",""box3"":""80"",""box4"":""80""}","",NA,6,"round2_outcome",3,6,2,7,7,80,80,1,1,20,NA,NA,NA,NA,NA,NA,NA,NA,NA,NA,NA,7,7,80,80,1,1,20,NA,NA,NA,NA,NA,NA,NA,NA,NA,NA,NA,NA,"",NA,NA,NA,NA,NA,NA,NA,NA,2025-11-20 22:24:28
"5590.5","https://psyc-201.github.io/xiang2023/exp/index1.html?PROLIFIC_PID=REDACTED&STUDY_ID=691f8ca61c6b4dcbb0aeb5f4&SESSION_ID=691f8f1d27191784d9e8c4a6","survey-html-form",46,1334432,"0.0-356.0","sCDM/3wl2Qw4fMoUU/+U/iD/uE9kVopAU+LwMIV2xJrXfRZCZH7SzoOoCSCzx7Zh8xjy8N5mm80Fcrtun8AWFZDjeNMlCHP0uOsU9RtCzFJcgT6N3DbLbDe+RDTr7BkcjmzFpeWj/nZX9LYZUDuty8BKOry4p+ekoOdqdSH0cbIFh2DorMXuPd1zFBX8kaSOfTuwMAHwz0Hz+KnrrmmQ+yxKG27oA8xdRCnGJoFx4doU545nhrY9fl2WEcja43CJ+RTfG++p3o2ybIxjGEJ5AAW8UmHJWjylxxMNUicw1nxr4S/0x8wxLNJ7bg2FoA1Sc+mwf2a+cEhltKZisuvpug==","691f8ca61c6b4dcbb0aeb5f4","691f8f1d27191784d9e8c4a6","index1","<span style='color:red'>Fail,<span style='color:red'>Fail,<span style='color:green'>Lift,<span style='color:green'>Lift,<span style='color:red'>Fail,<span style='color:red'>Fail,<span style='color:red'>Fail,<span style='color:red'>Fail,<span style='color:green'>Lift,<span style='color:red'>Fail,<span style='color:green'>Lift,<span style='color:red'>Fail","<span style='color:red'>Fail,<span style='color:red'>Fail,<span style='color:green'>Lift,<span style='color:green'>Lift,<span style='color:green'>Lift,<span style='color:green'>Lift,<span style='color:red'>Fail,<span style='color:green'>Lift,<span style='color:green'>Lift,<span style='color:green'>Lift,<span style='color:green'>Lift,<span style='color:red'>Fail","<span style='color:red'>Fail,<span style='color:green'>Lift,<span style='color:green'>Lift,<span style='color:red'>Fail,<span style='color:green'>Lift,<span style='color:green'>Lift","0,0,1,1,0,0,0,0,1,0,1,0","0,0,1,1,1,1,0,1,1,1,1,0","0,1,1,0,1,1",10,20,20,"","","","","{""box1"":""100""}","",NA,6,"round3_ready",4,6,3,NA,NA,NA,NA,NA,NA,NA,NA,NA,NA,NA,NA,NA,NA,100,100,NA,NA,NA,NA,NA,NA,NA,NA,NA,100,100,NA,NA,NA,NA,NA,NA,NA,NA,NA,NA,"",NA,NA,NA,NA,NA,NA,NA,NA,2025-11-20 22:24:28
"14274.5","https://psyc-201.github.io/xiang2023/exp/index1.html?PROLIFIC_PID=REDACTED&STUDY_ID=691f8ca61c6b4dcbb0aeb5f4&SESSION_ID=691f8f1d27191784d9e8c4a6","survey-html-form",47,1348708,"0.0-357.0-0.0","sCDM/3wl2Qw4fMoUU/+U/iD/uE9kVopAU+LwMIV2xJrXfRZCZH7SzoOoCSCzx7Zh8xjy8N5mm80Fcrtun8AWFZDjeNMlCHP0uOsU9RtCzFJcgT6N3DbLbDe+RDTr7BkcjmzFpeWj/nZX9LYZUDuty8BKOry4p+ekoOdqdSH0cbIFh2DorMXuPd1zFBX8kaSOfTuwMAHwz0Hz+KnrrmmQ+yxKG27oA8xdRCnGJoFx4doU545nhrY9fl2WEcja43CJ+RTfG++p3o2ybIxjGEJ5AAW8UmHJWjylxxMNUicw1nxr4S/0x8wxLNJ7bg2FoA1Sc+mwf2a+cEhltKZisuvpug==","691f8ca61c6b4dcbb0aeb5f4","691f8f1d27191784d9e8c4a6","index1","<span style='color:red'>Fail,<span style='color:red'>Fail,<span style='color:green'>Lift,<span style='color:green'>Lift,<span style='color:red'>Fail,<span style='color:red'>Fail,<span style='color:red'>Fail,<span style='color:red'>Fail,<span style='color:green'>Lift,<span style='color:red'>Fail,<span style='color:green'>Lift,<span style='color:red'>Fail","<span style='color:red'>Fail,<span style='color:red'>Fail,<span style='color:green'>Lift,<span style='color:green'>Lift,<span style='color:green'>Lift,<span style='color:green'>Lift,<span style='color:red'>Fail,<span style='color:green'>Lift,<span style='color:green'>Lift,<span style='color:green'>Lift,<span style='color:green'>Lift,<span style='color:red'>Fail","<span style='color:red'>Fail,<span style='color:green'>Lift,<span style='color:green'>Lift,<span style='color:red'>Fail,<span style='color:green'>Lift,<span style='color:green'>Lift","0,0,1,1,0,0,0,0,1,0,1,0","0,0,1,1,1,1,0,1,1,1,1,0","0,1,1,0,1,1",10,20,20,"","","","","{""box1"":""7"",""box2"":""7"",""box3"":""50"",""box4"":""50""}","",NA,6,"round3_lift",5,6,3,7,7,50,50,1,1,20,NA,NA,NA,NA,NA,NA,NA,NA,NA,NA,NA,NA,NA,NA,NA,NA,NA,NA,NA,NA,7,7,50,50,1,1,20,NA,NA,NA,"",NA,NA,NA,NA,NA,NA,NA,NA,2025-11-20 22:24:28
"161409.09999999776","https://psyc-201.github.io/xiang2023/exp/index1.html?PROLIFIC_PID=REDACTED&STUDY_ID=691f8ca61c6b4dcbb0aeb5f4&SESSION_ID=691f8f1d27191784d9e8c4a6","survey-text",48,1510119,"0.0-361.0","sCDM/3wl2Qw4fMoUU/+U/iD/uE9kVopAU+LwMIV2xJrXfRZCZH7SzoOoCSCzx7Zh8xjy8N5mm80Fcrtun8AWFZDjeNMlCHP0uOsU9RtCzFJcgT6N3DbLbDe+RDTr7BkcjmzFpeWj/nZX9LYZUDuty8BKOry4p+ekoOdqdSH0cbIFh2DorMXuPd1zFBX8kaSOfTuwMAHwz0Hz+KnrrmmQ+yxKG27oA8xdRCnGJoFx4doU545nhrY9fl2WEcja43CJ+RTfG++p3o2ybIxjGEJ5AAW8UmHJWjylxxMNUicw1nxr4S/0x8wxLNJ7bg2FoA1Sc+mwf2a+cEhltKZisuvpug==","691f8ca61c6b4dcbb0aeb5f4","691f8f1d27191784d9e8c4a6","index1","<span style='color:red'>Fail,<span style='color:red'>Fail,<span style='color:green'>Lift,<span style='color:green'>Lift,<span style='color:red'>Fail,<span style='color:red'>Fail,<span style='color:red'>Fail,<span style='color:red'>Fail,<span style='color:green'>Lift,<span style='color:red'>Fail,<span style='color:green'>Lift,<span style='color:red'>Fail","<span style='color:red'>Fail,<span style='color:red'>Fail,<span style='color:green'>Lift,<span style='color:green'>Lift,<span style='color:green'>Lift,<span style='color:green'>Lift,<span style='color:red'>Fail,<span style='color:green'>Lift,<span style='color:green'>Lift,<span style='color:green'>Lift,<span style='color:green'>Lift,<span style='color:red'>Fail","<span style='color:red'>Fail,<span style='color:green'>Lift,<span style='color:green'>Lift,<span style='color:red'>Fail,<span style='color:green'>Lift,<span style='color:green'>Lift","0,0,1,1,0,0,0,0,1,0,1,0","0,0,1,1,1,1,0,1,1,1,1,0","0,1,1,0,1,1",10,20,20,"","","","","{""Q0"":""There is a box contest where participants spend 2 rounds trying to solo lift a box and one round lifting it together. I estimated likelihood of them successfully lifting the box and estimated their individual strength. ""}","",NA,NA,"",NA,NA,NA,NA,NA,NA,NA,NA,NA,NA,NA,NA,NA,NA,NA,NA,NA,NA,NA,NA,NA,NA,NA,NA,NA,NA,NA,NA,NA,NA,NA,NA,NA,NA,NA,NA,NA,NA,NA,NA,"",NA,NA,NA,NA,NA,NA,NA,NA,2025-11-20 22:24:28
"7161.39999999851","https://psyc-201.github.io/xiang2023/exp/index1.html?PROLIFIC_PID=REDACTED&STUDY_ID=691f8ca61c6b4dcbb0aeb5f4&SESSION_ID=691f8f1d27191784d9e8c4a6","survey-text",49,1517282,"0.0-362.0","sCDM/3wl2Qw4fMoUU/+U/iD/uE9kVopAU+LwMIV2xJrXfRZCZH7SzoOoCSCzx7Zh8xjy8N5mm80Fcrtun8AWFZDjeNMlCHP0uOsU9RtCzFJcgT6N3DbLbDe+RDTr7BkcjmzFpeWj/nZX9LYZUDuty8BKOry4p+ekoOdqdSH0cbIFh2DorMXuPd1zFBX8kaSOfTuwMAHwz0Hz+KnrrmmQ+yxKG27oA8xdRCnGJoFx4doU545nhrY9fl2WEcja43CJ+RTfG++p3o2ybIxjGEJ5AAW8UmHJWjylxxMNUicw1nxr4S/0x8wxLNJ7bg2FoA1Sc+mwf2a+cEhltKZisuvpug==","691f8ca61c6b4dcbb0aeb5f4","691f8f1d27191784d9e8c4a6","index1","<span style='color:red'>Fail,<span style='color:red'>Fail,<span style='color:green'>Lift,<span style='color:green'>Lift,<span style='color:red'>Fail,<span style='color:red'>Fail,<span style='color:red'>Fail,<span style='color:red'>Fail,<span style='color:green'>Lift,<span style='color:red'>Fail,<span style='color:green'>Lift,<span style='color:red'>Fail","<span style='color:red'>Fail,<span style='color:red'>Fail,<span style='color:green'>Lift,<span style='color:green'>Lift,<span style='color:green'>Lift,<span style='color:green'>Lift,<span style='color:red'>Fail,<span style='color:green'>Lift,<span style='color:green'>Lift,<span style='color:green'>Lift,<span style='color:green'>Lift,<span style='color:red'>Fail","<span style='color:red'>Fail,<span style='color:green'>Lift,<span style='color:green'>Lift,<span style='color:red'>Fail,<span style='color:green'>Lift,<span style='color:green'>Lift","0,0,1,1,0,0,0,0,1,0,1,0","0,0,1,1,1,1,0,1,1,1,1,0","0,1,1,0,1,1",10,20,20,"","","","","{""Q0"":""""}","",NA,NA,"",NA,NA,NA,NA,NA,NA,NA,NA,NA,NA,NA,NA,NA,NA,NA,NA,NA,NA,NA,NA,NA,NA,NA,NA,NA,NA,NA,NA,NA,NA,NA,NA,NA,NA,NA,NA,NA,NA,NA,NA,"[{""event"":""blur"",""trial"":1,""time"":7942},{""event"":""focus"",""trial"":1,""time"":8693},{""event"":""fullscreenenter"",""trial"":1,""time"":48469},{""event"":""fullscreenexit"",""trial"":6,""time"":646433},{""event"":""blur"",""trial"":6,""time"":650018},{""event"":""focus"",""trial"":6,""time"":658372},{""event"":""blur"",""trial"":6,""time"":660486},{""event"":""focus"",""trial"":6,""time"":663595},{""event"":""blur"",""trial"":6,""time"":664139},{""event"":""focus"",""trial"":6,""time"":666580},{""event"":""blur"",""trial"":6,""time"":668754},{""event"":""focus"",""trial"":6,""time"":671971},{""event"":""blur"",""trial"":6,""time"":672320},{""event"":""focus"",""trial"":6,""time"":675696},{""event"":""blur"",""trial"":6,""time"":677832},{""event"":""focus"",""trial"":6,""time"":679376},{""event"":""blur"",""trial"":6,""time"":680199},{""event"":""focus"",""trial"":6,""time"":682494},{""event"":""blur"",""trial"":6,""time"":684432},{""event"":""focus"",""trial"":6,""time"":685789},{""event"":""blur"",""trial"":6,""time"":688099},{""event"":""focus"",""trial"":6,""time"":689683},{""event"":""blur"",""trial"":6,""time"":690145},{""event"":""focus"",""trial"":6,""time"":693349},{""event"":""blur"",""trial"":6,""time"":695111},{""event"":""focus"",""trial"":6,""time"":697608},{""event"":""blur"",""trial"":6,""time"":698036},{""event"":""focus"",""trial"":6,""time"":700008},{""event"":""blur"",""trial"":6,""time"":702509},{""event"":""focus"",""trial"":6,""time"":706760},{""event"":""blur"",""trial"":8,""time"":709022},{""event"":""focus"",""trial"":8,""time"":722470},{""event"":""blur"",""trial"":8,""time"":742316},{""event"":""focus"",""trial"":8,""time"":743505},{""event"":""blur"",""trial"":8,""time"":744067},{""event"":""focus"",""trial"":8,""time"":752072},{""event"":""blur"",""trial"":9,""time"":759337},{""event"":""focus"",""trial"":9,""time"":759416},{""event"":""blur"",""trial"":9,""time"":788713},{""event"":""focus"",""trial"":9,""time"":788963},{""event"":""blur"",""trial"":9,""time"":788979},{""event"":""focus"",""trial"":9,""time"":789033},{""event"":""blur"",""trial"":9,""time"":789162},{""event"":""focus"",""trial"":9,""time"":791841},{""event"":""blur"",""trial"":37,""time"":1171510},{""event"":""focus"",""trial"":37,""time"":1171513},{""event"":""blur"",""trial"":37,""time"":1173446},{""event"":""focus"",""trial"":37,""time"":1176459},{""event"":""blur"",""trial"":48,""time"":1422546},{""event"":""focus"",""trial"":48,""time"":1422768},{""event"":""blur"",""trial"":48,""time"":1492504},{""event"":""focus"",""trial"":48,""time"":1492725}]",2,2,1,50,0,0.5,NA,NA,2025-11-20 22:24:28
"10280.099999997765","https://psyc-201.github.io/xiang2023/exp/index1.html?PROLIFIC_PID=REDACTED&STUDY_ID=691f8ca61c6b4dcbb0aeb5f4&SESSION_ID=691f8f1d27191784d9e8c4a6","html-button-response",50,1527563,"0.0-363.0","sCDM/3wl2Qw4fMoUU/+U/iD/uE9kVopAU+LwMIV2xJrXfRZCZH7SzoOoCSCzx7Zh8xjy8N5mm80Fcrtun8AWFZDjeNMlCHP0uOsU9RtCzFJcgT6N3DbLbDe+RDTr7BkcjmzFpeWj/nZX9LYZUDuty8BKOry4p+ekoOdqdSH0cbIFh2DorMXuPd1zFBX8kaSOfTuwMAHwz0Hz+KnrrmmQ+yxKG27oA8xdRCnGJoFx4doU545nhrY9fl2WEcja43CJ+RTfG++p3o2ybIxjGEJ5AAW8UmHJWjylxxMNUicw1nxr4S/0x8wxLNJ7bg2FoA1Sc+mwf2a+cEhltKZisuvpug==","691f8ca61c6b4dcbb0aeb5f4","691f8f1d27191784d9e8c4a6","index1","<span style='color:red'>Fail,<span style='color:red'>Fail,<span style='color:green'>Lift,<span style='color:green'>Lift,<span style='color:red'>Fail,<span style='color:red'>Fail,<span style='color:red'>Fail,<span style='color:red'>Fail,<span style='color:green'>Lift,<span style='color:red'>Fail,<span style='color:green'>Lift,<span style='color:red'>Fail","<span style='color:red'>Fail,<span style='color:red'>Fail,<span style='color:green'>Lift,<span style='color:green'>Lift,<span style='color:green'>Lift,<span style='color:green'>Lift,<span style='color:red'>Fail,<span style='color:green'>Lift,<span style='color:green'>Lift,<span style='color:green'>Lift,<span style='color:green'>Lift,<span style='color:red'>Fail","<span style='color:red'>Fail,<span style='color:green'>Lift,<span style='color:green'>Lift,<span style='color:red'>Fail,<span style='color:green'>Lift,<span style='color:green'>Lift","0,0,1,1,0,0,0,0,1,0,1,0","0,0,1,1,1,1,0,1,1,1,1,0","0,1,1,0,1,1",10,20,20,"","","<p> We randomly picked <b>Contest 2, Round 2</b> to calculate your bonus. </p><p> The outcome of Contestant D on that round is <span style='color:red'>Fail</span>. </p><p> The probability you entered was 50. </p><p><b> You won a bonus of $0.50!</b></p><p> IMPORTANT: Please click 'Next' to complete the game.</p>","","","",0,NA,"",NA,NA,NA,NA,NA,NA,NA,NA,NA,NA,NA,NA,NA,NA,NA,NA,NA,NA,NA,NA,NA,NA,NA,NA,NA,NA,NA,NA,NA,NA,NA,NA,NA,NA,NA,NA,NA,NA,NA,NA,"",NA,NA,NA,NA,NA,NA,1,0,2025-11-20 22:24:28
