"rt","url","trial_type","trial_index","time_elapsed","internal_node_id","encryptedProlificId","studyId","sessionId","expIndex","round1_outcomes","round2_outcomes","round3_outcomes","round1_o","round2_o","round3_o","round1_reward","round2_reward","round3_reward","success","view_history","stimulus","key_press","responses","question_order","button_pressed","j","Stage","stage","contest","round","strength_a","strength_b","effort_a","effort_b","outcome_a","outcome_b","reward","r1_strength_a","r1_strength_b","r1_effort_a","r1_effort_b","r1_outcome_a","r1_outcome_b","r1_reward","probability_a","probability_b","r2_prob_a","r2_prob_b","r2_strength_a","r2_strength_b","r2_effort_a","r2_effort_b","r2_outcome_a","r2_outcome_b","r2_reward","r3_prob_a","r3_prob_b","attention_check","count","r3_strength_a","r3_strength_b","r3_outcome_a","r3_outcome_b","r3_reward","r3_effort_a","r3_effort_b","screen","pick_contest","pick_round","pick_side","trial_probability","trial_outcome","bonus","attention_sum","attention","datapipe_meta.attributes.date_modified"
"3630","https://psyc-201.github.io/xiang2023/exp/index1.html?PROLIFIC_PID=REDACTED&STUDY_ID=691f8ca61c6b4dcbb0aeb5f4&SESSION_ID=691f91c2ff1e15d3aa95bc5e","external-html",0,3738,"0.0-0.0","PLd/LQeQMo9Zyjn/MFRgtmI5RflAiivrThZw7h1Hu8366OK0u/WYSzAUUOZk+NJBTM8Zlx8jgPUoZQMscSuWMEZgbRGbopo2g+8hPsgD4Dt7MyRbCcVi1rbN0NGgkWVuktdzzFlxdHBfELoL5izovjm5D5wdaq3myY0lZwaT66DpvXff6cCUb1lLOIPr6Ky+St8GO9Q4xC80IYVMCpmoo/EmPg7doyK3/rg0nbg6/Ee7VNDPK5ErCI+dxEWv/vUM89iPo7v8GvHjK/oNN2rDE4I6m70K3MIy1vFQZDSeOZfLG/ra5Mnv/fjlSaxLuR+ovZxqh19M83lFUCYR0asYOg==","691f8ca61c6b4dcbb0aeb5f4","691f91c2ff1e15d3aa95bc5e","index1","<span style='color:red'>Fail,<span style='color:red'>Fail,<span style='color:green'>Lift,<span style='color:green'>Lift,<span style='color:red'>Fail,<span style='color:red'>Fail,<span style='color:red'>Fail,<span style='color:red'>Fail,<span style='color:green'>Lift,<span style='color:red'>Fail,<span style='color:red'>Fail,<span style='color:green'>Lift","<span style='color:red'>Fail,<span style='color:red'>Fail,<span style='color:green'>Lift,<span style='color:green'>Lift,<span style='color:green'>Lift,<span style='color:green'>Lift,<span style='color:green'>Lift,<span style='color:red'>Fail,<span style='color:green'>Lift,<span style='color:green'>Lift,<span style='color:red'>Fail,<span style='color:green'>Lift","<span style='color:red'>Fail,<span style='color:green'>Lift,<span style='color:green'>Lift,<span style='color:red'>Fail,<span style='color:green'>Lift,<span style='color:green'>Lift","0,0,1,1,0,0,0,0,1,0,0,1","0,0,1,1,1,1,1,0,1,1,0,1","0,1,1,0,1,1",10,20,20,"","","","","","",NA,NA,"",NA,NA,NA,NA,NA,NA,NA,NA,NA,NA,NA,NA,NA,NA,NA,NA,NA,NA,NA,NA,NA,NA,NA,NA,NA,NA,NA,NA,NA,NA,NA,NA,NA,NA,NA,NA,NA,NA,NA,"",NA,NA,NA,NA,NA,NA,NA,NA,2025-11-20 22:57:32
"","https://psyc-201.github.io/xiang2023/exp/index1.html?PROLIFIC_PID=REDACTED&STUDY_ID=691f8ca61c6b4dcbb0aeb5f4&SESSION_ID=691f91c2ff1e15d3aa95bc5e","fullscreen",1,7640,"0.0-1.0","PLd/LQeQMo9Zyjn/MFRgtmI5RflAiivrThZw7h1Hu8366OK0u/WYSzAUUOZk+NJBTM8Zlx8jgPUoZQMscSuWMEZgbRGbopo2g+8hPsgD4Dt7MyRbCcVi1rbN0NGgkWVuktdzzFlxdHBfELoL5izovjm5D5wdaq3myY0lZwaT66DpvXff6cCUb1lLOIPr6Ky+St8GO9Q4xC80IYVMCpmoo/EmPg7doyK3/rg0nbg6/Ee7VNDPK5ErCI+dxEWv/vUM89iPo7v8GvHjK/oNN2rDE4I6m70K3MIy1vFQZDSeOZfLG/ra5Mnv/fjlSaxLuR+ovZxqh19M83lFUCYR0asYOg==","691f8ca61c6b4dcbb0aeb5f4","691f91c2ff1e15d3aa95bc5e","index1","<span style='color:red'>Fail,<span style='color:red'>Fail,<span style='color:green'>Lift,<span style='color:green'>Lift,<span style='color:red'>Fail,<span style='color:red'>Fail,<span style='color:red'>Fail,<span style='color:red'>Fail,<span style='color:green'>Lift,<span style='color:red'>Fail,<span style='color:red'>Fail,<span style='color:green'>Lift","<span style='color:red'>Fail,<span style='color:red'>Fail,<span style='color:green'>Lift,<span style='color:green'>Lift,<span style='color:green'>Lift,<span style='color:green'>Lift,<span style='color:green'>Lift,<span style='color:red'>Fail,<span style='color:green'>Lift,<span style='color:green'>Lift,<span style='color:red'>Fail,<span style='color:green'>Lift","<span style='color:red'>Fail,<span style='color:green'>Lift,<span style='color:green'>Lift,<span style='color:red'>Fail,<span style='color:green'>Lift,<span style='color:green'>Lift","0,0,1,1,0,0,0,0,1,0,0,1","0,0,1,1,1,1,1,0,1,1,0,1","0,1,1,0,1,1",10,20,20,"true","","","","","",NA,NA,"",NA,NA,NA,NA,NA,NA,NA,NA,NA,NA,NA,NA,NA,NA,NA,NA,NA,NA,NA,NA,NA,NA,NA,NA,NA,NA,NA,NA,NA,NA,NA,NA,NA,NA,NA,NA,NA,NA,NA,"",NA,NA,NA,NA,NA,NA,NA,NA,2025-11-20 22:57:32
"656216","https://psyc-201.github.io/xiang2023/exp/index1.html?PROLIFIC_PID=REDACTED&STUDY_ID=691f8ca61c6b4dcbb0aeb5f4&SESSION_ID=691f91c2ff1e15d3aa95bc5e","instructions",2,663857,"0.0-2.0","PLd/LQeQMo9Zyjn/MFRgtmI5RflAiivrThZw7h1Hu8366OK0u/WYSzAUUOZk+NJBTM8Zlx8jgPUoZQMscSuWMEZgbRGbopo2g+8hPsgD4Dt7MyRbCcVi1rbN0NGgkWVuktdzzFlxdHBfELoL5izovjm5D5wdaq3myY0lZwaT66DpvXff6cCUb1lLOIPr6Ky+St8GO9Q4xC80IYVMCpmoo/EmPg7doyK3/rg0nbg6/Ee7VNDPK5ErCI+dxEWv/vUM89iPo7v8GvHjK/oNN2rDE4I6m70K3MIy1vFQZDSeOZfLG/ra5Mnv/fjlSaxLuR+ovZxqh19M83lFUCYR0asYOg==","691f8ca61c6b4dcbb0aeb5f4","691f91c2ff1e15d3aa95bc5e","index1","<span style='color:red'>Fail,<span style='color:red'>Fail,<span style='color:green'>Lift,<span style='color:green'>Lift,<span style='color:red'>Fail,<span style='color:red'>Fail,<span style='color:red'>Fail,<span style='color:red'>Fail,<span style='color:green'>Lift,<span style='color:red'>Fail,<span style='color:red'>Fail,<span style='color:green'>Lift","<span style='color:red'>Fail,<span style='color:red'>Fail,<span style='color:green'>Lift,<span style='color:green'>Lift,<span style='color:green'>Lift,<span style='color:green'>Lift,<span style='color:green'>Lift,<span style='color:red'>Fail,<span style='color:green'>Lift,<span style='color:green'>Lift,<span style='color:red'>Fail,<span style='color:green'>Lift","<span style='color:red'>Fail,<span style='color:green'>Lift,<span style='color:green'>Lift,<span style='color:red'>Fail,<span style='color:green'>Lift,<span style='color:green'>Lift","0,0,1,1,0,0,0,0,1,0,0,1","0,0,1,1,1,1,1,0,1,1,0,1","0,1,1,0,1,1",10,20,20,"","[{""page_index"":0,""viewing_time"":3644},{""page_index"":1,""viewing_time"":2973},{""page_index"":2,""viewing_time"":518},{""page_index"":3,""viewing_time"":8019},{""page_index"":4,""viewing_time"":2384},{""page_index"":5,""viewing_time"":2122},{""page_index"":6,""viewing_time"":5675},{""page_index"":5,""viewing_time"":1619},{""page_index"":4,""viewing_time"":239},{""page_index"":3,""viewing_time"":1037},{""page_index"":2,""viewing_time"":1100},{""page_index"":1,""viewing_time"":1503},{""page_index"":0,""viewing_time"":490554},{""page_index"":1,""viewing_time"":6375},{""page_index"":2,""viewing_time"":105887},{""page_index"":3,""viewing_time"":4674},{""page_index"":4,""viewing_time"":6853},{""page_index"":5,""viewing_time"":6931},{""page_index"":6,""viewing_time"":4109}]","","","","",NA,NA,"",NA,NA,NA,NA,NA,NA,NA,NA,NA,NA,NA,NA,NA,NA,NA,NA,NA,NA,NA,NA,NA,NA,NA,NA,NA,NA,NA,NA,NA,NA,NA,NA,NA,NA,NA,NA,NA,NA,NA,"",NA,NA,NA,NA,NA,NA,NA,NA,2025-11-20 22:57:32
"null","https://psyc-201.github.io/xiang2023/exp/index1.html?PROLIFIC_PID=REDACTED&STUDY_ID=691f8ca61c6b4dcbb0aeb5f4&SESSION_ID=691f91c2ff1e15d3aa95bc5e","html-keyboard-response",3,664865,"0.0-3.0","PLd/LQeQMo9Zyjn/MFRgtmI5RflAiivrThZw7h1Hu8366OK0u/WYSzAUUOZk+NJBTM8Zlx8jgPUoZQMscSuWMEZgbRGbopo2g+8hPsgD4Dt7MyRbCcVi1rbN0NGgkWVuktdzzFlxdHBfELoL5izovjm5D5wdaq3myY0lZwaT66DpvXff6cCUb1lLOIPr6Ky+St8GO9Q4xC80IYVMCpmoo/EmPg7doyK3/rg0nbg6/Ee7VNDPK5ErCI+dxEWv/vUM89iPo7v8GvHjK/oNN2rDE4I6m70K3MIy1vFQZDSeOZfLG/ra5Mnv/fjlSaxLuR+ovZxqh19M83lFUCYR0asYOg==","691f8ca61c6b4dcbb0aeb5f4","691f91c2ff1e15d3aa95bc5e","index1","<span style='color:red'>Fail,<span style='color:red'>Fail,<span style='color:green'>Lift,<span style='color:green'>Lift,<span style='color:red'>Fail,<span style='color:red'>Fail,<span style='color:red'>Fail,<span style='color:red'>Fail,<span style='color:green'>Lift,<span style='color:red'>Fail,<span style='color:red'>Fail,<span style='color:green'>Lift","<span style='color:red'>Fail,<span style='color:red'>Fail,<span style='color:green'>Lift,<span style='color:green'>Lift,<span style='color:green'>Lift,<span style='color:green'>Lift,<span style='color:green'>Lift,<span style='color:red'>Fail,<span style='color:green'>Lift,<span style='color:green'>Lift,<span style='color:red'>Fail,<span style='color:green'>Lift","<span style='color:red'>Fail,<span style='color:green'>Lift,<span style='color:green'>Lift,<span style='color:red'>Fail,<span style='color:green'>Lift,<span style='color:green'>Lift","0,0,1,1,0,0,0,0,1,0,0,1","0,0,1,1,1,1,1,0,1,1,0,1","0,1,1,0,1,1",10,20,20,"",""," ","null","","",NA,NA,"",NA,NA,NA,NA,NA,NA,NA,NA,NA,NA,NA,NA,NA,NA,NA,NA,NA,NA,NA,NA,NA,NA,NA,NA,NA,NA,NA,NA,NA,NA,NA,NA,NA,NA,NA,NA,NA,NA,NA,"",NA,NA,NA,NA,NA,NA,NA,NA,2025-11-20 22:57:32
"89220","https://psyc-201.github.io/xiang2023/exp/index1.html?PROLIFIC_PID=REDACTED&STUDY_ID=691f8ca61c6b4dcbb0aeb5f4&SESSION_ID=691f91c2ff1e15d3aa95bc5e","survey-multi-choice",4,754086,"0.0-4.0","PLd/LQeQMo9Zyjn/MFRgtmI5RflAiivrThZw7h1Hu8366OK0u/WYSzAUUOZk+NJBTM8Zlx8jgPUoZQMscSuWMEZgbRGbopo2g+8hPsgD4Dt7MyRbCcVi1rbN0NGgkWVuktdzzFlxdHBfELoL5izovjm5D5wdaq3myY0lZwaT66DpvXff6cCUb1lLOIPr6Ky+St8GO9Q4xC80IYVMCpmoo/EmPg7doyK3/rg0nbg6/Ee7VNDPK5ErCI+dxEWv/vUM89iPo7v8GvHjK/oNN2rDE4I6m70K3MIy1vFQZDSeOZfLG/ra5Mnv/fjlSaxLuR+ovZxqh19M83lFUCYR0asYOg==","691f8ca61c6b4dcbb0aeb5f4","691f91c2ff1e15d3aa95bc5e","index1","<span style='color:red'>Fail,<span style='color:red'>Fail,<span style='color:green'>Lift,<span style='color:green'>Lift,<span style='color:red'>Fail,<span style='color:red'>Fail,<span style='color:red'>Fail,<span style='color:red'>Fail,<span style='color:green'>Lift,<span style='color:red'>Fail,<span style='color:red'>Fail,<span style='color:green'>Lift","<span style='color:red'>Fail,<span style='color:red'>Fail,<span style='color:green'>Lift,<span style='color:green'>Lift,<span style='color:green'>Lift,<span style='color:green'>Lift,<span style='color:green'>Lift,<span style='color:red'>Fail,<span style='color:green'>Lift,<span style='color:green'>Lift,<span style='color:red'>Fail,<span style='color:green'>Lift","<span style='color:red'>Fail,<span style='color:green'>Lift,<span style='color:green'>Lift,<span style='color:red'>Fail,<span style='color:green'>Lift,<span style='color:green'>Lift","0,0,1,1,0,0,0,0,1,0,0,1","0,0,1,1,1,1,1,0,1,1,0,1","0,1,1,0,1,1",10,20,20,"","","","","{""Q0"":""It consists of multiple contests, each contest with three rounds."",""Q1"":""When a new contest begins."",""Q2"":""The box weight always stays the same (equivalent to strength of 5)."",""Q3"":""They will split the $20, that is $10 for each."",""Q4"":""How close my guesses are to the actual outcome.""}","[0,1,2,3,4]",NA,NA,"",NA,NA,NA,NA,NA,NA,NA,NA,NA,NA,NA,NA,NA,NA,NA,NA,NA,NA,NA,NA,NA,NA,NA,NA,NA,NA,NA,NA,NA,NA,NA,NA,NA,NA,NA,NA,NA,NA,NA,"",NA,NA,NA,NA,NA,NA,NA,NA,2025-11-20 22:57:32
"3055","https://psyc-201.github.io/xiang2023/exp/index1.html?PROLIFIC_PID=REDACTED&STUDY_ID=691f8ca61c6b4dcbb0aeb5f4&SESSION_ID=691f91c2ff1e15d3aa95bc5e","html-button-response",5,757142,"0.0-5.0-1.0","PLd/LQeQMo9Zyjn/MFRgtmI5RflAiivrThZw7h1Hu8366OK0u/WYSzAUUOZk+NJBTM8Zlx8jgPUoZQMscSuWMEZgbRGbopo2g+8hPsgD4Dt7MyRbCcVi1rbN0NGgkWVuktdzzFlxdHBfELoL5izovjm5D5wdaq3myY0lZwaT66DpvXff6cCUb1lLOIPr6Ky+St8GO9Q4xC80IYVMCpmoo/EmPg7doyK3/rg0nbg6/Ee7VNDPK5ErCI+dxEWv/vUM89iPo7v8GvHjK/oNN2rDE4I6m70K3MIy1vFQZDSeOZfLG/ra5Mnv/fjlSaxLuR+ovZxqh19M83lFUCYR0asYOg==","691f8ca61c6b4dcbb0aeb5f4","691f91c2ff1e15d3aa95bc5e","index1","<span style='color:red'>Fail,<span style='color:red'>Fail,<span style='color:green'>Lift,<span style='color:green'>Lift,<span style='color:red'>Fail,<span style='color:red'>Fail,<span style='color:red'>Fail,<span style='color:red'>Fail,<span style='color:green'>Lift,<span style='color:red'>Fail,<span style='color:red'>Fail,<span style='color:green'>Lift","<span style='color:red'>Fail,<span style='color:red'>Fail,<span style='color:green'>Lift,<span style='color:green'>Lift,<span style='color:green'>Lift,<span style='color:green'>Lift,<span style='color:green'>Lift,<span style='color:red'>Fail,<span style='color:green'>Lift,<span style='color:green'>Lift,<span style='color:red'>Fail,<span style='color:green'>Lift","<span style='color:red'>Fail,<span style='color:green'>Lift,<span style='color:green'>Lift,<span style='color:red'>Fail,<span style='color:green'>Lift,<span style='color:green'>Lift","0,0,1,1,0,0,0,0,1,0,0,1","0,0,1,1,1,1,1,0,1,1,0,1","0,1,1,0,1,1",10,20,20,"","","<p> Oops! You did not pass the comprehension check. <b>Please note that you have only 1 attempt(s) left.</b> </p>","","","",0,NA,"",NA,NA,NA,NA,NA,NA,NA,NA,NA,NA,NA,NA,NA,NA,NA,NA,NA,NA,NA,NA,NA,NA,NA,NA,NA,NA,NA,NA,NA,NA,NA,NA,NA,NA,NA,NA,NA,NA,NA,"",NA,NA,NA,NA,NA,NA,NA,NA,2025-11-20 22:57:32
"161674","https://psyc-201.github.io/xiang2023/exp/index1.html?PROLIFIC_PID=REDACTED&STUDY_ID=691f8ca61c6b4dcbb0aeb5f4&SESSION_ID=691f91c2ff1e15d3aa95bc5e","survey-multi-choice",6,918818,"0.0-7.0-0.0","PLd/LQeQMo9Zyjn/MFRgtmI5RflAiivrThZw7h1Hu8366OK0u/WYSzAUUOZk+NJBTM8Zlx8jgPUoZQMscSuWMEZgbRGbopo2g+8hPsgD4Dt7MyRbCcVi1rbN0NGgkWVuktdzzFlxdHBfELoL5izovjm5D5wdaq3myY0lZwaT66DpvXff6cCUb1lLOIPr6Ky+St8GO9Q4xC80IYVMCpmoo/EmPg7doyK3/rg0nbg6/Ee7VNDPK5ErCI+dxEWv/vUM89iPo7v8GvHjK/oNN2rDE4I6m70K3MIy1vFQZDSeOZfLG/ra5Mnv/fjlSaxLuR+ovZxqh19M83lFUCYR0asYOg==","691f8ca61c6b4dcbb0aeb5f4","691f91c2ff1e15d3aa95bc5e","index1","<span style='color:red'>Fail,<span style='color:red'>Fail,<span style='color:green'>Lift,<span style='color:green'>Lift,<span style='color:red'>Fail,<span style='color:red'>Fail,<span style='color:red'>Fail,<span style='color:red'>Fail,<span style='color:green'>Lift,<span style='color:red'>Fail,<span style='color:red'>Fail,<span style='color:green'>Lift","<span style='color:red'>Fail,<span style='color:red'>Fail,<span style='color:green'>Lift,<span style='color:green'>Lift,<span style='color:green'>Lift,<span style='color:green'>Lift,<span style='color:green'>Lift,<span style='color:red'>Fail,<span style='color:green'>Lift,<span style='color:green'>Lift,<span style='color:red'>Fail,<span style='color:green'>Lift","<span style='color:red'>Fail,<span style='color:green'>Lift,<span style='color:green'>Lift,<span style='color:red'>Fail,<span style='color:green'>Lift,<span style='color:green'>Lift","0,0,1,1,0,0,0,0,1,0,0,1","0,0,1,1,1,1,1,0,1,1,0,1","0,1,1,0,1,1",10,20,20,"","","","","{""Q0"":""It consists of multiple contests, each contest with three rounds."",""Q1"":""When a new contest begins."",""Q2"":""The box weight always stays the same (equivalent to strength of 5)."",""Q3"":""Each will get $20."",""Q4"":""How close my guesses are to the actual outcome.""}","[0,1,2,3,4]",NA,NA,"",NA,NA,NA,NA,NA,NA,NA,NA,NA,NA,NA,NA,NA,NA,NA,NA,NA,NA,NA,NA,NA,NA,NA,NA,NA,NA,NA,NA,NA,NA,NA,NA,NA,NA,NA,NA,NA,NA,NA,"",NA,NA,NA,NA,NA,NA,NA,NA,2025-11-20 22:57:32
"5385","https://psyc-201.github.io/xiang2023/exp/index1.html?PROLIFIC_PID=REDACTED&STUDY_ID=691f8ca61c6b4dcbb0aeb5f4&SESSION_ID=691f91c2ff1e15d3aa95bc5e","instructions",7,924205,"0.0-305.0","PLd/LQeQMo9Zyjn/MFRgtmI5RflAiivrThZw7h1Hu8366OK0u/WYSzAUUOZk+NJBTM8Zlx8jgPUoZQMscSuWMEZgbRGbopo2g+8hPsgD4Dt7MyRbCcVi1rbN0NGgkWVuktdzzFlxdHBfELoL5izovjm5D5wdaq3myY0lZwaT66DpvXff6cCUb1lLOIPr6Ky+St8GO9Q4xC80IYVMCpmoo/EmPg7doyK3/rg0nbg6/Ee7VNDPK5ErCI+dxEWv/vUM89iPo7v8GvHjK/oNN2rDE4I6m70K3MIy1vFQZDSeOZfLG/ra5Mnv/fjlSaxLuR+ovZxqh19M83lFUCYR0asYOg==","691f8ca61c6b4dcbb0aeb5f4","691f91c2ff1e15d3aa95bc5e","index1","<span style='color:red'>Fail,<span style='color:red'>Fail,<span style='color:green'>Lift,<span style='color:green'>Lift,<span style='color:red'>Fail,<span style='color:red'>Fail,<span style='color:red'>Fail,<span style='color:red'>Fail,<span style='color:green'>Lift,<span style='color:red'>Fail,<span style='color:red'>Fail,<span style='color:green'>Lift","<span style='color:red'>Fail,<span style='color:red'>Fail,<span style='color:green'>Lift,<span style='color:green'>Lift,<span style='color:green'>Lift,<span style='color:green'>Lift,<span style='color:green'>Lift,<span style='color:red'>Fail,<span style='color:green'>Lift,<span style='color:green'>Lift,<span style='color:red'>Fail,<span style='color:green'>Lift","<span style='color:red'>Fail,<span style='color:green'>Lift,<span style='color:green'>Lift,<span style='color:red'>Fail,<span style='color:green'>Lift,<span style='color:green'>Lift","0,0,1,1,0,0,0,0,1,0,0,1","0,0,1,1,1,1,1,0,1,1,0,1","0,1,1,0,1,1",10,20,20,"","[{""page_index"":0,""viewing_time"":2509},{""page_index"":1,""viewing_time"":2876}]","","","","",NA,NA,"",NA,NA,NA,NA,NA,NA,NA,NA,NA,NA,NA,NA,NA,NA,NA,NA,NA,NA,NA,NA,NA,NA,NA,NA,NA,NA,NA,NA,NA,NA,NA,NA,NA,NA,NA,NA,NA,NA,NA,"",NA,NA,NA,NA,NA,NA,NA,NA,2025-11-20 22:57:32
"null","https://psyc-201.github.io/xiang2023/exp/index1.html?PROLIFIC_PID=REDACTED&STUDY_ID=691f8ca61c6b4dcbb0aeb5f4&SESSION_ID=691f91c2ff1e15d3aa95bc5e","html-keyboard-response",8,925221,"0.0-306.0","PLd/LQeQMo9Zyjn/MFRgtmI5RflAiivrThZw7h1Hu8366OK0u/WYSzAUUOZk+NJBTM8Zlx8jgPUoZQMscSuWMEZgbRGbopo2g+8hPsgD4Dt7MyRbCcVi1rbN0NGgkWVuktdzzFlxdHBfELoL5izovjm5D5wdaq3myY0lZwaT66DpvXff6cCUb1lLOIPr6Ky+St8GO9Q4xC80IYVMCpmoo/EmPg7doyK3/rg0nbg6/Ee7VNDPK5ErCI+dxEWv/vUM89iPo7v8GvHjK/oNN2rDE4I6m70K3MIy1vFQZDSeOZfLG/ra5Mnv/fjlSaxLuR+ovZxqh19M83lFUCYR0asYOg==","691f8ca61c6b4dcbb0aeb5f4","691f91c2ff1e15d3aa95bc5e","index1","<span style='color:red'>Fail,<span style='color:red'>Fail,<span style='color:green'>Lift,<span style='color:green'>Lift,<span style='color:red'>Fail,<span style='color:red'>Fail,<span style='color:red'>Fail,<span style='color:red'>Fail,<span style='color:green'>Lift,<span style='color:red'>Fail,<span style='color:red'>Fail,<span style='color:green'>Lift","<span style='color:red'>Fail,<span style='color:red'>Fail,<span style='color:green'>Lift,<span style='color:green'>Lift,<span style='color:green'>Lift,<span style='color:green'>Lift,<span style='color:green'>Lift,<span style='color:red'>Fail,<span style='color:green'>Lift,<span style='color:green'>Lift,<span style='color:red'>Fail,<span style='color:green'>Lift","<span style='color:red'>Fail,<span style='color:green'>Lift,<span style='color:green'>Lift,<span style='color:red'>Fail,<span style='color:green'>Lift,<span style='color:green'>Lift","0,0,1,1,0,0,0,0,1,0,0,1","0,0,1,1,1,1,1,0,1,1,0,1","0,1,1,0,1,1",10,20,20,"",""," ","null","","",NA,1,"",NA,NA,NA,NA,NA,NA,NA,NA,NA,NA,NA,NA,NA,NA,NA,NA,NA,NA,NA,NA,NA,NA,NA,NA,NA,NA,NA,NA,NA,NA,NA,NA,NA,NA,NA,NA,NA,NA,NA,"",NA,NA,NA,NA,NA,NA,NA,NA,2025-11-20 22:57:32
"null","https://psyc-201.github.io/xiang2023/exp/index1.html?PROLIFIC_PID=REDACTED&STUDY_ID=691f8ca61c6b4dcbb0aeb5f4&SESSION_ID=691f91c2ff1e15d3aa95bc5e","html-keyboard-response",9,929237,"0.0-307.0","PLd/LQeQMo9Zyjn/MFRgtmI5RflAiivrThZw7h1Hu8366OK0u/WYSzAUUOZk+NJBTM8Zlx8jgPUoZQMscSuWMEZgbRGbopo2g+8hPsgD4Dt7MyRbCcVi1rbN0NGgkWVuktdzzFlxdHBfELoL5izovjm5D5wdaq3myY0lZwaT66DpvXff6cCUb1lLOIPr6Ky+St8GO9Q4xC80IYVMCpmoo/EmPg7doyK3/rg0nbg6/Ee7VNDPK5ErCI+dxEWv/vUM89iPo7v8GvHjK/oNN2rDE4I6m70K3MIy1vFQZDSeOZfLG/ra5Mnv/fjlSaxLuR+ovZxqh19M83lFUCYR0asYOg==","691f8ca61c6b4dcbb0aeb5f4","691f91c2ff1e15d3aa95bc5e","index1","<span style='color:red'>Fail,<span style='color:red'>Fail,<span style='color:green'>Lift,<span style='color:green'>Lift,<span style='color:red'>Fail,<span style='color:red'>Fail,<span style='color:red'>Fail,<span style='color:red'>Fail,<span style='color:green'>Lift,<span style='color:red'>Fail,<span style='color:red'>Fail,<span style='color:green'>Lift","<span style='color:red'>Fail,<span style='color:red'>Fail,<span style='color:green'>Lift,<span style='color:green'>Lift,<span style='color:green'>Lift,<span style='color:green'>Lift,<span style='color:green'>Lift,<span style='color:red'>Fail,<span style='color:green'>Lift,<span style='color:green'>Lift,<span style='color:red'>Fail,<span style='color:green'>Lift","<span style='color:red'>Fail,<span style='color:green'>Lift,<span style='color:green'>Lift,<span style='color:red'>Fail,<span style='color:green'>Lift,<span style='color:green'>Lift","0,0,1,1,0,0,0,0,1,0,0,1","0,0,1,1,1,1,1,0,1,1,0,1","0,1,1,0,1,1",10,20,20,"","","<p style='font-size:30px'><b> New Contest! </b></p>","null","","",NA,1,"",NA,NA,NA,NA,NA,NA,NA,NA,NA,NA,NA,NA,NA,NA,NA,NA,NA,NA,NA,NA,NA,NA,NA,NA,NA,NA,NA,NA,NA,NA,NA,NA,NA,NA,NA,NA,NA,NA,NA,"",NA,NA,NA,NA,NA,NA,NA,NA,2025-11-20 22:57:32
"327295","https://psyc-201.github.io/xiang2023/exp/index1.html?PROLIFIC_PID=REDACTED&STUDY_ID=691f8ca61c6b4dcbb0aeb5f4&SESSION_ID=691f91c2ff1e15d3aa95bc5e","survey-html-form",10,1256534,"0.0-308.0","PLd/LQeQMo9Zyjn/MFRgtmI5RflAiivrThZw7h1Hu8366OK0u/WYSzAUUOZk+NJBTM8Zlx8jgPUoZQMscSuWMEZgbRGbopo2g+8hPsgD4Dt7MyRbCcVi1rbN0NGgkWVuktdzzFlxdHBfELoL5izovjm5D5wdaq3myY0lZwaT66DpvXff6cCUb1lLOIPr6Ky+St8GO9Q4xC80IYVMCpmoo/EmPg7doyK3/rg0nbg6/Ee7VNDPK5ErCI+dxEWv/vUM89iPo7v8GvHjK/oNN2rDE4I6m70K3MIy1vFQZDSeOZfLG/ra5Mnv/fjlSaxLuR+ovZxqh19M83lFUCYR0asYOg==","691f8ca61c6b4dcbb0aeb5f4","691f91c2ff1e15d3aa95bc5e","index1","<span style='color:red'>Fail,<span style='color:red'>Fail,<span style='color:green'>Lift,<span style='color:green'>Lift,<span style='color:red'>Fail,<span style='color:red'>Fail,<span style='color:red'>Fail,<span style='color:red'>Fail,<span style='color:green'>Lift,<span style='color:red'>Fail,<span style='color:red'>Fail,<span style='color:green'>Lift","<span style='color:red'>Fail,<span style='color:red'>Fail,<span style='color:green'>Lift,<span style='color:green'>Lift,<span style='color:green'>Lift,<span style='color:green'>Lift,<span style='color:green'>Lift,<span style='color:red'>Fail,<span style='color:green'>Lift,<span style='color:green'>Lift,<span style='color:red'>Fail,<span style='color:green'>Lift","<span style='color:red'>Fail,<span style='color:green'>Lift,<span style='color:green'>Lift,<span style='color:red'>Fail,<span style='color:green'>Lift,<span style='color:green'>Lift","0,0,1,1,0,0,0,0,1,0,0,1","0,0,1,1,1,1,1,0,1,1,0,1","0,1,1,0,1,1",10,20,20,"","","","","{""box1"":""3"",""box2"":""3""}","",NA,1,"round1_outcome",1,1,1,3,3,NA,NA,0,0,10,3,3,NA,NA,0,0,10,NA,NA,NA,NA,NA,NA,NA,NA,NA,NA,NA,NA,NA,NA,NA,NA,NA,NA,NA,NA,NA,NA,"",NA,NA,NA,NA,NA,NA,NA,NA,2025-11-20 22:57:32
"8948","https://psyc-201.github.io/xiang2023/exp/index1.html?PROLIFIC_PID=REDACTED&STUDY_ID=691f8ca61c6b4dcbb0aeb5f4&SESSION_ID=691f91c2ff1e15d3aa95bc5e","survey-html-form",11,1265482,"0.0-309.0","PLd/LQeQMo9Zyjn/MFRgtmI5RflAiivrThZw7h1Hu8366OK0u/WYSzAUUOZk+NJBTM8Zlx8jgPUoZQMscSuWMEZgbRGbopo2g+8hPsgD4Dt7MyRbCcVi1rbN0NGgkWVuktdzzFlxdHBfELoL5izovjm5D5wdaq3myY0lZwaT66DpvXff6cCUb1lLOIPr6Ky+St8GO9Q4xC80IYVMCpmoo/EmPg7doyK3/rg0nbg6/Ee7VNDPK5ErCI+dxEWv/vUM89iPo7v8GvHjK/oNN2rDE4I6m70K3MIy1vFQZDSeOZfLG/ra5Mnv/fjlSaxLuR+ovZxqh19M83lFUCYR0asYOg==","691f8ca61c6b4dcbb0aeb5f4","691f91c2ff1e15d3aa95bc5e","index1","<span style='color:red'>Fail,<span style='color:red'>Fail,<span style='color:green'>Lift,<span style='color:green'>Lift,<span style='color:red'>Fail,<span style='color:red'>Fail,<span style='color:red'>Fail,<span style='color:red'>Fail,<span style='color:green'>Lift,<span style='color:red'>Fail,<span style='color:red'>Fail,<span style='color:green'>Lift","<span style='color:red'>Fail,<span style='color:red'>Fail,<span style='color:green'>Lift,<span style='color:green'>Lift,<span style='color:green'>Lift,<span style='color:green'>Lift,<span style='color:green'>Lift,<span style='color:red'>Fail,<span style='color:green'>Lift,<span style='color:green'>Lift,<span style='color:red'>Fail,<span style='color:green'>Lift","<span style='color:red'>Fail,<span style='color:green'>Lift,<span style='color:green'>Lift,<span style='color:red'>Fail,<span style='color:green'>Lift,<span style='color:green'>Lift","0,0,1,1,0,0,0,0,1,0,0,1","0,0,1,1,1,1,1,0,1,1,0,1","0,1,1,0,1,1",10,20,20,"","","","","{""box1"":""16"",""box2"":""31""}","",NA,1,"round2_ready",2,1,2,NA,NA,NA,NA,NA,NA,NA,NA,NA,NA,NA,NA,NA,NA,16,31,16,31,NA,NA,NA,NA,NA,NA,NA,NA,NA,NA,NA,NA,NA,NA,NA,NA,NA,NA,"",NA,NA,NA,NA,NA,NA,NA,NA,2025-11-20 22:57:32
"10512","https://psyc-201.github.io/xiang2023/exp/index1.html?PROLIFIC_PID=REDACTED&STUDY_ID=691f8ca61c6b4dcbb0aeb5f4&SESSION_ID=691f91c2ff1e15d3aa95bc5e","survey-html-form",12,1275996,"0.0-310.0","PLd/LQeQMo9Zyjn/MFRgtmI5RflAiivrThZw7h1Hu8366OK0u/WYSzAUUOZk+NJBTM8Zlx8jgPUoZQMscSuWMEZgbRGbopo2g+8hPsgD4Dt7MyRbCcVi1rbN0NGgkWVuktdzzFlxdHBfELoL5izovjm5D5wdaq3myY0lZwaT66DpvXff6cCUb1lLOIPr6Ky+St8GO9Q4xC80IYVMCpmoo/EmPg7doyK3/rg0nbg6/Ee7VNDPK5ErCI+dxEWv/vUM89iPo7v8GvHjK/oNN2rDE4I6m70K3MIy1vFQZDSeOZfLG/ra5Mnv/fjlSaxLuR+ovZxqh19M83lFUCYR0asYOg==","691f8ca61c6b4dcbb0aeb5f4","691f91c2ff1e15d3aa95bc5e","index1","<span style='color:red'>Fail,<span style='color:red'>Fail,<span style='color:green'>Lift,<span style='color:green'>Lift,<span style='color:red'>Fail,<span style='color:red'>Fail,<span style='color:red'>Fail,<span style='color:red'>Fail,<span style='color:green'>Lift,<span style='color:red'>Fail,<span style='color:red'>Fail,<span style='color:green'>Lift","<span style='color:red'>Fail,<span style='color:red'>Fail,<span style='color:green'>Lift,<span style='color:green'>Lift,<span style='color:green'>Lift,<span style='color:green'>Lift,<span style='color:green'>Lift,<span style='color:red'>Fail,<span style='color:green'>Lift,<span style='color:green'>Lift,<span style='color:red'>Fail,<span style='color:green'>Lift","<span style='color:red'>Fail,<span style='color:green'>Lift,<span style='color:green'>Lift,<span style='color:red'>Fail,<span style='color:green'>Lift,<span style='color:green'>Lift","0,0,1,1,0,0,0,0,1,0,0,1","0,0,1,1,1,1,1,0,1,1,0,1","0,1,1,0,1,1",10,20,20,"","","","","{""box1"":""2"",""box2"":""2""}","",NA,1,"round2_outcome",3,1,2,2,2,NA,NA,0,0,20,NA,NA,NA,NA,NA,NA,NA,NA,NA,NA,NA,2,2,NA,NA,0,0,20,NA,NA,NA,NA,NA,NA,NA,NA,NA,NA,NA,"",NA,NA,NA,NA,NA,NA,NA,NA,2025-11-20 22:57:32
"3080","https://psyc-201.github.io/xiang2023/exp/index1.html?PROLIFIC_PID=REDACTED&STUDY_ID=691f8ca61c6b4dcbb0aeb5f4&SESSION_ID=691f91c2ff1e15d3aa95bc5e","survey-html-form",13,1279077,"0.0-311.0","PLd/LQeQMo9Zyjn/MFRgtmI5RflAiivrThZw7h1Hu8366OK0u/WYSzAUUOZk+NJBTM8Zlx8jgPUoZQMscSuWMEZgbRGbopo2g+8hPsgD4Dt7MyRbCcVi1rbN0NGgkWVuktdzzFlxdHBfELoL5izovjm5D5wdaq3myY0lZwaT66DpvXff6cCUb1lLOIPr6Ky+St8GO9Q4xC80IYVMCpmoo/EmPg7doyK3/rg0nbg6/Ee7VNDPK5ErCI+dxEWv/vUM89iPo7v8GvHjK/oNN2rDE4I6m70K3MIy1vFQZDSeOZfLG/ra5Mnv/fjlSaxLuR+ovZxqh19M83lFUCYR0asYOg==","691f8ca61c6b4dcbb0aeb5f4","691f91c2ff1e15d3aa95bc5e","index1","<span style='color:red'>Fail,<span style='color:red'>Fail,<span style='color:green'>Lift,<span style='color:green'>Lift,<span style='color:red'>Fail,<span style='color:red'>Fail,<span style='color:red'>Fail,<span style='color:red'>Fail,<span style='color:green'>Lift,<span style='color:red'>Fail,<span style='color:red'>Fail,<span style='color:green'>Lift","<span style='color:red'>Fail,<span style='color:red'>Fail,<span style='color:green'>Lift,<span style='color:green'>Lift,<span style='color:green'>Lift,<span style='color:green'>Lift,<span style='color:green'>Lift,<span style='color:red'>Fail,<span style='color:green'>Lift,<span style='color:green'>Lift,<span style='color:red'>Fail,<span style='color:green'>Lift","<span style='color:red'>Fail,<span style='color:green'>Lift,<span style='color:green'>Lift,<span style='color:red'>Fail,<span style='color:green'>Lift,<span style='color:green'>Lift","0,0,1,1,0,0,0,0,1,0,0,1","0,0,1,1,1,1,1,0,1,1,0,1","0,1,1,0,1,1",10,20,20,"","","","","{""box1"":""8""}","",NA,1,"round3_ready",4,1,3,NA,NA,NA,NA,NA,NA,NA,NA,NA,NA,NA,NA,NA,NA,8,8,NA,NA,NA,NA,NA,NA,NA,NA,NA,8,8,NA,NA,NA,NA,NA,NA,NA,NA,NA,"",NA,NA,NA,NA,NA,NA,NA,NA,2025-11-20 22:57:32
"11213","https://psyc-201.github.io/xiang2023/exp/index1.html?PROLIFIC_PID=REDACTED&STUDY_ID=691f8ca61c6b4dcbb0aeb5f4&SESSION_ID=691f91c2ff1e15d3aa95bc5e","survey-html-form",14,1290292,"0.0-313.0-0.0","PLd/LQeQMo9Zyjn/MFRgtmI5RflAiivrThZw7h1Hu8366OK0u/WYSzAUUOZk+NJBTM8Zlx8jgPUoZQMscSuWMEZgbRGbopo2g+8hPsgD4Dt7MyRbCcVi1rbN0NGgkWVuktdzzFlxdHBfELoL5izovjm5D5wdaq3myY0lZwaT66DpvXff6cCUb1lLOIPr6Ky+St8GO9Q4xC80IYVMCpmoo/EmPg7doyK3/rg0nbg6/Ee7VNDPK5ErCI+dxEWv/vUM89iPo7v8GvHjK/oNN2rDE4I6m70K3MIy1vFQZDSeOZfLG/ra5Mnv/fjlSaxLuR+ovZxqh19M83lFUCYR0asYOg==","691f8ca61c6b4dcbb0aeb5f4","691f91c2ff1e15d3aa95bc5e","index1","<span style='color:red'>Fail,<span style='color:red'>Fail,<span style='color:green'>Lift,<span style='color:green'>Lift,<span style='color:red'>Fail,<span style='color:red'>Fail,<span style='color:red'>Fail,<span style='color:red'>Fail,<span style='color:green'>Lift,<span style='color:red'>Fail,<span style='color:red'>Fail,<span style='color:green'>Lift","<span style='color:red'>Fail,<span style='color:red'>Fail,<span style='color:green'>Lift,<span style='color:green'>Lift,<span style='color:green'>Lift,<span style='color:green'>Lift,<span style='color:green'>Lift,<span style='color:red'>Fail,<span style='color:green'>Lift,<span style='color:green'>Lift,<span style='color:red'>Fail,<span style='color:green'>Lift","<span style='color:red'>Fail,<span style='color:green'>Lift,<span style='color:green'>Lift,<span style='color:red'>Fail,<span style='color:green'>Lift,<span style='color:green'>Lift","0,0,1,1,0,0,0,0,1,0,0,1","0,0,1,1,1,1,1,0,1,1,0,1","0,1,1,0,1,1",10,20,20,"","","","","{""box1"":""2"",""box2"":""2"",""box3"":""999"",""box4"":""999""}","",NA,2,"round3_fail",5,1,3,2,2,NA,NA,0,0,20,NA,NA,NA,NA,NA,NA,NA,NA,NA,NA,NA,NA,NA,NA,NA,NA,NA,NA,NA,NA,1,1,2,2,0,0,20,NA,NA,"",NA,NA,NA,NA,NA,NA,NA,NA,2025-11-20 22:57:32
"null","https://psyc-201.github.io/xiang2023/exp/index1.html?PROLIFIC_PID=REDACTED&STUDY_ID=691f8ca61c6b4dcbb0aeb5f4&SESSION_ID=691f91c2ff1e15d3aa95bc5e","html-keyboard-response",15,1293306,"0.0-316.0","PLd/LQeQMo9Zyjn/MFRgtmI5RflAiivrThZw7h1Hu8366OK0u/WYSzAUUOZk+NJBTM8Zlx8jgPUoZQMscSuWMEZgbRGbopo2g+8hPsgD4Dt7MyRbCcVi1rbN0NGgkWVuktdzzFlxdHBfELoL5izovjm5D5wdaq3myY0lZwaT66DpvXff6cCUb1lLOIPr6Ky+St8GO9Q4xC80IYVMCpmoo/EmPg7doyK3/rg0nbg6/Ee7VNDPK5ErCI+dxEWv/vUM89iPo7v8GvHjK/oNN2rDE4I6m70K3MIy1vFQZDSeOZfLG/ra5Mnv/fjlSaxLuR+ovZxqh19M83lFUCYR0asYOg==","691f8ca61c6b4dcbb0aeb5f4","691f91c2ff1e15d3aa95bc5e","index1","<span style='color:red'>Fail,<span style='color:red'>Fail,<span style='color:green'>Lift,<span style='color:green'>Lift,<span style='color:red'>Fail,<span style='color:red'>Fail,<span style='color:red'>Fail,<span style='color:red'>Fail,<span style='color:green'>Lift,<span style='color:red'>Fail,<span style='color:red'>Fail,<span style='color:green'>Lift","<span style='color:red'>Fail,<span style='color:red'>Fail,<span style='color:green'>Lift,<span style='color:green'>Lift,<span style='color:green'>Lift,<span style='color:green'>Lift,<span style='color:green'>Lift,<span style='color:red'>Fail,<span style='color:green'>Lift,<span style='color:green'>Lift,<span style='color:red'>Fail,<span style='color:green'>Lift","<span style='color:red'>Fail,<span style='color:green'>Lift,<span style='color:green'>Lift,<span style='color:red'>Fail,<span style='color:green'>Lift,<span style='color:green'>Lift","0,0,1,1,0,0,0,0,1,0,0,1","0,0,1,1,1,1,1,0,1,1,0,1","0,1,1,0,1,1",10,20,20,"","","<p style='font-size:30px'><b> New Contest! </b></p>","null","","",NA,2,"",NA,NA,NA,NA,NA,NA,NA,NA,NA,NA,NA,NA,NA,NA,NA,NA,NA,NA,NA,NA,NA,NA,NA,NA,NA,NA,NA,NA,NA,NA,NA,NA,NA,NA,NA,NA,NA,NA,NA,"",NA,NA,NA,NA,NA,NA,NA,NA,2025-11-20 22:57:32
"7237","https://psyc-201.github.io/xiang2023/exp/index1.html?PROLIFIC_PID=REDACTED&STUDY_ID=691f8ca61c6b4dcbb0aeb5f4&SESSION_ID=691f91c2ff1e15d3aa95bc5e","survey-html-form",16,1300546,"0.0-317.0","PLd/LQeQMo9Zyjn/MFRgtmI5RflAiivrThZw7h1Hu8366OK0u/WYSzAUUOZk+NJBTM8Zlx8jgPUoZQMscSuWMEZgbRGbopo2g+8hPsgD4Dt7MyRbCcVi1rbN0NGgkWVuktdzzFlxdHBfELoL5izovjm5D5wdaq3myY0lZwaT66DpvXff6cCUb1lLOIPr6Ky+St8GO9Q4xC80IYVMCpmoo/EmPg7doyK3/rg0nbg6/Ee7VNDPK5ErCI+dxEWv/vUM89iPo7v8GvHjK/oNN2rDE4I6m70K3MIy1vFQZDSeOZfLG/ra5Mnv/fjlSaxLuR+ovZxqh19M83lFUCYR0asYOg==","691f8ca61c6b4dcbb0aeb5f4","691f91c2ff1e15d3aa95bc5e","index1","<span style='color:red'>Fail,<span style='color:red'>Fail,<span style='color:green'>Lift,<span style='color:green'>Lift,<span style='color:red'>Fail,<span style='color:red'>Fail,<span style='color:red'>Fail,<span style='color:red'>Fail,<span style='color:green'>Lift,<span style='color:red'>Fail,<span style='color:red'>Fail,<span style='color:green'>Lift","<span style='color:red'>Fail,<span style='color:red'>Fail,<span style='color:green'>Lift,<span style='color:green'>Lift,<span style='color:green'>Lift,<span style='color:green'>Lift,<span style='color:green'>Lift,<span style='color:red'>Fail,<span style='color:green'>Lift,<span style='color:green'>Lift,<span style='color:red'>Fail,<span style='color:green'>Lift","<span style='color:red'>Fail,<span style='color:green'>Lift,<span style='color:green'>Lift,<span style='color:red'>Fail,<span style='color:green'>Lift,<span style='color:green'>Lift","0,0,1,1,0,0,0,0,1,0,0,1","0,0,1,1,1,1,1,0,1,1,0,1","0,1,1,0,1,1",10,20,20,"","","","","{""box1"":""2"",""box2"":""2""}","",NA,2,"round1_outcome",1,2,1,2,2,NA,NA,0,0,10,2,2,NA,NA,0,0,10,NA,NA,NA,NA,NA,NA,NA,NA,NA,NA,NA,NA,NA,NA,NA,NA,NA,NA,NA,NA,NA,NA,"",NA,NA,NA,NA,NA,NA,NA,NA,2025-11-20 22:57:32
"7109","https://psyc-201.github.io/xiang2023/exp/index1.html?PROLIFIC_PID=REDACTED&STUDY_ID=691f8ca61c6b4dcbb0aeb5f4&SESSION_ID=691f91c2ff1e15d3aa95bc5e","survey-html-form",17,1307655,"0.0-318.0","PLd/LQeQMo9Zyjn/MFRgtmI5RflAiivrThZw7h1Hu8366OK0u/WYSzAUUOZk+NJBTM8Zlx8jgPUoZQMscSuWMEZgbRGbopo2g+8hPsgD4Dt7MyRbCcVi1rbN0NGgkWVuktdzzFlxdHBfELoL5izovjm5D5wdaq3myY0lZwaT66DpvXff6cCUb1lLOIPr6Ky+St8GO9Q4xC80IYVMCpmoo/EmPg7doyK3/rg0nbg6/Ee7VNDPK5ErCI+dxEWv/vUM89iPo7v8GvHjK/oNN2rDE4I6m70K3MIy1vFQZDSeOZfLG/ra5Mnv/fjlSaxLuR+ovZxqh19M83lFUCYR0asYOg==","691f8ca61c6b4dcbb0aeb5f4","691f91c2ff1e15d3aa95bc5e","index1","<span style='color:red'>Fail,<span style='color:red'>Fail,<span style='color:green'>Lift,<span style='color:green'>Lift,<span style='color:red'>Fail,<span style='color:red'>Fail,<span style='color:red'>Fail,<span style='color:red'>Fail,<span style='color:green'>Lift,<span style='color:red'>Fail,<span style='color:red'>Fail,<span style='color:green'>Lift","<span style='color:red'>Fail,<span style='color:red'>Fail,<span style='color:green'>Lift,<span style='color:green'>Lift,<span style='color:green'>Lift,<span style='color:green'>Lift,<span style='color:green'>Lift,<span style='color:red'>Fail,<span style='color:green'>Lift,<span style='color:green'>Lift,<span style='color:red'>Fail,<span style='color:green'>Lift","<span style='color:red'>Fail,<span style='color:green'>Lift,<span style='color:green'>Lift,<span style='color:red'>Fail,<span style='color:green'>Lift,<span style='color:green'>Lift","0,0,1,1,0,0,0,0,1,0,0,1","0,0,1,1,1,1,1,0,1,1,0,1","0,1,1,0,1,1",10,20,20,"","","","","{""box1"":""17"",""box2"":""21""}","",NA,2,"round2_ready",2,2,2,NA,NA,NA,NA,NA,NA,NA,NA,NA,NA,NA,NA,NA,NA,17,21,17,21,NA,NA,NA,NA,NA,NA,NA,NA,NA,NA,NA,NA,NA,NA,NA,NA,NA,NA,"",NA,NA,NA,NA,NA,NA,NA,NA,2025-11-20 22:57:32
"23246","https://psyc-201.github.io/xiang2023/exp/index1.html?PROLIFIC_PID=REDACTED&STUDY_ID=691f8ca61c6b4dcbb0aeb5f4&SESSION_ID=691f91c2ff1e15d3aa95bc5e","survey-html-form",18,1330903,"0.0-319.0","PLd/LQeQMo9Zyjn/MFRgtmI5RflAiivrThZw7h1Hu8366OK0u/WYSzAUUOZk+NJBTM8Zlx8jgPUoZQMscSuWMEZgbRGbopo2g+8hPsgD4Dt7MyRbCcVi1rbN0NGgkWVuktdzzFlxdHBfELoL5izovjm5D5wdaq3myY0lZwaT66DpvXff6cCUb1lLOIPr6Ky+St8GO9Q4xC80IYVMCpmoo/EmPg7doyK3/rg0nbg6/Ee7VNDPK5ErCI+dxEWv/vUM89iPo7v8GvHjK/oNN2rDE4I6m70K3MIy1vFQZDSeOZfLG/ra5Mnv/fjlSaxLuR+ovZxqh19M83lFUCYR0asYOg==","691f8ca61c6b4dcbb0aeb5f4","691f91c2ff1e15d3aa95bc5e","index1","<span style='color:red'>Fail,<span style='color:red'>Fail,<span style='color:green'>Lift,<span style='color:green'>Lift,<span style='color:red'>Fail,<span style='color:red'>Fail,<span style='color:red'>Fail,<span style='color:red'>Fail,<span style='color:green'>Lift,<span style='color:red'>Fail,<span style='color:red'>Fail,<span style='color:green'>Lift","<span style='color:red'>Fail,<span style='color:red'>Fail,<span style='color:green'>Lift,<span style='color:green'>Lift,<span style='color:green'>Lift,<span style='color:green'>Lift,<span style='color:green'>Lift,<span style='color:red'>Fail,<span style='color:green'>Lift,<span style='color:green'>Lift,<span style='color:red'>Fail,<span style='color:green'>Lift","<span style='color:red'>Fail,<span style='color:green'>Lift,<span style='color:green'>Lift,<span style='color:red'>Fail,<span style='color:green'>Lift,<span style='color:green'>Lift","0,0,1,1,0,0,0,0,1,0,0,1","0,0,1,1,1,1,1,0,1,1,0,1","0,1,1,0,1,1",10,20,20,"","","","","{""box1"":""7"",""box2"":""5"",""box3"":""74"",""box4"":""59""}","",NA,2,"round2_outcome",3,2,2,7,5,74,59,1,1,20,NA,NA,NA,NA,NA,NA,NA,NA,NA,NA,NA,7,5,74,59,1,1,20,NA,NA,NA,NA,NA,NA,NA,NA,NA,NA,NA,"",NA,NA,NA,NA,NA,NA,NA,NA,2025-11-20 22:57:32
"5912","https://psyc-201.github.io/xiang2023/exp/index1.html?PROLIFIC_PID=REDACTED&STUDY_ID=691f8ca61c6b4dcbb0aeb5f4&SESSION_ID=691f91c2ff1e15d3aa95bc5e","survey-html-form",19,1336817,"0.0-320.0","PLd/LQeQMo9Zyjn/MFRgtmI5RflAiivrThZw7h1Hu8366OK0u/WYSzAUUOZk+NJBTM8Zlx8jgPUoZQMscSuWMEZgbRGbopo2g+8hPsgD4Dt7MyRbCcVi1rbN0NGgkWVuktdzzFlxdHBfELoL5izovjm5D5wdaq3myY0lZwaT66DpvXff6cCUb1lLOIPr6Ky+St8GO9Q4xC80IYVMCpmoo/EmPg7doyK3/rg0nbg6/Ee7VNDPK5ErCI+dxEWv/vUM89iPo7v8GvHjK/oNN2rDE4I6m70K3MIy1vFQZDSeOZfLG/ra5Mnv/fjlSaxLuR+ovZxqh19M83lFUCYR0asYOg==","691f8ca61c6b4dcbb0aeb5f4","691f91c2ff1e15d3aa95bc5e","index1","<span style='color:red'>Fail,<span style='color:red'>Fail,<span style='color:green'>Lift,<span style='color:green'>Lift,<span style='color:red'>Fail,<span style='color:red'>Fail,<span style='color:red'>Fail,<span style='color:red'>Fail,<span style='color:green'>Lift,<span style='color:red'>Fail,<span style='color:red'>Fail,<span style='color:green'>Lift","<span style='color:red'>Fail,<span style='color:red'>Fail,<span style='color:green'>Lift,<span style='color:green'>Lift,<span style='color:green'>Lift,<span style='color:green'>Lift,<span style='color:green'>Lift,<span style='color:red'>Fail,<span style='color:green'>Lift,<span style='color:green'>Lift,<span style='color:red'>Fail,<span style='color:green'>Lift","<span style='color:red'>Fail,<span style='color:green'>Lift,<span style='color:green'>Lift,<span style='color:red'>Fail,<span style='color:green'>Lift,<span style='color:green'>Lift","0,0,1,1,0,0,0,0,1,0,0,1","0,0,1,1,1,1,1,0,1,1,0,1","0,1,1,0,1,1",10,20,20,"","","","","{""box1"":""78""}","",NA,2,"round3_ready",4,2,3,NA,NA,NA,NA,NA,NA,NA,NA,NA,NA,NA,NA,NA,NA,78,78,NA,NA,NA,NA,NA,NA,NA,NA,NA,78,78,NA,NA,NA,NA,NA,NA,NA,NA,NA,"",NA,NA,NA,NA,NA,NA,NA,NA,2025-11-20 22:57:32
"12027","https://psyc-201.github.io/xiang2023/exp/index1.html?PROLIFIC_PID=REDACTED&STUDY_ID=691f8ca61c6b4dcbb0aeb5f4&SESSION_ID=691f91c2ff1e15d3aa95bc5e","survey-html-form",20,1348845,"0.0-321.0-0.0","PLd/LQeQMo9Zyjn/MFRgtmI5RflAiivrThZw7h1Hu8366OK0u/WYSzAUUOZk+NJBTM8Zlx8jgPUoZQMscSuWMEZgbRGbopo2g+8hPsgD4Dt7MyRbCcVi1rbN0NGgkWVuktdzzFlxdHBfELoL5izovjm5D5wdaq3myY0lZwaT66DpvXff6cCUb1lLOIPr6Ky+St8GO9Q4xC80IYVMCpmoo/EmPg7doyK3/rg0nbg6/Ee7VNDPK5ErCI+dxEWv/vUM89iPo7v8GvHjK/oNN2rDE4I6m70K3MIy1vFQZDSeOZfLG/ra5Mnv/fjlSaxLuR+ovZxqh19M83lFUCYR0asYOg==","691f8ca61c6b4dcbb0aeb5f4","691f91c2ff1e15d3aa95bc5e","index1","<span style='color:red'>Fail,<span style='color:red'>Fail,<span style='color:green'>Lift,<span style='color:green'>Lift,<span style='color:red'>Fail,<span style='color:red'>Fail,<span style='color:red'>Fail,<span style='color:red'>Fail,<span style='color:green'>Lift,<span style='color:red'>Fail,<span style='color:red'>Fail,<span style='color:green'>Lift","<span style='color:red'>Fail,<span style='color:red'>Fail,<span style='color:green'>Lift,<span style='color:green'>Lift,<span style='color:green'>Lift,<span style='color:green'>Lift,<span style='color:green'>Lift,<span style='color:red'>Fail,<span style='color:green'>Lift,<span style='color:green'>Lift,<span style='color:red'>Fail,<span style='color:green'>Lift","<span style='color:red'>Fail,<span style='color:green'>Lift,<span style='color:green'>Lift,<span style='color:red'>Fail,<span style='color:green'>Lift,<span style='color:green'>Lift","0,0,1,1,0,0,0,0,1,0,0,1","0,0,1,1,1,1,1,0,1,1,0,1","0,1,1,0,1,1",10,20,20,"","","","","{""box1"":""7"",""box2"":""5"",""box3"":""4"",""box4"":""6""}","",NA,3,"round3_lift",5,2,3,7,5,4,6,1,1,20,NA,NA,NA,NA,NA,NA,NA,NA,NA,NA,NA,NA,NA,NA,NA,NA,NA,NA,NA,NA,NA,NA,7,5,1,1,20,4,6,"",NA,NA,NA,NA,NA,NA,NA,NA,2025-11-20 22:57:32
"null","https://psyc-201.github.io/xiang2023/exp/index1.html?PROLIFIC_PID=REDACTED&STUDY_ID=691f8ca61c6b4dcbb0aeb5f4&SESSION_ID=691f91c2ff1e15d3aa95bc5e","html-keyboard-response",21,1351855,"0.0-325.0","PLd/LQeQMo9Zyjn/MFRgtmI5RflAiivrThZw7h1Hu8366OK0u/WYSzAUUOZk+NJBTM8Zlx8jgPUoZQMscSuWMEZgbRGbopo2g+8hPsgD4Dt7MyRbCcVi1rbN0NGgkWVuktdzzFlxdHBfELoL5izovjm5D5wdaq3myY0lZwaT66DpvXff6cCUb1lLOIPr6Ky+St8GO9Q4xC80IYVMCpmoo/EmPg7doyK3/rg0nbg6/Ee7VNDPK5ErCI+dxEWv/vUM89iPo7v8GvHjK/oNN2rDE4I6m70K3MIy1vFQZDSeOZfLG/ra5Mnv/fjlSaxLuR+ovZxqh19M83lFUCYR0asYOg==","691f8ca61c6b4dcbb0aeb5f4","691f91c2ff1e15d3aa95bc5e","index1","<span style='color:red'>Fail,<span style='color:red'>Fail,<span style='color:green'>Lift,<span style='color:green'>Lift,<span style='color:red'>Fail,<span style='color:red'>Fail,<span style='color:red'>Fail,<span style='color:red'>Fail,<span style='color:green'>Lift,<span style='color:red'>Fail,<span style='color:red'>Fail,<span style='color:green'>Lift","<span style='color:red'>Fail,<span style='color:red'>Fail,<span style='color:green'>Lift,<span style='color:green'>Lift,<span style='color:green'>Lift,<span style='color:green'>Lift,<span style='color:green'>Lift,<span style='color:red'>Fail,<span style='color:green'>Lift,<span style='color:green'>Lift,<span style='color:red'>Fail,<span style='color:green'>Lift","<span style='color:red'>Fail,<span style='color:green'>Lift,<span style='color:green'>Lift,<span style='color:red'>Fail,<span style='color:green'>Lift,<span style='color:green'>Lift","0,0,1,1,0,0,0,0,1,0,0,1","0,0,1,1,1,1,1,0,1,1,0,1","0,1,1,0,1,1",10,20,20,"","","<p style='font-size:30px'><b> New Contest! </b></p>","null","","",NA,3,"",NA,NA,NA,NA,NA,NA,NA,NA,NA,NA,NA,NA,NA,NA,NA,NA,NA,NA,NA,NA,NA,NA,NA,NA,NA,NA,NA,NA,NA,NA,NA,NA,NA,NA,NA,NA,NA,NA,NA,"",NA,NA,NA,NA,NA,NA,NA,NA,2025-11-20 22:57:32
"93955","https://psyc-201.github.io/xiang2023/exp/index1.html?PROLIFIC_PID=REDACTED&STUDY_ID=691f8ca61c6b4dcbb0aeb5f4&SESSION_ID=691f91c2ff1e15d3aa95bc5e","survey-html-form",22,1445811,"0.0-326.0","PLd/LQeQMo9Zyjn/MFRgtmI5RflAiivrThZw7h1Hu8366OK0u/WYSzAUUOZk+NJBTM8Zlx8jgPUoZQMscSuWMEZgbRGbopo2g+8hPsgD4Dt7MyRbCcVi1rbN0NGgkWVuktdzzFlxdHBfELoL5izovjm5D5wdaq3myY0lZwaT66DpvXff6cCUb1lLOIPr6Ky+St8GO9Q4xC80IYVMCpmoo/EmPg7doyK3/rg0nbg6/Ee7VNDPK5ErCI+dxEWv/vUM89iPo7v8GvHjK/oNN2rDE4I6m70K3MIy1vFQZDSeOZfLG/ra5Mnv/fjlSaxLuR+ovZxqh19M83lFUCYR0asYOg==","691f8ca61c6b4dcbb0aeb5f4","691f91c2ff1e15d3aa95bc5e","index1","<span style='color:red'>Fail,<span style='color:red'>Fail,<span style='color:green'>Lift,<span style='color:green'>Lift,<span style='color:red'>Fail,<span style='color:red'>Fail,<span style='color:red'>Fail,<span style='color:red'>Fail,<span style='color:green'>Lift,<span style='color:red'>Fail,<span style='color:red'>Fail,<span style='color:green'>Lift","<span style='color:red'>Fail,<span style='color:red'>Fail,<span style='color:green'>Lift,<span style='color:green'>Lift,<span style='color:green'>Lift,<span style='color:green'>Lift,<span style='color:green'>Lift,<span style='color:red'>Fail,<span style='color:green'>Lift,<span style='color:green'>Lift,<span style='color:red'>Fail,<span style='color:green'>Lift","<span style='color:red'>Fail,<span style='color:green'>Lift,<span style='color:green'>Lift,<span style='color:red'>Fail,<span style='color:green'>Lift,<span style='color:green'>Lift","0,0,1,1,0,0,0,0,1,0,0,1","0,0,1,1,1,1,1,0,1,1,0,1","0,1,1,0,1,1",10,20,20,"","","","","{""box1"":""3"",""box2"":""4""}","",NA,3,"round1_outcome",1,3,1,3,4,NA,NA,0,0,10,3,4,NA,NA,0,0,10,NA,NA,NA,NA,NA,NA,NA,NA,NA,NA,NA,NA,NA,NA,NA,NA,NA,NA,NA,NA,NA,NA,"",NA,NA,NA,NA,NA,NA,NA,NA,2025-11-20 22:57:32
"6589","https://psyc-201.github.io/xiang2023/exp/index1.html?PROLIFIC_PID=REDACTED&STUDY_ID=691f8ca61c6b4dcbb0aeb5f4&SESSION_ID=691f91c2ff1e15d3aa95bc5e","survey-html-form",23,1452401,"0.0-327.0","PLd/LQeQMo9Zyjn/MFRgtmI5RflAiivrThZw7h1Hu8366OK0u/WYSzAUUOZk+NJBTM8Zlx8jgPUoZQMscSuWMEZgbRGbopo2g+8hPsgD4Dt7MyRbCcVi1rbN0NGgkWVuktdzzFlxdHBfELoL5izovjm5D5wdaq3myY0lZwaT66DpvXff6cCUb1lLOIPr6Ky+St8GO9Q4xC80IYVMCpmoo/EmPg7doyK3/rg0nbg6/Ee7VNDPK5ErCI+dxEWv/vUM89iPo7v8GvHjK/oNN2rDE4I6m70K3MIy1vFQZDSeOZfLG/ra5Mnv/fjlSaxLuR+ovZxqh19M83lFUCYR0asYOg==","691f8ca61c6b4dcbb0aeb5f4","691f91c2ff1e15d3aa95bc5e","index1","<span style='color:red'>Fail,<span style='color:red'>Fail,<span style='color:green'>Lift,<span style='color:green'>Lift,<span style='color:red'>Fail,<span style='color:red'>Fail,<span style='color:red'>Fail,<span style='color:red'>Fail,<span style='color:green'>Lift,<span style='color:red'>Fail,<span style='color:red'>Fail,<span style='color:green'>Lift","<span style='color:red'>Fail,<span style='color:red'>Fail,<span style='color:green'>Lift,<span style='color:green'>Lift,<span style='color:green'>Lift,<span style='color:green'>Lift,<span style='color:green'>Lift,<span style='color:red'>Fail,<span style='color:green'>Lift,<span style='color:green'>Lift,<span style='color:red'>Fail,<span style='color:green'>Lift","<span style='color:red'>Fail,<span style='color:green'>Lift,<span style='color:green'>Lift,<span style='color:red'>Fail,<span style='color:green'>Lift,<span style='color:green'>Lift","0,0,1,1,0,0,0,0,1,0,0,1","0,0,1,1,1,1,1,0,1,1,0,1","0,1,1,0,1,1",10,20,20,"","","","","{""box1"":""43"",""box2"":""36""}","",NA,3,"round2_ready",2,3,2,NA,NA,NA,NA,NA,NA,NA,NA,NA,NA,NA,NA,NA,NA,43,36,43,36,NA,NA,NA,NA,NA,NA,NA,NA,NA,NA,NA,NA,NA,NA,NA,NA,NA,NA,"",NA,NA,NA,NA,NA,NA,NA,NA,2025-11-20 22:57:32
"23565","https://psyc-201.github.io/xiang2023/exp/index1.html?PROLIFIC_PID=REDACTED&STUDY_ID=691f8ca61c6b4dcbb0aeb5f4&SESSION_ID=691f91c2ff1e15d3aa95bc5e","survey-html-form",24,1475967,"0.0-328.0","PLd/LQeQMo9Zyjn/MFRgtmI5RflAiivrThZw7h1Hu8366OK0u/WYSzAUUOZk+NJBTM8Zlx8jgPUoZQMscSuWMEZgbRGbopo2g+8hPsgD4Dt7MyRbCcVi1rbN0NGgkWVuktdzzFlxdHBfELoL5izovjm5D5wdaq3myY0lZwaT66DpvXff6cCUb1lLOIPr6Ky+St8GO9Q4xC80IYVMCpmoo/EmPg7doyK3/rg0nbg6/Ee7VNDPK5ErCI+dxEWv/vUM89iPo7v8GvHjK/oNN2rDE4I6m70K3MIy1vFQZDSeOZfLG/ra5Mnv/fjlSaxLuR+ovZxqh19M83lFUCYR0asYOg==","691f8ca61c6b4dcbb0aeb5f4","691f91c2ff1e15d3aa95bc5e","index1","<span style='color:red'>Fail,<span style='color:red'>Fail,<span style='color:green'>Lift,<span style='color:green'>Lift,<span style='color:red'>Fail,<span style='color:red'>Fail,<span style='color:red'>Fail,<span style='color:red'>Fail,<span style='color:green'>Lift,<span style='color:red'>Fail,<span style='color:red'>Fail,<span style='color:green'>Lift","<span style='color:red'>Fail,<span style='color:red'>Fail,<span style='color:green'>Lift,<span style='color:green'>Lift,<span style='color:green'>Lift,<span style='color:green'>Lift,<span style='color:green'>Lift,<span style='color:red'>Fail,<span style='color:green'>Lift,<span style='color:green'>Lift,<span style='color:red'>Fail,<span style='color:green'>Lift","<span style='color:red'>Fail,<span style='color:green'>Lift,<span style='color:green'>Lift,<span style='color:red'>Fail,<span style='color:green'>Lift,<span style='color:green'>Lift","0,0,1,1,0,0,0,0,1,0,0,1","0,0,1,1,1,1,1,0,1,1,0,1","0,1,1,0,1,1",10,20,20,"","","","","{""box1"":""6"",""box2"":""3"",""box3"":""45""}","",NA,3,"round2_outcome",3,3,2,6,3,45,NA,1,0,20,NA,NA,NA,NA,NA,NA,NA,NA,NA,NA,NA,6,3,45,NA,1,0,20,NA,NA,NA,NA,NA,NA,NA,NA,NA,NA,NA,"",NA,NA,NA,NA,NA,NA,NA,NA,2025-11-20 22:57:32
"3491","https://psyc-201.github.io/xiang2023/exp/index1.html?PROLIFIC_PID=REDACTED&STUDY_ID=691f8ca61c6b4dcbb0aeb5f4&SESSION_ID=691f91c2ff1e15d3aa95bc5e","survey-html-form",25,1479460,"0.0-329.0","PLd/LQeQMo9Zyjn/MFRgtmI5RflAiivrThZw7h1Hu8366OK0u/WYSzAUUOZk+NJBTM8Zlx8jgPUoZQMscSuWMEZgbRGbopo2g+8hPsgD4Dt7MyRbCcVi1rbN0NGgkWVuktdzzFlxdHBfELoL5izovjm5D5wdaq3myY0lZwaT66DpvXff6cCUb1lLOIPr6Ky+St8GO9Q4xC80IYVMCpmoo/EmPg7doyK3/rg0nbg6/Ee7VNDPK5ErCI+dxEWv/vUM89iPo7v8GvHjK/oNN2rDE4I6m70K3MIy1vFQZDSeOZfLG/ra5Mnv/fjlSaxLuR+ovZxqh19M83lFUCYR0asYOg==","691f8ca61c6b4dcbb0aeb5f4","691f91c2ff1e15d3aa95bc5e","index1","<span style='color:red'>Fail,<span style='color:red'>Fail,<span style='color:green'>Lift,<span style='color:green'>Lift,<span style='color:red'>Fail,<span style='color:red'>Fail,<span style='color:red'>Fail,<span style='color:red'>Fail,<span style='color:green'>Lift,<span style='color:red'>Fail,<span style='color:red'>Fail,<span style='color:green'>Lift","<span style='color:red'>Fail,<span style='color:red'>Fail,<span style='color:green'>Lift,<span style='color:green'>Lift,<span style='color:green'>Lift,<span style='color:green'>Lift,<span style='color:green'>Lift,<span style='color:red'>Fail,<span style='color:green'>Lift,<span style='color:green'>Lift,<span style='color:red'>Fail,<span style='color:green'>Lift","<span style='color:red'>Fail,<span style='color:green'>Lift,<span style='color:green'>Lift,<span style='color:red'>Fail,<span style='color:green'>Lift,<span style='color:green'>Lift","0,0,1,1,0,0,0,0,1,0,0,1","0,0,1,1,1,1,1,0,1,1,0,1","0,1,1,0,1,1",10,20,20,"","","","","{""box1"":""24""}","",NA,3,"round3_ready",4,3,3,NA,NA,NA,NA,NA,NA,NA,NA,NA,NA,NA,NA,NA,NA,24,24,NA,NA,NA,NA,NA,NA,NA,NA,NA,24,24,NA,NA,NA,NA,NA,NA,NA,NA,NA,"",NA,NA,NA,NA,NA,NA,NA,NA,2025-11-20 22:57:32
"11565","https://psyc-201.github.io/xiang2023/exp/index1.html?PROLIFIC_PID=REDACTED&STUDY_ID=691f8ca61c6b4dcbb0aeb5f4&SESSION_ID=691f91c2ff1e15d3aa95bc5e","survey-html-form",26,1491028,"0.0-331.0-0.0","PLd/LQeQMo9Zyjn/MFRgtmI5RflAiivrThZw7h1Hu8366OK0u/WYSzAUUOZk+NJBTM8Zlx8jgPUoZQMscSuWMEZgbRGbopo2g+8hPsgD4Dt7MyRbCcVi1rbN0NGgkWVuktdzzFlxdHBfELoL5izovjm5D5wdaq3myY0lZwaT66DpvXff6cCUb1lLOIPr6Ky+St8GO9Q4xC80IYVMCpmoo/EmPg7doyK3/rg0nbg6/Ee7VNDPK5ErCI+dxEWv/vUM89iPo7v8GvHjK/oNN2rDE4I6m70K3MIy1vFQZDSeOZfLG/ra5Mnv/fjlSaxLuR+ovZxqh19M83lFUCYR0asYOg==","691f8ca61c6b4dcbb0aeb5f4","691f91c2ff1e15d3aa95bc5e","index1","<span style='color:red'>Fail,<span style='color:red'>Fail,<span style='color:green'>Lift,<span style='color:green'>Lift,<span style='color:red'>Fail,<span style='color:red'>Fail,<span style='color:red'>Fail,<span style='color:red'>Fail,<span style='color:green'>Lift,<span style='color:red'>Fail,<span style='color:red'>Fail,<span style='color:green'>Lift","<span style='color:red'>Fail,<span style='color:red'>Fail,<span style='color:green'>Lift,<span style='color:green'>Lift,<span style='color:green'>Lift,<span style='color:green'>Lift,<span style='color:green'>Lift,<span style='color:red'>Fail,<span style='color:green'>Lift,<span style='color:green'>Lift,<span style='color:red'>Fail,<span style='color:green'>Lift","<span style='color:red'>Fail,<span style='color:green'>Lift,<span style='color:green'>Lift,<span style='color:red'>Fail,<span style='color:green'>Lift,<span style='color:green'>Lift","0,0,1,1,0,0,0,0,1,0,0,1","0,0,1,1,1,1,1,0,1,1,0,1","0,1,1,0,1,1",10,20,20,"","","","","{""box1"":""6"",""box2"":""3"",""box3"":""999"",""box4"":""999""}","",NA,4,"round3_fail",5,3,3,6,3,NA,NA,0,0,20,NA,NA,NA,NA,NA,NA,NA,NA,NA,NA,NA,NA,NA,NA,NA,NA,NA,NA,NA,NA,1,1,6,3,0,0,20,NA,NA,"",NA,NA,NA,NA,NA,NA,NA,NA,2025-11-20 22:57:32
"null","https://psyc-201.github.io/xiang2023/exp/index1.html?PROLIFIC_PID=REDACTED&STUDY_ID=691f8ca61c6b4dcbb0aeb5f4&SESSION_ID=691f91c2ff1e15d3aa95bc5e","html-keyboard-response",27,1494052,"0.0-334.0","PLd/LQeQMo9Zyjn/MFRgtmI5RflAiivrThZw7h1Hu8366OK0u/WYSzAUUOZk+NJBTM8Zlx8jgPUoZQMscSuWMEZgbRGbopo2g+8hPsgD4Dt7MyRbCcVi1rbN0NGgkWVuktdzzFlxdHBfELoL5izovjm5D5wdaq3myY0lZwaT66DpvXff6cCUb1lLOIPr6Ky+St8GO9Q4xC80IYVMCpmoo/EmPg7doyK3/rg0nbg6/Ee7VNDPK5ErCI+dxEWv/vUM89iPo7v8GvHjK/oNN2rDE4I6m70K3MIy1vFQZDSeOZfLG/ra5Mnv/fjlSaxLuR+ovZxqh19M83lFUCYR0asYOg==","691f8ca61c6b4dcbb0aeb5f4","691f91c2ff1e15d3aa95bc5e","index1","<span style='color:red'>Fail,<span style='color:red'>Fail,<span style='color:green'>Lift,<span style='color:green'>Lift,<span style='color:red'>Fail,<span style='color:red'>Fail,<span style='color:red'>Fail,<span style='color:red'>Fail,<span style='color:green'>Lift,<span style='color:red'>Fail,<span style='color:red'>Fail,<span style='color:green'>Lift","<span style='color:red'>Fail,<span style='color:red'>Fail,<span style='color:green'>Lift,<span style='color:green'>Lift,<span style='color:green'>Lift,<span style='color:green'>Lift,<span style='color:green'>Lift,<span style='color:red'>Fail,<span style='color:green'>Lift,<span style='color:green'>Lift,<span style='color:red'>Fail,<span style='color:green'>Lift","<span style='color:red'>Fail,<span style='color:green'>Lift,<span style='color:green'>Lift,<span style='color:red'>Fail,<span style='color:green'>Lift,<span style='color:green'>Lift","0,0,1,1,0,0,0,0,1,0,0,1","0,0,1,1,1,1,1,0,1,1,0,1","0,1,1,0,1,1",10,20,20,"","","<p style='font-size:30px'><b> New Contest! </b></p>","null","","",NA,4,"",NA,NA,NA,NA,NA,NA,NA,NA,NA,NA,NA,NA,NA,NA,NA,NA,NA,NA,NA,NA,NA,NA,NA,NA,NA,NA,NA,NA,NA,NA,NA,NA,NA,NA,NA,NA,NA,NA,NA,"",NA,NA,NA,NA,NA,NA,NA,NA,2025-11-20 22:57:32
"119924","https://psyc-201.github.io/xiang2023/exp/index1.html?PROLIFIC_PID=REDACTED&STUDY_ID=691f8ca61c6b4dcbb0aeb5f4&SESSION_ID=691f91c2ff1e15d3aa95bc5e","survey-html-form",28,1613977,"0.0-335.0","PLd/LQeQMo9Zyjn/MFRgtmI5RflAiivrThZw7h1Hu8366OK0u/WYSzAUUOZk+NJBTM8Zlx8jgPUoZQMscSuWMEZgbRGbopo2g+8hPsgD4Dt7MyRbCcVi1rbN0NGgkWVuktdzzFlxdHBfELoL5izovjm5D5wdaq3myY0lZwaT66DpvXff6cCUb1lLOIPr6Ky+St8GO9Q4xC80IYVMCpmoo/EmPg7doyK3/rg0nbg6/Ee7VNDPK5ErCI+dxEWv/vUM89iPo7v8GvHjK/oNN2rDE4I6m70K3MIy1vFQZDSeOZfLG/ra5Mnv/fjlSaxLuR+ovZxqh19M83lFUCYR0asYOg==","691f8ca61c6b4dcbb0aeb5f4","691f91c2ff1e15d3aa95bc5e","index1","<span style='color:red'>Fail,<span style='color:red'>Fail,<span style='color:green'>Lift,<span style='color:green'>Lift,<span style='color:red'>Fail,<span style='color:red'>Fail,<span style='color:red'>Fail,<span style='color:red'>Fail,<span style='color:green'>Lift,<span style='color:red'>Fail,<span style='color:red'>Fail,<span style='color:green'>Lift","<span style='color:red'>Fail,<span style='color:red'>Fail,<span style='color:green'>Lift,<span style='color:green'>Lift,<span style='color:green'>Lift,<span style='color:green'>Lift,<span style='color:green'>Lift,<span style='color:red'>Fail,<span style='color:green'>Lift,<span style='color:green'>Lift,<span style='color:red'>Fail,<span style='color:green'>Lift","<span style='color:red'>Fail,<span style='color:green'>Lift,<span style='color:green'>Lift,<span style='color:red'>Fail,<span style='color:green'>Lift,<span style='color:green'>Lift","0,0,1,1,0,0,0,0,1,0,0,1","0,0,1,1,1,1,1,0,1,1,0,1","0,1,1,0,1,1",10,20,20,"","","","","{""box1"":""8"",""box2"":""5"",""box3"":""80"",""box4"":""100""}","",NA,4,"round1_outcome",1,4,1,8,5,80,100,1,1,10,8,5,80,100,1,1,10,NA,NA,NA,NA,NA,NA,NA,NA,NA,NA,NA,NA,NA,NA,NA,NA,NA,NA,NA,NA,NA,NA,"",NA,NA,NA,NA,NA,NA,NA,NA,2025-11-20 22:57:32
"6811","https://psyc-201.github.io/xiang2023/exp/index1.html?PROLIFIC_PID=REDACTED&STUDY_ID=691f8ca61c6b4dcbb0aeb5f4&SESSION_ID=691f91c2ff1e15d3aa95bc5e","survey-html-form",29,1620790,"0.0-336.0","PLd/LQeQMo9Zyjn/MFRgtmI5RflAiivrThZw7h1Hu8366OK0u/WYSzAUUOZk+NJBTM8Zlx8jgPUoZQMscSuWMEZgbRGbopo2g+8hPsgD4Dt7MyRbCcVi1rbN0NGgkWVuktdzzFlxdHBfELoL5izovjm5D5wdaq3myY0lZwaT66DpvXff6cCUb1lLOIPr6Ky+St8GO9Q4xC80IYVMCpmoo/EmPg7doyK3/rg0nbg6/Ee7VNDPK5ErCI+dxEWv/vUM89iPo7v8GvHjK/oNN2rDE4I6m70K3MIy1vFQZDSeOZfLG/ra5Mnv/fjlSaxLuR+ovZxqh19M83lFUCYR0asYOg==","691f8ca61c6b4dcbb0aeb5f4","691f91c2ff1e15d3aa95bc5e","index1","<span style='color:red'>Fail,<span style='color:red'>Fail,<span style='color:green'>Lift,<span style='color:green'>Lift,<span style='color:red'>Fail,<span style='color:red'>Fail,<span style='color:red'>Fail,<span style='color:red'>Fail,<span style='color:green'>Lift,<span style='color:red'>Fail,<span style='color:red'>Fail,<span style='color:green'>Lift","<span style='color:red'>Fail,<span style='color:red'>Fail,<span style='color:green'>Lift,<span style='color:green'>Lift,<span style='color:green'>Lift,<span style='color:green'>Lift,<span style='color:green'>Lift,<span style='color:red'>Fail,<span style='color:green'>Lift,<span style='color:green'>Lift,<span style='color:red'>Fail,<span style='color:green'>Lift","<span style='color:red'>Fail,<span style='color:green'>Lift,<span style='color:green'>Lift,<span style='color:red'>Fail,<span style='color:green'>Lift,<span style='color:green'>Lift","0,0,1,1,0,0,0,0,1,0,0,1","0,0,1,1,1,1,1,0,1,1,0,1","0,1,1,0,1,1",10,20,20,"","","","","{""box1"":""87"",""box2"":""87""}","",NA,4,"round2_ready",2,4,2,NA,NA,NA,NA,NA,NA,NA,NA,NA,NA,NA,NA,NA,NA,87,87,87,87,NA,NA,NA,NA,NA,NA,NA,NA,NA,NA,NA,NA,NA,NA,NA,NA,NA,NA,"",NA,NA,NA,NA,NA,NA,NA,NA,2025-11-20 22:57:32
"27339","https://psyc-201.github.io/xiang2023/exp/index1.html?PROLIFIC_PID=REDACTED&STUDY_ID=691f8ca61c6b4dcbb0aeb5f4&SESSION_ID=691f91c2ff1e15d3aa95bc5e","survey-html-form",30,1648129,"0.0-337.0","PLd/LQeQMo9Zyjn/MFRgtmI5RflAiivrThZw7h1Hu8366OK0u/WYSzAUUOZk+NJBTM8Zlx8jgPUoZQMscSuWMEZgbRGbopo2g+8hPsgD4Dt7MyRbCcVi1rbN0NGgkWVuktdzzFlxdHBfELoL5izovjm5D5wdaq3myY0lZwaT66DpvXff6cCUb1lLOIPr6Ky+St8GO9Q4xC80IYVMCpmoo/EmPg7doyK3/rg0nbg6/Ee7VNDPK5ErCI+dxEWv/vUM89iPo7v8GvHjK/oNN2rDE4I6m70K3MIy1vFQZDSeOZfLG/ra5Mnv/fjlSaxLuR+ovZxqh19M83lFUCYR0asYOg==","691f8ca61c6b4dcbb0aeb5f4","691f91c2ff1e15d3aa95bc5e","index1","<span style='color:red'>Fail,<span style='color:red'>Fail,<span style='color:green'>Lift,<span style='color:green'>Lift,<span style='color:red'>Fail,<span style='color:red'>Fail,<span style='color:red'>Fail,<span style='color:red'>Fail,<span style='color:green'>Lift,<span style='color:red'>Fail,<span style='color:red'>Fail,<span style='color:green'>Lift","<span style='color:red'>Fail,<span style='color:red'>Fail,<span style='color:green'>Lift,<span style='color:green'>Lift,<span style='color:green'>Lift,<span style='color:green'>Lift,<span style='color:green'>Lift,<span style='color:red'>Fail,<span style='color:green'>Lift,<span style='color:green'>Lift,<span style='color:red'>Fail,<span style='color:green'>Lift","<span style='color:red'>Fail,<span style='color:green'>Lift,<span style='color:green'>Lift,<span style='color:red'>Fail,<span style='color:green'>Lift,<span style='color:green'>Lift","0,0,1,1,0,0,0,0,1,0,0,1","0,0,1,1,1,1,1,0,1,1,0,1","0,1,1,0,1,1",10,20,20,"","","","","{""box1"":""8"",""box2"":""6"",""box3"":""74"",""box4"":""85""}","",NA,4,"round2_outcome",3,4,2,8,6,74,85,1,1,20,NA,NA,NA,NA,NA,NA,NA,NA,NA,NA,NA,8,6,74,85,1,1,20,NA,NA,NA,NA,NA,NA,NA,NA,NA,NA,NA,"",NA,NA,NA,NA,NA,NA,NA,NA,2025-11-20 22:57:32
"2448","https://psyc-201.github.io/xiang2023/exp/index1.html?PROLIFIC_PID=REDACTED&STUDY_ID=691f8ca61c6b4dcbb0aeb5f4&SESSION_ID=691f91c2ff1e15d3aa95bc5e","survey-html-form",31,1650579,"0.0-338.0","PLd/LQeQMo9Zyjn/MFRgtmI5RflAiivrThZw7h1Hu8366OK0u/WYSzAUUOZk+NJBTM8Zlx8jgPUoZQMscSuWMEZgbRGbopo2g+8hPsgD4Dt7MyRbCcVi1rbN0NGgkWVuktdzzFlxdHBfELoL5izovjm5D5wdaq3myY0lZwaT66DpvXff6cCUb1lLOIPr6Ky+St8GO9Q4xC80IYVMCpmoo/EmPg7doyK3/rg0nbg6/Ee7VNDPK5ErCI+dxEWv/vUM89iPo7v8GvHjK/oNN2rDE4I6m70K3MIy1vFQZDSeOZfLG/ra5Mnv/fjlSaxLuR+ovZxqh19M83lFUCYR0asYOg==","691f8ca61c6b4dcbb0aeb5f4","691f91c2ff1e15d3aa95bc5e","index1","<span style='color:red'>Fail,<span style='color:red'>Fail,<span style='color:green'>Lift,<span style='color:green'>Lift,<span style='color:red'>Fail,<span style='color:red'>Fail,<span style='color:red'>Fail,<span style='color:red'>Fail,<span style='color:green'>Lift,<span style='color:red'>Fail,<span style='color:red'>Fail,<span style='color:green'>Lift","<span style='color:red'>Fail,<span style='color:red'>Fail,<span style='color:green'>Lift,<span style='color:green'>Lift,<span style='color:green'>Lift,<span style='color:green'>Lift,<span style='color:green'>Lift,<span style='color:red'>Fail,<span style='color:green'>Lift,<span style='color:green'>Lift,<span style='color:red'>Fail,<span style='color:green'>Lift","<span style='color:red'>Fail,<span style='color:green'>Lift,<span style='color:green'>Lift,<span style='color:red'>Fail,<span style='color:green'>Lift,<span style='color:green'>Lift","0,0,1,1,0,0,0,0,1,0,0,1","0,0,1,1,1,1,1,0,1,1,0,1","0,1,1,0,1,1",10,20,20,"","","","","{""box1"":""100""}","",NA,4,"round3_ready",4,4,3,NA,NA,NA,NA,NA,NA,NA,NA,NA,NA,NA,NA,NA,NA,100,100,NA,NA,NA,NA,NA,NA,NA,NA,NA,100,100,NA,NA,NA,NA,NA,NA,NA,NA,NA,"",NA,NA,NA,NA,NA,NA,NA,NA,2025-11-20 22:57:32
"25436","https://psyc-201.github.io/xiang2023/exp/index1.html?PROLIFIC_PID=REDACTED&STUDY_ID=691f8ca61c6b4dcbb0aeb5f4&SESSION_ID=691f91c2ff1e15d3aa95bc5e","survey-html-form",32,1676018,"0.0-339.0-0.0","PLd/LQeQMo9Zyjn/MFRgtmI5RflAiivrThZw7h1Hu8366OK0u/WYSzAUUOZk+NJBTM8Zlx8jgPUoZQMscSuWMEZgbRGbopo2g+8hPsgD4Dt7MyRbCcVi1rbN0NGgkWVuktdzzFlxdHBfELoL5izovjm5D5wdaq3myY0lZwaT66DpvXff6cCUb1lLOIPr6Ky+St8GO9Q4xC80IYVMCpmoo/EmPg7doyK3/rg0nbg6/Ee7VNDPK5ErCI+dxEWv/vUM89iPo7v8GvHjK/oNN2rDE4I6m70K3MIy1vFQZDSeOZfLG/ra5Mnv/fjlSaxLuR+ovZxqh19M83lFUCYR0asYOg==","691f8ca61c6b4dcbb0aeb5f4","691f91c2ff1e15d3aa95bc5e","index1","<span style='color:red'>Fail,<span style='color:red'>Fail,<span style='color:green'>Lift,<span style='color:green'>Lift,<span style='color:red'>Fail,<span style='color:red'>Fail,<span style='color:red'>Fail,<span style='color:red'>Fail,<span style='color:green'>Lift,<span style='color:red'>Fail,<span style='color:red'>Fail,<span style='color:green'>Lift","<span style='color:red'>Fail,<span style='color:red'>Fail,<span style='color:green'>Lift,<span style='color:green'>Lift,<span style='color:green'>Lift,<span style='color:green'>Lift,<span style='color:green'>Lift,<span style='color:red'>Fail,<span style='color:green'>Lift,<span style='color:green'>Lift,<span style='color:red'>Fail,<span style='color:green'>Lift","<span style='color:red'>Fail,<span style='color:green'>Lift,<span style='color:green'>Lift,<span style='color:red'>Fail,<span style='color:green'>Lift,<span style='color:green'>Lift","0,0,1,1,0,0,0,0,1,0,0,1","0,0,1,1,1,1,1,0,1,1,0,1","0,1,1,0,1,1",10,20,20,"","","","","{""box1"":""8"",""box2"":""8"",""box3"":""56"",""box4"":""67""}","",NA,5,"round3_lift",5,4,3,8,8,56,67,1,1,20,NA,NA,NA,NA,NA,NA,NA,NA,NA,NA,NA,NA,NA,NA,NA,NA,NA,NA,NA,NA,NA,NA,8,8,1,1,20,56,67,"",NA,NA,NA,NA,NA,NA,NA,NA,2025-11-20 22:57:32
"null","https://psyc-201.github.io/xiang2023/exp/index1.html?PROLIFIC_PID=REDACTED&STUDY_ID=691f8ca61c6b4dcbb0aeb5f4&SESSION_ID=691f91c2ff1e15d3aa95bc5e","html-keyboard-response",33,1679024,"0.0-343.0","PLd/LQeQMo9Zyjn/MFRgtmI5RflAiivrThZw7h1Hu8366OK0u/WYSzAUUOZk+NJBTM8Zlx8jgPUoZQMscSuWMEZgbRGbopo2g+8hPsgD4Dt7MyRbCcVi1rbN0NGgkWVuktdzzFlxdHBfELoL5izovjm5D5wdaq3myY0lZwaT66DpvXff6cCUb1lLOIPr6Ky+St8GO9Q4xC80IYVMCpmoo/EmPg7doyK3/rg0nbg6/Ee7VNDPK5ErCI+dxEWv/vUM89iPo7v8GvHjK/oNN2rDE4I6m70K3MIy1vFQZDSeOZfLG/ra5Mnv/fjlSaxLuR+ovZxqh19M83lFUCYR0asYOg==","691f8ca61c6b4dcbb0aeb5f4","691f91c2ff1e15d3aa95bc5e","index1","<span style='color:red'>Fail,<span style='color:red'>Fail,<span style='color:green'>Lift,<span style='color:green'>Lift,<span style='color:red'>Fail,<span style='color:red'>Fail,<span style='color:red'>Fail,<span style='color:red'>Fail,<span style='color:green'>Lift,<span style='color:red'>Fail,<span style='color:red'>Fail,<span style='color:green'>Lift","<span style='color:red'>Fail,<span style='color:red'>Fail,<span style='color:green'>Lift,<span style='color:green'>Lift,<span style='color:green'>Lift,<span style='color:green'>Lift,<span style='color:green'>Lift,<span style='color:red'>Fail,<span style='color:green'>Lift,<span style='color:green'>Lift,<span style='color:red'>Fail,<span style='color:green'>Lift","<span style='color:red'>Fail,<span style='color:green'>Lift,<span style='color:green'>Lift,<span style='color:red'>Fail,<span style='color:green'>Lift,<span style='color:green'>Lift","0,0,1,1,0,0,0,0,1,0,0,1","0,0,1,1,1,1,1,0,1,1,0,1","0,1,1,0,1,1",10,20,20,"","","<p style='font-size:30px'><b> New Contest! </b></p>","null","","",NA,5,"",NA,NA,NA,NA,NA,NA,NA,NA,NA,NA,NA,NA,NA,NA,NA,NA,NA,NA,NA,NA,NA,NA,NA,NA,NA,NA,NA,NA,NA,NA,NA,NA,NA,NA,NA,NA,NA,NA,NA,"",NA,NA,NA,NA,NA,NA,NA,NA,2025-11-20 22:57:32
"30862","https://psyc-201.github.io/xiang2023/exp/index1.html?PROLIFIC_PID=REDACTED&STUDY_ID=691f8ca61c6b4dcbb0aeb5f4&SESSION_ID=691f91c2ff1e15d3aa95bc5e","survey-html-form",34,1709887,"0.0-344.0","PLd/LQeQMo9Zyjn/MFRgtmI5RflAiivrThZw7h1Hu8366OK0u/WYSzAUUOZk+NJBTM8Zlx8jgPUoZQMscSuWMEZgbRGbopo2g+8hPsgD4Dt7MyRbCcVi1rbN0NGgkWVuktdzzFlxdHBfELoL5izovjm5D5wdaq3myY0lZwaT66DpvXff6cCUb1lLOIPr6Ky+St8GO9Q4xC80IYVMCpmoo/EmPg7doyK3/rg0nbg6/Ee7VNDPK5ErCI+dxEWv/vUM89iPo7v8GvHjK/oNN2rDE4I6m70K3MIy1vFQZDSeOZfLG/ra5Mnv/fjlSaxLuR+ovZxqh19M83lFUCYR0asYOg==","691f8ca61c6b4dcbb0aeb5f4","691f91c2ff1e15d3aa95bc5e","index1","<span style='color:red'>Fail,<span style='color:red'>Fail,<span style='color:green'>Lift,<span style='color:green'>Lift,<span style='color:red'>Fail,<span style='color:red'>Fail,<span style='color:red'>Fail,<span style='color:red'>Fail,<span style='color:green'>Lift,<span style='color:red'>Fail,<span style='color:red'>Fail,<span style='color:green'>Lift","<span style='color:red'>Fail,<span style='color:red'>Fail,<span style='color:green'>Lift,<span style='color:green'>Lift,<span style='color:green'>Lift,<span style='color:green'>Lift,<span style='color:green'>Lift,<span style='color:red'>Fail,<span style='color:green'>Lift,<span style='color:green'>Lift,<span style='color:red'>Fail,<span style='color:green'>Lift","<span style='color:red'>Fail,<span style='color:green'>Lift,<span style='color:green'>Lift,<span style='color:red'>Fail,<span style='color:green'>Lift,<span style='color:green'>Lift","0,0,1,1,0,0,0,0,1,0,0,1","0,0,1,1,1,1,1,0,1,1,0,1","0,1,1,0,1,1",10,20,20,"","","","","{""box1"":""4"",""box2"":""7"",""box4"":""70""}","",NA,5,"round1_outcome",1,5,1,4,7,NA,70,0,1,10,4,7,NA,70,0,1,10,NA,NA,NA,NA,NA,NA,NA,NA,NA,NA,NA,NA,NA,NA,NA,NA,NA,NA,NA,NA,NA,NA,"",NA,NA,NA,NA,NA,NA,NA,NA,2025-11-20 22:57:32
"20135","https://psyc-201.github.io/xiang2023/exp/index1.html?PROLIFIC_PID=REDACTED&STUDY_ID=691f8ca61c6b4dcbb0aeb5f4&SESSION_ID=691f91c2ff1e15d3aa95bc5e","survey-html-form",35,1730023,"0.0-345.0","PLd/LQeQMo9Zyjn/MFRgtmI5RflAiivrThZw7h1Hu8366OK0u/WYSzAUUOZk+NJBTM8Zlx8jgPUoZQMscSuWMEZgbRGbopo2g+8hPsgD4Dt7MyRbCcVi1rbN0NGgkWVuktdzzFlxdHBfELoL5izovjm5D5wdaq3myY0lZwaT66DpvXff6cCUb1lLOIPr6Ky+St8GO9Q4xC80IYVMCpmoo/EmPg7doyK3/rg0nbg6/Ee7VNDPK5ErCI+dxEWv/vUM89iPo7v8GvHjK/oNN2rDE4I6m70K3MIy1vFQZDSeOZfLG/ra5Mnv/fjlSaxLuR+ovZxqh19M83lFUCYR0asYOg==","691f8ca61c6b4dcbb0aeb5f4","691f91c2ff1e15d3aa95bc5e","index1","<span style='color:red'>Fail,<span style='color:red'>Fail,<span style='color:green'>Lift,<span style='color:green'>Lift,<span style='color:red'>Fail,<span style='color:red'>Fail,<span style='color:red'>Fail,<span style='color:red'>Fail,<span style='color:green'>Lift,<span style='color:red'>Fail,<span style='color:red'>Fail,<span style='color:green'>Lift","<span style='color:red'>Fail,<span style='color:red'>Fail,<span style='color:green'>Lift,<span style='color:green'>Lift,<span style='color:green'>Lift,<span style='color:green'>Lift,<span style='color:green'>Lift,<span style='color:red'>Fail,<span style='color:green'>Lift,<span style='color:green'>Lift,<span style='color:red'>Fail,<span style='color:green'>Lift","<span style='color:red'>Fail,<span style='color:green'>Lift,<span style='color:green'>Lift,<span style='color:red'>Fail,<span style='color:green'>Lift,<span style='color:green'>Lift","0,0,1,1,0,0,0,0,1,0,0,1","0,0,1,1,1,1,1,0,1,1,0,1","0,1,1,0,1,1",10,20,20,"","","","","{""box1"":""43"",""box2"":""86""}","",NA,5,"round2_ready",2,5,2,NA,NA,NA,NA,NA,NA,NA,NA,NA,NA,NA,NA,NA,NA,43,86,43,86,NA,NA,NA,NA,NA,NA,NA,NA,NA,NA,NA,NA,NA,NA,NA,NA,NA,NA,"",NA,NA,NA,NA,NA,NA,NA,NA,2025-11-20 22:57:32
"22393","https://psyc-201.github.io/xiang2023/exp/index1.html?PROLIFIC_PID=REDACTED&STUDY_ID=691f8ca61c6b4dcbb0aeb5f4&SESSION_ID=691f91c2ff1e15d3aa95bc5e","survey-html-form",36,1752418,"0.0-346.0","PLd/LQeQMo9Zyjn/MFRgtmI5RflAiivrThZw7h1Hu8366OK0u/WYSzAUUOZk+NJBTM8Zlx8jgPUoZQMscSuWMEZgbRGbopo2g+8hPsgD4Dt7MyRbCcVi1rbN0NGgkWVuktdzzFlxdHBfELoL5izovjm5D5wdaq3myY0lZwaT66DpvXff6cCUb1lLOIPr6Ky+St8GO9Q4xC80IYVMCpmoo/EmPg7doyK3/rg0nbg6/Ee7VNDPK5ErCI+dxEWv/vUM89iPo7v8GvHjK/oNN2rDE4I6m70K3MIy1vFQZDSeOZfLG/ra5Mnv/fjlSaxLuR+ovZxqh19M83lFUCYR0asYOg==","691f8ca61c6b4dcbb0aeb5f4","691f91c2ff1e15d3aa95bc5e","index1","<span style='color:red'>Fail,<span style='color:red'>Fail,<span style='color:green'>Lift,<span style='color:green'>Lift,<span style='color:red'>Fail,<span style='color:red'>Fail,<span style='color:red'>Fail,<span style='color:red'>Fail,<span style='color:green'>Lift,<span style='color:red'>Fail,<span style='color:red'>Fail,<span style='color:green'>Lift","<span style='color:red'>Fail,<span style='color:red'>Fail,<span style='color:green'>Lift,<span style='color:green'>Lift,<span style='color:green'>Lift,<span style='color:green'>Lift,<span style='color:green'>Lift,<span style='color:red'>Fail,<span style='color:green'>Lift,<span style='color:green'>Lift,<span style='color:red'>Fail,<span style='color:green'>Lift","<span style='color:red'>Fail,<span style='color:green'>Lift,<span style='color:green'>Lift,<span style='color:red'>Fail,<span style='color:green'>Lift,<span style='color:green'>Lift","0,0,1,1,0,0,0,0,1,0,0,1","0,0,1,1,1,1,1,0,1,1,0,1","0,1,1,0,1,1",10,20,20,"","","","","{""box1"":""4"",""box2"":""7"",""box4"":""69""}","",NA,5,"round2_outcome",3,5,2,4,7,NA,69,0,1,20,NA,NA,NA,NA,NA,NA,NA,NA,NA,NA,NA,4,7,NA,69,0,1,20,NA,NA,NA,NA,NA,NA,NA,NA,NA,NA,NA,"",NA,NA,NA,NA,NA,NA,NA,NA,2025-11-20 22:57:32
"5608","https://psyc-201.github.io/xiang2023/exp/index1.html?PROLIFIC_PID=REDACTED&STUDY_ID=691f8ca61c6b4dcbb0aeb5f4&SESSION_ID=691f91c2ff1e15d3aa95bc5e","survey-html-form",37,1758027,"0.0-347.0","PLd/LQeQMo9Zyjn/MFRgtmI5RflAiivrThZw7h1Hu8366OK0u/WYSzAUUOZk+NJBTM8Zlx8jgPUoZQMscSuWMEZgbRGbopo2g+8hPsgD4Dt7MyRbCcVi1rbN0NGgkWVuktdzzFlxdHBfELoL5izovjm5D5wdaq3myY0lZwaT66DpvXff6cCUb1lLOIPr6Ky+St8GO9Q4xC80IYVMCpmoo/EmPg7doyK3/rg0nbg6/Ee7VNDPK5ErCI+dxEWv/vUM89iPo7v8GvHjK/oNN2rDE4I6m70K3MIy1vFQZDSeOZfLG/ra5Mnv/fjlSaxLuR+ovZxqh19M83lFUCYR0asYOg==","691f8ca61c6b4dcbb0aeb5f4","691f91c2ff1e15d3aa95bc5e","index1","<span style='color:red'>Fail,<span style='color:red'>Fail,<span style='color:green'>Lift,<span style='color:green'>Lift,<span style='color:red'>Fail,<span style='color:red'>Fail,<span style='color:red'>Fail,<span style='color:red'>Fail,<span style='color:green'>Lift,<span style='color:red'>Fail,<span style='color:red'>Fail,<span style='color:green'>Lift","<span style='color:red'>Fail,<span style='color:red'>Fail,<span style='color:green'>Lift,<span style='color:green'>Lift,<span style='color:green'>Lift,<span style='color:green'>Lift,<span style='color:green'>Lift,<span style='color:red'>Fail,<span style='color:green'>Lift,<span style='color:green'>Lift,<span style='color:red'>Fail,<span style='color:green'>Lift","<span style='color:red'>Fail,<span style='color:green'>Lift,<span style='color:green'>Lift,<span style='color:red'>Fail,<span style='color:green'>Lift,<span style='color:green'>Lift","0,0,1,1,0,0,0,0,1,0,0,1","0,0,1,1,1,1,1,0,1,1,0,1","0,1,1,0,1,1",10,20,20,"","","","","{""box1"":""24""}","",NA,5,"round3_ready",4,5,3,NA,NA,NA,NA,NA,NA,NA,NA,NA,NA,NA,NA,NA,NA,24,24,NA,NA,NA,NA,NA,NA,NA,NA,NA,24,24,NA,NA,NA,NA,NA,NA,NA,NA,NA,"",NA,NA,NA,NA,NA,NA,NA,NA,2025-11-20 22:57:32
"348793","https://psyc-201.github.io/xiang2023/exp/index1.html?PROLIFIC_PID=REDACTED&STUDY_ID=691f8ca61c6b4dcbb0aeb5f4&SESSION_ID=691f91c2ff1e15d3aa95bc5e","survey-html-form",38,2106822,"0.0-348.0-0.0","PLd/LQeQMo9Zyjn/MFRgtmI5RflAiivrThZw7h1Hu8366OK0u/WYSzAUUOZk+NJBTM8Zlx8jgPUoZQMscSuWMEZgbRGbopo2g+8hPsgD4Dt7MyRbCcVi1rbN0NGgkWVuktdzzFlxdHBfELoL5izovjm5D5wdaq3myY0lZwaT66DpvXff6cCUb1lLOIPr6Ky+St8GO9Q4xC80IYVMCpmoo/EmPg7doyK3/rg0nbg6/Ee7VNDPK5ErCI+dxEWv/vUM89iPo7v8GvHjK/oNN2rDE4I6m70K3MIy1vFQZDSeOZfLG/ra5Mnv/fjlSaxLuR+ovZxqh19M83lFUCYR0asYOg==","691f8ca61c6b4dcbb0aeb5f4","691f91c2ff1e15d3aa95bc5e","index1","<span style='color:red'>Fail,<span style='color:red'>Fail,<span style='color:green'>Lift,<span style='color:green'>Lift,<span style='color:red'>Fail,<span style='color:red'>Fail,<span style='color:red'>Fail,<span style='color:red'>Fail,<span style='color:green'>Lift,<span style='color:red'>Fail,<span style='color:red'>Fail,<span style='color:green'>Lift","<span style='color:red'>Fail,<span style='color:red'>Fail,<span style='color:green'>Lift,<span style='color:green'>Lift,<span style='color:green'>Lift,<span style='color:green'>Lift,<span style='color:green'>Lift,<span style='color:red'>Fail,<span style='color:green'>Lift,<span style='color:green'>Lift,<span style='color:red'>Fail,<span style='color:green'>Lift","<span style='color:red'>Fail,<span style='color:green'>Lift,<span style='color:green'>Lift,<span style='color:red'>Fail,<span style='color:green'>Lift,<span style='color:green'>Lift","0,0,1,1,0,0,0,0,1,0,0,1","0,0,1,1,1,1,1,0,1,1,0,1","0,1,1,0,1,1",10,20,20,"","","","","{""box1"":""4"",""box2"":""8"",""box3"":""100"",""box4"":""54""}","",NA,6,"round3_lift",5,5,3,4,8,100,54,1,1,20,NA,NA,NA,NA,NA,NA,NA,NA,NA,NA,NA,NA,NA,NA,NA,NA,NA,NA,NA,NA,NA,NA,4,8,1,1,20,100,54,"",NA,NA,NA,NA,NA,NA,NA,NA,2025-11-20 22:57:32
"null","https://psyc-201.github.io/xiang2023/exp/index1.html?PROLIFIC_PID=REDACTED&STUDY_ID=691f8ca61c6b4dcbb0aeb5f4&SESSION_ID=691f91c2ff1e15d3aa95bc5e","html-keyboard-response",39,2109829,"0.0-352.0","PLd/LQeQMo9Zyjn/MFRgtmI5RflAiivrThZw7h1Hu8366OK0u/WYSzAUUOZk+NJBTM8Zlx8jgPUoZQMscSuWMEZgbRGbopo2g+8hPsgD4Dt7MyRbCcVi1rbN0NGgkWVuktdzzFlxdHBfELoL5izovjm5D5wdaq3myY0lZwaT66DpvXff6cCUb1lLOIPr6Ky+St8GO9Q4xC80IYVMCpmoo/EmPg7doyK3/rg0nbg6/Ee7VNDPK5ErCI+dxEWv/vUM89iPo7v8GvHjK/oNN2rDE4I6m70K3MIy1vFQZDSeOZfLG/ra5Mnv/fjlSaxLuR+ovZxqh19M83lFUCYR0asYOg==","691f8ca61c6b4dcbb0aeb5f4","691f91c2ff1e15d3aa95bc5e","index1","<span style='color:red'>Fail,<span style='color:red'>Fail,<span style='color:green'>Lift,<span style='color:green'>Lift,<span style='color:red'>Fail,<span style='color:red'>Fail,<span style='color:red'>Fail,<span style='color:red'>Fail,<span style='color:green'>Lift,<span style='color:red'>Fail,<span style='color:red'>Fail,<span style='color:green'>Lift","<span style='color:red'>Fail,<span style='color:red'>Fail,<span style='color:green'>Lift,<span style='color:green'>Lift,<span style='color:green'>Lift,<span style='color:green'>Lift,<span style='color:green'>Lift,<span style='color:red'>Fail,<span style='color:green'>Lift,<span style='color:green'>Lift,<span style='color:red'>Fail,<span style='color:green'>Lift","<span style='color:red'>Fail,<span style='color:green'>Lift,<span style='color:green'>Lift,<span style='color:red'>Fail,<span style='color:green'>Lift,<span style='color:green'>Lift","0,0,1,1,0,0,0,0,1,0,0,1","0,0,1,1,1,1,1,0,1,1,0,1","0,1,1,0,1,1",10,20,20,"","","<p style='font-size:30px'><b> New Contest! </b></p>","null","","",NA,6,"",NA,NA,NA,NA,NA,NA,NA,NA,NA,NA,NA,NA,NA,NA,NA,NA,NA,NA,NA,NA,NA,NA,NA,NA,NA,NA,NA,NA,NA,NA,NA,NA,NA,NA,NA,NA,NA,NA,NA,"",NA,NA,NA,NA,NA,NA,NA,NA,2025-11-20 22:57:32
"18465","https://psyc-201.github.io/xiang2023/exp/index1.html?PROLIFIC_PID=REDACTED&STUDY_ID=691f8ca61c6b4dcbb0aeb5f4&SESSION_ID=691f91c2ff1e15d3aa95bc5e","survey-html-form",40,2128295,"0.0-353.0","PLd/LQeQMo9Zyjn/MFRgtmI5RflAiivrThZw7h1Hu8366OK0u/WYSzAUUOZk+NJBTM8Zlx8jgPUoZQMscSuWMEZgbRGbopo2g+8hPsgD4Dt7MyRbCcVi1rbN0NGgkWVuktdzzFlxdHBfELoL5izovjm5D5wdaq3myY0lZwaT66DpvXff6cCUb1lLOIPr6Ky+St8GO9Q4xC80IYVMCpmoo/EmPg7doyK3/rg0nbg6/Ee7VNDPK5ErCI+dxEWv/vUM89iPo7v8GvHjK/oNN2rDE4I6m70K3MIy1vFQZDSeOZfLG/ra5Mnv/fjlSaxLuR+ovZxqh19M83lFUCYR0asYOg==","691f8ca61c6b4dcbb0aeb5f4","691f91c2ff1e15d3aa95bc5e","index1","<span style='color:red'>Fail,<span style='color:red'>Fail,<span style='color:green'>Lift,<span style='color:green'>Lift,<span style='color:red'>Fail,<span style='color:red'>Fail,<span style='color:red'>Fail,<span style='color:red'>Fail,<span style='color:green'>Lift,<span style='color:red'>Fail,<span style='color:red'>Fail,<span style='color:green'>Lift","<span style='color:red'>Fail,<span style='color:red'>Fail,<span style='color:green'>Lift,<span style='color:green'>Lift,<span style='color:green'>Lift,<span style='color:green'>Lift,<span style='color:green'>Lift,<span style='color:red'>Fail,<span style='color:green'>Lift,<span style='color:green'>Lift,<span style='color:red'>Fail,<span style='color:green'>Lift","<span style='color:red'>Fail,<span style='color:green'>Lift,<span style='color:green'>Lift,<span style='color:red'>Fail,<span style='color:green'>Lift,<span style='color:green'>Lift","0,0,1,1,0,0,0,0,1,0,0,1","0,0,1,1,1,1,1,0,1,1,0,1","0,1,1,0,1,1",10,20,20,"","","","","{""box1"":""5"",""box2"":""4"",""box3"":""67""}","",NA,6,"round1_outcome",1,6,1,5,4,67,NA,1,0,10,5,4,67,NA,1,0,10,NA,NA,NA,NA,NA,NA,NA,NA,NA,NA,NA,NA,NA,NA,NA,NA,NA,NA,NA,NA,NA,NA,"",NA,NA,NA,NA,NA,NA,NA,NA,2025-11-20 22:57:32
"12789","https://psyc-201.github.io/xiang2023/exp/index1.html?PROLIFIC_PID=REDACTED&STUDY_ID=691f8ca61c6b4dcbb0aeb5f4&SESSION_ID=691f91c2ff1e15d3aa95bc5e","survey-html-form",41,2141084,"0.0-354.0","PLd/LQeQMo9Zyjn/MFRgtmI5RflAiivrThZw7h1Hu8366OK0u/WYSzAUUOZk+NJBTM8Zlx8jgPUoZQMscSuWMEZgbRGbopo2g+8hPsgD4Dt7MyRbCcVi1rbN0NGgkWVuktdzzFlxdHBfELoL5izovjm5D5wdaq3myY0lZwaT66DpvXff6cCUb1lLOIPr6Ky+St8GO9Q4xC80IYVMCpmoo/EmPg7doyK3/rg0nbg6/Ee7VNDPK5ErCI+dxEWv/vUM89iPo7v8GvHjK/oNN2rDE4I6m70K3MIy1vFQZDSeOZfLG/ra5Mnv/fjlSaxLuR+ovZxqh19M83lFUCYR0asYOg==","691f8ca61c6b4dcbb0aeb5f4","691f91c2ff1e15d3aa95bc5e","index1","<span style='color:red'>Fail,<span style='color:red'>Fail,<span style='color:green'>Lift,<span style='color:green'>Lift,<span style='color:red'>Fail,<span style='color:red'>Fail,<span style='color:red'>Fail,<span style='color:red'>Fail,<span style='color:green'>Lift,<span style='color:red'>Fail,<span style='color:red'>Fail,<span style='color:green'>Lift","<span style='color:red'>Fail,<span style='color:red'>Fail,<span style='color:green'>Lift,<span style='color:green'>Lift,<span style='color:green'>Lift,<span style='color:green'>Lift,<span style='color:green'>Lift,<span style='color:red'>Fail,<span style='color:green'>Lift,<span style='color:green'>Lift,<span style='color:red'>Fail,<span style='color:green'>Lift","<span style='color:red'>Fail,<span style='color:green'>Lift,<span style='color:green'>Lift,<span style='color:red'>Fail,<span style='color:green'>Lift,<span style='color:green'>Lift","0,0,1,1,0,0,0,0,1,0,0,1","0,0,1,1,1,1,1,0,1,1,0,1","0,1,1,0,1,1",10,20,20,"","","","","{""box1"":""100"",""box2"":""56""}","",NA,6,"round2_ready",2,6,2,NA,NA,NA,NA,NA,NA,NA,NA,NA,NA,NA,NA,NA,NA,100,56,100,56,NA,NA,NA,NA,NA,NA,NA,NA,NA,NA,NA,NA,NA,NA,NA,NA,NA,NA,"",NA,NA,NA,NA,NA,NA,NA,NA,2025-11-20 22:57:32
"31045","https://psyc-201.github.io/xiang2023/exp/index1.html?PROLIFIC_PID=REDACTED&STUDY_ID=691f8ca61c6b4dcbb0aeb5f4&SESSION_ID=691f91c2ff1e15d3aa95bc5e","survey-html-form",42,2172131,"0.0-355.0","PLd/LQeQMo9Zyjn/MFRgtmI5RflAiivrThZw7h1Hu8366OK0u/WYSzAUUOZk+NJBTM8Zlx8jgPUoZQMscSuWMEZgbRGbopo2g+8hPsgD4Dt7MyRbCcVi1rbN0NGgkWVuktdzzFlxdHBfELoL5izovjm5D5wdaq3myY0lZwaT66DpvXff6cCUb1lLOIPr6Ky+St8GO9Q4xC80IYVMCpmoo/EmPg7doyK3/rg0nbg6/Ee7VNDPK5ErCI+dxEWv/vUM89iPo7v8GvHjK/oNN2rDE4I6m70K3MIy1vFQZDSeOZfLG/ra5Mnv/fjlSaxLuR+ovZxqh19M83lFUCYR0asYOg==","691f8ca61c6b4dcbb0aeb5f4","691f91c2ff1e15d3aa95bc5e","index1","<span style='color:red'>Fail,<span style='color:red'>Fail,<span style='color:green'>Lift,<span style='color:green'>Lift,<span style='color:red'>Fail,<span style='color:red'>Fail,<span style='color:red'>Fail,<span style='color:red'>Fail,<span style='color:green'>Lift,<span style='color:red'>Fail,<span style='color:red'>Fail,<span style='color:green'>Lift","<span style='color:red'>Fail,<span style='color:red'>Fail,<span style='color:green'>Lift,<span style='color:green'>Lift,<span style='color:green'>Lift,<span style='color:green'>Lift,<span style='color:green'>Lift,<span style='color:red'>Fail,<span style='color:green'>Lift,<span style='color:green'>Lift,<span style='color:red'>Fail,<span style='color:green'>Lift","<span style='color:red'>Fail,<span style='color:green'>Lift,<span style='color:green'>Lift,<span style='color:red'>Fail,<span style='color:green'>Lift,<span style='color:green'>Lift","0,0,1,1,0,0,0,0,1,0,0,1","0,0,1,1,1,1,1,0,1,1,0,1","0,1,1,0,1,1",10,20,20,"","","","","{""box1"":""8"",""box2"":""5"",""box3"":""65"",""box4"":""85""}","",NA,6,"round2_outcome",3,6,2,8,5,65,85,1,1,20,NA,NA,NA,NA,NA,NA,NA,NA,NA,NA,NA,8,5,65,85,1,1,20,NA,NA,NA,NA,NA,NA,NA,NA,NA,NA,NA,"",NA,NA,NA,NA,NA,NA,NA,NA,2025-11-20 22:57:32
"1744","https://psyc-201.github.io/xiang2023/exp/index1.html?PROLIFIC_PID=REDACTED&STUDY_ID=691f8ca61c6b4dcbb0aeb5f4&SESSION_ID=691f91c2ff1e15d3aa95bc5e","survey-html-form",43,2173878,"0.0-356.0","PLd/LQeQMo9Zyjn/MFRgtmI5RflAiivrThZw7h1Hu8366OK0u/WYSzAUUOZk+NJBTM8Zlx8jgPUoZQMscSuWMEZgbRGbopo2g+8hPsgD4Dt7MyRbCcVi1rbN0NGgkWVuktdzzFlxdHBfELoL5izovjm5D5wdaq3myY0lZwaT66DpvXff6cCUb1lLOIPr6Ky+St8GO9Q4xC80IYVMCpmoo/EmPg7doyK3/rg0nbg6/Ee7VNDPK5ErCI+dxEWv/vUM89iPo7v8GvHjK/oNN2rDE4I6m70K3MIy1vFQZDSeOZfLG/ra5Mnv/fjlSaxLuR+ovZxqh19M83lFUCYR0asYOg==","691f8ca61c6b4dcbb0aeb5f4","691f91c2ff1e15d3aa95bc5e","index1","<span style='color:red'>Fail,<span style='color:red'>Fail,<span style='color:green'>Lift,<span style='color:green'>Lift,<span style='color:red'>Fail,<span style='color:red'>Fail,<span style='color:red'>Fail,<span style='color:red'>Fail,<span style='color:green'>Lift,<span style='color:red'>Fail,<span style='color:red'>Fail,<span style='color:green'>Lift","<span style='color:red'>Fail,<span style='color:red'>Fail,<span style='color:green'>Lift,<span style='color:green'>Lift,<span style='color:green'>Lift,<span style='color:green'>Lift,<span style='color:green'>Lift,<span style='color:red'>Fail,<span style='color:green'>Lift,<span style='color:green'>Lift,<span style='color:red'>Fail,<span style='color:green'>Lift","<span style='color:red'>Fail,<span style='color:green'>Lift,<span style='color:green'>Lift,<span style='color:red'>Fail,<span style='color:green'>Lift,<span style='color:green'>Lift","0,0,1,1,0,0,0,0,1,0,0,1","0,0,1,1,1,1,1,0,1,1,0,1","0,1,1,0,1,1",10,20,20,"","","","","{""box1"":""100""}","",NA,6,"round3_ready",4,6,3,NA,NA,NA,NA,NA,NA,NA,NA,NA,NA,NA,NA,NA,NA,100,100,NA,NA,NA,NA,NA,NA,NA,NA,NA,100,100,NA,NA,NA,NA,NA,NA,NA,NA,NA,"",NA,NA,NA,NA,NA,NA,NA,NA,2025-11-20 22:57:32
"12897","https://psyc-201.github.io/xiang2023/exp/index1.html?PROLIFIC_PID=REDACTED&STUDY_ID=691f8ca61c6b4dcbb0aeb5f4&SESSION_ID=691f91c2ff1e15d3aa95bc5e","survey-html-form",44,2186777,"0.0-357.0-0.0","PLd/LQeQMo9Zyjn/MFRgtmI5RflAiivrThZw7h1Hu8366OK0u/WYSzAUUOZk+NJBTM8Zlx8jgPUoZQMscSuWMEZgbRGbopo2g+8hPsgD4Dt7MyRbCcVi1rbN0NGgkWVuktdzzFlxdHBfELoL5izovjm5D5wdaq3myY0lZwaT66DpvXff6cCUb1lLOIPr6Ky+St8GO9Q4xC80IYVMCpmoo/EmPg7doyK3/rg0nbg6/Ee7VNDPK5ErCI+dxEWv/vUM89iPo7v8GvHjK/oNN2rDE4I6m70K3MIy1vFQZDSeOZfLG/ra5Mnv/fjlSaxLuR+ovZxqh19M83lFUCYR0asYOg==","691f8ca61c6b4dcbb0aeb5f4","691f91c2ff1e15d3aa95bc5e","index1","<span style='color:red'>Fail,<span style='color:red'>Fail,<span style='color:green'>Lift,<span style='color:green'>Lift,<span style='color:red'>Fail,<span style='color:red'>Fail,<span style='color:red'>Fail,<span style='color:red'>Fail,<span style='color:green'>Lift,<span style='color:red'>Fail,<span style='color:red'>Fail,<span style='color:green'>Lift","<span style='color:red'>Fail,<span style='color:red'>Fail,<span style='color:green'>Lift,<span style='color:green'>Lift,<span style='color:green'>Lift,<span style='color:green'>Lift,<span style='color:green'>Lift,<span style='color:red'>Fail,<span style='color:green'>Lift,<span style='color:green'>Lift,<span style='color:red'>Fail,<span style='color:green'>Lift","<span style='color:red'>Fail,<span style='color:green'>Lift,<span style='color:green'>Lift,<span style='color:red'>Fail,<span style='color:green'>Lift,<span style='color:green'>Lift","0,0,1,1,0,0,0,0,1,0,0,1","0,0,1,1,1,1,1,0,1,1,0,1","0,1,1,0,1,1",10,20,20,"","","","","{""box1"":""8"",""box2"":""6"",""box3"":""67"",""box4"":""65""}","",NA,6,"round3_lift",5,6,3,8,6,67,65,1,1,20,NA,NA,NA,NA,NA,NA,NA,NA,NA,NA,NA,NA,NA,NA,NA,NA,NA,NA,NA,NA,NA,NA,8,6,1,1,20,67,65,"",NA,NA,NA,NA,NA,NA,NA,NA,2025-11-20 22:57:32
"52415","https://psyc-201.github.io/xiang2023/exp/index1.html?PROLIFIC_PID=REDACTED&STUDY_ID=691f8ca61c6b4dcbb0aeb5f4&SESSION_ID=691f91c2ff1e15d3aa95bc5e","survey-text",45,2239199,"0.0-361.0","PLd/LQeQMo9Zyjn/MFRgtmI5RflAiivrThZw7h1Hu8366OK0u/WYSzAUUOZk+NJBTM8Zlx8jgPUoZQMscSuWMEZgbRGbopo2g+8hPsgD4Dt7MyRbCcVi1rbN0NGgkWVuktdzzFlxdHBfELoL5izovjm5D5wdaq3myY0lZwaT66DpvXff6cCUb1lLOIPr6Ky+St8GO9Q4xC80IYVMCpmoo/EmPg7doyK3/rg0nbg6/Ee7VNDPK5ErCI+dxEWv/vUM89iPo7v8GvHjK/oNN2rDE4I6m70K3MIy1vFQZDSeOZfLG/ra5Mnv/fjlSaxLuR+ovZxqh19M83lFUCYR0asYOg==","691f8ca61c6b4dcbb0aeb5f4","691f91c2ff1e15d3aa95bc5e","index1","<span style='color:red'>Fail,<span style='color:red'>Fail,<span style='color:green'>Lift,<span style='color:green'>Lift,<span style='color:red'>Fail,<span style='color:red'>Fail,<span style='color:red'>Fail,<span style='color:red'>Fail,<span style='color:green'>Lift,<span style='color:red'>Fail,<span style='color:red'>Fail,<span style='color:green'>Lift","<span style='color:red'>Fail,<span style='color:red'>Fail,<span style='color:green'>Lift,<span style='color:green'>Lift,<span style='color:green'>Lift,<span style='color:green'>Lift,<span style='color:green'>Lift,<span style='color:red'>Fail,<span style='color:green'>Lift,<span style='color:green'>Lift,<span style='color:red'>Fail,<span style='color:green'>Lift","<span style='color:red'>Fail,<span style='color:green'>Lift,<span style='color:green'>Lift,<span style='color:red'>Fail,<span style='color:green'>Lift,<span style='color:green'>Lift","0,0,1,1,0,0,0,0,1,0,0,1","0,0,1,1,1,1,1,0,1,1,0,1","0,1,1,0,1,1",10,20,20,"","","","","{""Q0"":""I have been trying to determine the possibility of someone lifting a box for award.""}","",NA,NA,"",NA,NA,NA,NA,NA,NA,NA,NA,NA,NA,NA,NA,NA,NA,NA,NA,NA,NA,NA,NA,NA,NA,NA,NA,NA,NA,NA,NA,NA,NA,NA,NA,NA,NA,NA,NA,NA,NA,NA,"",NA,NA,NA,NA,NA,NA,NA,NA,2025-11-20 22:57:32
"4768","https://psyc-201.github.io/xiang2023/exp/index1.html?PROLIFIC_PID=REDACTED&STUDY_ID=691f8ca61c6b4dcbb0aeb5f4&SESSION_ID=691f91c2ff1e15d3aa95bc5e","survey-text",46,2243969,"0.0-362.0","PLd/LQeQMo9Zyjn/MFRgtmI5RflAiivrThZw7h1Hu8366OK0u/WYSzAUUOZk+NJBTM8Zlx8jgPUoZQMscSuWMEZgbRGbopo2g+8hPsgD4Dt7MyRbCcVi1rbN0NGgkWVuktdzzFlxdHBfELoL5izovjm5D5wdaq3myY0lZwaT66DpvXff6cCUb1lLOIPr6Ky+St8GO9Q4xC80IYVMCpmoo/EmPg7doyK3/rg0nbg6/Ee7VNDPK5ErCI+dxEWv/vUM89iPo7v8GvHjK/oNN2rDE4I6m70K3MIy1vFQZDSeOZfLG/ra5Mnv/fjlSaxLuR+ovZxqh19M83lFUCYR0asYOg==","691f8ca61c6b4dcbb0aeb5f4","691f91c2ff1e15d3aa95bc5e","index1","<span style='color:red'>Fail,<span style='color:red'>Fail,<span style='color:green'>Lift,<span style='color:green'>Lift,<span style='color:red'>Fail,<span style='color:red'>Fail,<span style='color:red'>Fail,<span style='color:red'>Fail,<span style='color:green'>Lift,<span style='color:red'>Fail,<span style='color:red'>Fail,<span style='color:green'>Lift","<span style='color:red'>Fail,<span style='color:red'>Fail,<span style='color:green'>Lift,<span style='color:green'>Lift,<span style='color:green'>Lift,<span style='color:green'>Lift,<span style='color:green'>Lift,<span style='color:red'>Fail,<span style='color:green'>Lift,<span style='color:green'>Lift,<span style='color:red'>Fail,<span style='color:green'>Lift","<span style='color:red'>Fail,<span style='color:green'>Lift,<span style='color:green'>Lift,<span style='color:red'>Fail,<span style='color:green'>Lift,<span style='color:green'>Lift","0,0,1,1,0,0,0,0,1,0,0,1","0,0,1,1,1,1,1,0,1,1,0,1","0,1,1,0,1,1",10,20,20,"","","","","{""Q0"":""""}","",NA,NA,"",NA,NA,NA,NA,NA,NA,NA,NA,NA,NA,NA,NA,NA,NA,NA,NA,NA,NA,NA,NA,NA,NA,NA,NA,NA,NA,NA,NA,NA,NA,NA,NA,NA,NA,NA,NA,NA,NA,NA,"[{""event"":""fullscreenenter"",""trial"":1,""time"":6881},{""event"":""blur"",""trial"":2,""time"":41156},{""event"":""focus"",""trial"":2,""time"":528267},{""event"":""blur"",""trial"":2,""time"":530950},{""event"":""focus"",""trial"":2,""time"":534608},{""event"":""fullscreenexit"",""trial"":2,""time"":537554},{""event"":""blur"",""trial"":2,""time"":538750},{""event"":""focus"",""trial"":2,""time"":562918},{""event"":""blur"",""trial"":2,""time"":566999},{""event"":""focus"",""trial"":2,""time"":569479},{""event"":""blur"",""trial"":2,""time"":569959},{""event"":""focus"",""trial"":2,""time"":626096},{""event"":""blur"",""trial"":2,""time"":626525},{""event"":""focus"",""trial"":2,""time"":638778},{""event"":""blur"",""trial"":2,""time"":640135},{""event"":""focus"",""trial"":2,""time"":640228},{""event"":""blur"",""trial"":2,""time"":643459},{""event"":""focus"",""trial"":2,""time"":645150},{""event"":""blur"",""trial"":2,""time"":647836},{""event"":""focus"",""trial"":2,""time"":650225},{""event"":""blur"",""trial"":2,""time"":656362},{""event"":""focus"",""trial"":2,""time"":657990},{""event"":""blur"",""trial"":2,""time"":661901},{""event"":""focus"",""trial"":2,""time"":663144},{""event"":""blur"",""trial"":4,""time"":668430},{""event"":""focus"",""trial"":4,""time"":678149},{""event"":""blur"",""trial"":6,""time"":775492},{""event"":""focus"",""trial"":6,""time"":791331},{""event"":""blur"",""trial"":6,""time"":834061},{""event"":""focus"",""trial"":6,""time"":881199},{""event"":""blur"",""trial"":6,""time"":888180},{""event"":""focus"",""trial"":6,""time"":891688},{""event"":""blur"",""trial"":6,""time"":896955},{""event"":""focus"",""trial"":6,""time"":912482},{""event"":""blur"",""trial"":9,""time"":927893},{""event"":""focus"",""trial"":10,""time"":939774},{""event"":""blur"",""trial"":10,""time"":943620},{""event"":""focus"",""trial"":10,""time"":1238219},{""event"":""blur"",""trial"":10,""time"":1238897},{""event"":""focus"",""trial"":10,""time"":1241382},{""event"":""blur"",""trial"":15,""time"":1291084},{""event"":""focus"",""trial"":16,""time"":1296802},{""event"":""blur"",""trial"":21,""time"":1350466},{""event"":""focus"",""trial"":22,""time"":1442223},{""event"":""blur"",""trial"":27,""time"":1492169},{""event"":""focus"",""trial"":28,""time"":1530858},{""event"":""blur"",""trial"":28,""time"":1547901},{""event"":""focus"",""trial"":28,""time"":1551854},{""event"":""blur"",""trial"":28,""time"":1551858},{""event"":""focus"",""trial"":28,""time"":1555420},{""event"":""blur"",""trial"":28,""time"":1555858},{""event"":""focus"",""trial"":28,""time"":1578843},{""event"":""blur"",""trial"":28,""time"":1588681},{""event"":""focus"",""trial"":28,""time"":1602835},{""event"":""blur"",""trial"":32,""time"":1657105},{""event"":""focus"",""trial"":32,""time"":1665081},{""event"":""blur"",""trial"":35,""time"":1712055},{""event"":""focus"",""trial"":35,""time"":1718676},{""event"":""blur"",""trial"":36,""time"":1737467},{""event"":""focus"",""trial"":36,""time"":1739854},{""event"":""blur"",""trial"":38,""time"":1772059},{""event"":""focus"",""trial"":38,""time"":1777758},{""event"":""blur"",""trial"":38,""time"":1779647},{""event"":""focus"",""trial"":38,""time"":1787756},{""event"":""blur"",""trial"":38,""time"":1789210},{""event"":""focus"",""trial"":38,""time"":1805539},{""event"":""blur"",""trial"":38,""time"":1805966},{""event"":""focus"",""trial"":38,""time"":2091339},{""event"":""blur"",""trial"":38,""time"":2103361},{""event"":""focus"",""trial"":38,""time"":2106091},{""event"":""blur"",""trial"":39,""time"":2107734},{""event"":""focus"",""trial"":40,""time"":2116027},{""event"":""blur"",""trial"":45,""time"":2205094},{""event"":""focus"",""trial"":45,""time"":2218546},{""event"":""blur"",""trial"":45,""time"":2219713},{""event"":""focus"",""trial"":45,""time"":2225792}]",4,2,0,87,1,0.87,NA,NA,2025-11-20 22:57:32
"4795","https://psyc-201.github.io/xiang2023/exp/index1.html?PROLIFIC_PID=REDACTED&STUDY_ID=691f8ca61c6b4dcbb0aeb5f4&SESSION_ID=691f91c2ff1e15d3aa95bc5e","html-button-response",47,2248767,"0.0-363.0","PLd/LQeQMo9Zyjn/MFRgtmI5RflAiivrThZw7h1Hu8366OK0u/WYSzAUUOZk+NJBTM8Zlx8jgPUoZQMscSuWMEZgbRGbopo2g+8hPsgD4Dt7MyRbCcVi1rbN0NGgkWVuktdzzFlxdHBfELoL5izovjm5D5wdaq3myY0lZwaT66DpvXff6cCUb1lLOIPr6Ky+St8GO9Q4xC80IYVMCpmoo/EmPg7doyK3/rg0nbg6/Ee7VNDPK5ErCI+dxEWv/vUM89iPo7v8GvHjK/oNN2rDE4I6m70K3MIy1vFQZDSeOZfLG/ra5Mnv/fjlSaxLuR+ovZxqh19M83lFUCYR0asYOg==","691f8ca61c6b4dcbb0aeb5f4","691f91c2ff1e15d3aa95bc5e","index1","<span style='color:red'>Fail,<span style='color:red'>Fail,<span style='color:green'>Lift,<span style='color:green'>Lift,<span style='color:red'>Fail,<span style='color:red'>Fail,<span style='color:red'>Fail,<span style='color:red'>Fail,<span style='color:green'>Lift,<span style='color:red'>Fail,<span style='color:red'>Fail,<span style='color:green'>Lift","<span style='color:red'>Fail,<span style='color:red'>Fail,<span style='color:green'>Lift,<span style='color:green'>Lift,<span style='color:green'>Lift,<span style='color:green'>Lift,<span style='color:green'>Lift,<span style='color:red'>Fail,<span style='color:green'>Lift,<span style='color:green'>Lift,<span style='color:red'>Fail,<span style='color:green'>Lift","<span style='color:red'>Fail,<span style='color:green'>Lift,<span style='color:green'>Lift,<span style='color:red'>Fail,<span style='color:green'>Lift,<span style='color:green'>Lift","0,0,1,1,0,0,0,0,1,0,0,1","0,0,1,1,1,1,1,0,1,1,0,1","0,1,1,0,1,1",10,20,20,"","","<p> We randomly picked <b>Contest 4, Round 2</b> to calculate your bonus. </p><p> The outcome of Contestant G on that round is <span style='color:green'>Lift</span>. </p><p> The probability you entered was 87. </p><p><b> You won a bonus of $0.87!</b></p><p> IMPORTANT: Please click 'Next' to complete the game.</p>","","","",0,NA,"",NA,NA,NA,NA,NA,NA,NA,NA,NA,NA,NA,NA,NA,NA,NA,NA,NA,NA,NA,NA,NA,NA,NA,NA,NA,NA,NA,NA,NA,NA,NA,NA,NA,NA,NA,NA,NA,NA,NA,"",NA,NA,NA,NA,NA,NA,2,1,2025-11-20 22:57:32
