"rt","url","trial_type","trial_index","time_elapsed","internal_node_id","encryptedProlificId","studyId","sessionId","expIndex","round1_outcomes","round2_outcomes","round3_outcomes","round1_o","round2_o","round3_o","round1_reward","round2_reward","round3_reward","success","view_history","stimulus","key_press","responses","question_order","j","Stage","stage","contest","round","strength_a","strength_b","effort_a","effort_b","outcome_a","outcome_b","reward","r1_strength_a","r1_strength_b","r1_effort_a","r1_effort_b","r1_outcome_a","r1_outcome_b","r1_reward","probability_a","probability_b","r2_prob_a","r2_prob_b","r2_strength_a","r2_strength_b","r2_effort_a","r2_effort_b","r2_outcome_a","r2_outcome_b","r2_reward","r3_prob_a","r3_prob_b","attention_check","count","r3_strength_a","r3_strength_b","r3_outcome_a","r3_outcome_b","r3_reward","r3_effort_a","r3_effort_b","screen","pick_contest","pick_round","pick_side","trial_probability","trial_outcome","bonus","button_pressed","attention_sum","attention","datapipe_meta.attributes.date_modified"
"12063.5","https://psyc-201.github.io/xiang2023/exp/index1.html?PROLIFIC_PID=REDACTED&STUDY_ID=691f8ca61c6b4dcbb0aeb5f4&SESSION_ID=691fbef77b922f3d581e7cd5","external-html",0,12108,"0.0-0.0","dFWNX7ZA0Fyyp55RFdWa8sWD2XhxatexJXmB+bPKc42sdmVe8mMW47Xiwgzeim4uxZ7FWY1A/KySF9MUQrQFb05GNfCdkDFSWwlyE7YL39okdO5SjLe+CyfA5l5nw7DtoyKSHeL7XvqUETyXhBgKromyCeGDAr05PLTm8AqpJIeuEIi3hfilkCOXdQaWN/nP3ig2NrtldzTRZNNrKkgcWQmPpzSfVIltfsvmNVYqvq1yaFhg/NWojyvY3V3eLaHfABOXUVfdnYlnfsxORtf9cd0QHEqaOdFvqT7MmrDjEodangDEs2fsq2g6qeuX3NMIfZIUGT62wjBFiuI4XlM6ZA==","691f8ca61c6b4dcbb0aeb5f4","691fbef77b922f3d581e7cd5","index1","<span style='color:red'>Fail,<span style='color:red'>Fail,<span style='color:green'>Lift,<span style='color:green'>Lift,<span style='color:red'>Fail,<span style='color:red'>Fail,<span style='color:red'>Fail,<span style='color:red'>Fail,<span style='color:red'>Fail,<span style='color:green'>Lift,<span style='color:green'>Lift,<span style='color:red'>Fail","<span style='color:red'>Fail,<span style='color:red'>Fail,<span style='color:green'>Lift,<span style='color:green'>Lift,<span style='color:green'>Lift,<span style='color:green'>Lift,<span style='color:green'>Lift,<span style='color:red'>Fail,<span style='color:green'>Lift,<span style='color:green'>Lift,<span style='color:green'>Lift,<span style='color:red'>Fail","<span style='color:red'>Fail,<span style='color:green'>Lift,<span style='color:green'>Lift,<span style='color:red'>Fail,<span style='color:green'>Lift,<span style='color:green'>Lift","0,0,1,1,0,0,0,0,0,1,1,0","0,0,1,1,1,1,1,0,1,1,1,0","0,1,1,0,1,1",10,20,20,"","","","","","",NA,"",NA,NA,NA,NA,NA,NA,NA,NA,NA,NA,NA,NA,NA,NA,NA,NA,NA,NA,NA,NA,NA,NA,NA,NA,NA,NA,NA,NA,NA,NA,NA,NA,NA,NA,NA,NA,NA,NA,NA,"",NA,NA,NA,NA,NA,NA,NA,NA,NA,2025-11-21 01:46:02
"","https://psyc-201.github.io/xiang2023/exp/index1.html?PROLIFIC_PID=REDACTED&STUDY_ID=691f8ca61c6b4dcbb0aeb5f4&SESSION_ID=691fbef77b922f3d581e7cd5","fullscreen",1,15158,"0.0-1.0","dFWNX7ZA0Fyyp55RFdWa8sWD2XhxatexJXmB+bPKc42sdmVe8mMW47Xiwgzeim4uxZ7FWY1A/KySF9MUQrQFb05GNfCdkDFSWwlyE7YL39okdO5SjLe+CyfA5l5nw7DtoyKSHeL7XvqUETyXhBgKromyCeGDAr05PLTm8AqpJIeuEIi3hfilkCOXdQaWN/nP3ig2NrtldzTRZNNrKkgcWQmPpzSfVIltfsvmNVYqvq1yaFhg/NWojyvY3V3eLaHfABOXUVfdnYlnfsxORtf9cd0QHEqaOdFvqT7MmrDjEodangDEs2fsq2g6qeuX3NMIfZIUGT62wjBFiuI4XlM6ZA==","691f8ca61c6b4dcbb0aeb5f4","691fbef77b922f3d581e7cd5","index1","<span style='color:red'>Fail,<span style='color:red'>Fail,<span style='color:green'>Lift,<span style='color:green'>Lift,<span style='color:red'>Fail,<span style='color:red'>Fail,<span style='color:red'>Fail,<span style='color:red'>Fail,<span style='color:red'>Fail,<span style='color:green'>Lift,<span style='color:green'>Lift,<span style='color:red'>Fail","<span style='color:red'>Fail,<span style='color:red'>Fail,<span style='color:green'>Lift,<span style='color:green'>Lift,<span style='color:green'>Lift,<span style='color:green'>Lift,<span style='color:green'>Lift,<span style='color:red'>Fail,<span style='color:green'>Lift,<span style='color:green'>Lift,<span style='color:green'>Lift,<span style='color:red'>Fail","<span style='color:red'>Fail,<span style='color:green'>Lift,<span style='color:green'>Lift,<span style='color:red'>Fail,<span style='color:green'>Lift,<span style='color:green'>Lift","0,0,1,1,0,0,0,0,0,1,1,0","0,0,1,1,1,1,1,0,1,1,1,0","0,1,1,0,1,1",10,20,20,"true","","","","","",NA,"",NA,NA,NA,NA,NA,NA,NA,NA,NA,NA,NA,NA,NA,NA,NA,NA,NA,NA,NA,NA,NA,NA,NA,NA,NA,NA,NA,NA,NA,NA,NA,NA,NA,NA,NA,NA,NA,NA,NA,"",NA,NA,NA,NA,NA,NA,NA,NA,NA,2025-11-21 01:46:02
"173293.89999961853","https://psyc-201.github.io/xiang2023/exp/index1.html?PROLIFIC_PID=REDACTED&STUDY_ID=691f8ca61c6b4dcbb0aeb5f4&SESSION_ID=691fbef77b922f3d581e7cd5","instructions",2,188447,"0.0-2.0","dFWNX7ZA0Fyyp55RFdWa8sWD2XhxatexJXmB+bPKc42sdmVe8mMW47Xiwgzeim4uxZ7FWY1A/KySF9MUQrQFb05GNfCdkDFSWwlyE7YL39okdO5SjLe+CyfA5l5nw7DtoyKSHeL7XvqUETyXhBgKromyCeGDAr05PLTm8AqpJIeuEIi3hfilkCOXdQaWN/nP3ig2NrtldzTRZNNrKkgcWQmPpzSfVIltfsvmNVYqvq1yaFhg/NWojyvY3V3eLaHfABOXUVfdnYlnfsxORtf9cd0QHEqaOdFvqT7MmrDjEodangDEs2fsq2g6qeuX3NMIfZIUGT62wjBFiuI4XlM6ZA==","691f8ca61c6b4dcbb0aeb5f4","691fbef77b922f3d581e7cd5","index1","<span style='color:red'>Fail,<span style='color:red'>Fail,<span style='color:green'>Lift,<span style='color:green'>Lift,<span style='color:red'>Fail,<span style='color:red'>Fail,<span style='color:red'>Fail,<span style='color:red'>Fail,<span style='color:red'>Fail,<span style='color:green'>Lift,<span style='color:green'>Lift,<span style='color:red'>Fail","<span style='color:red'>Fail,<span style='color:red'>Fail,<span style='color:green'>Lift,<span style='color:green'>Lift,<span style='color:green'>Lift,<span style='color:green'>Lift,<span style='color:green'>Lift,<span style='color:red'>Fail,<span style='color:green'>Lift,<span style='color:green'>Lift,<span style='color:green'>Lift,<span style='color:red'>Fail","<span style='color:red'>Fail,<span style='color:green'>Lift,<span style='color:green'>Lift,<span style='color:red'>Fail,<span style='color:green'>Lift,<span style='color:green'>Lift","0,0,1,1,0,0,0,0,0,1,1,0","0,0,1,1,1,1,1,0,1,1,1,0","0,1,1,0,1,1",10,20,20,"","[{""page_index"":0,""viewing_time"":23094.39999961853},{""page_index"":1,""viewing_time"":31684.10000038147},{""page_index"":2,""viewing_time"":20867.60000038147},{""page_index"":3,""viewing_time"":27634.099999427795},{""page_index"":4,""viewing_time"":16265.800000190735},{""page_index"":5,""viewing_time"":40647.5},{""page_index"":6,""viewing_time"":13100.10000038147}]","","","","",NA,"",NA,NA,NA,NA,NA,NA,NA,NA,NA,NA,NA,NA,NA,NA,NA,NA,NA,NA,NA,NA,NA,NA,NA,NA,NA,NA,NA,NA,NA,NA,NA,NA,NA,NA,NA,NA,NA,NA,NA,"",NA,NA,NA,NA,NA,NA,NA,NA,NA,2025-11-21 01:46:02
"null","https://psyc-201.github.io/xiang2023/exp/index1.html?PROLIFIC_PID=REDACTED&STUDY_ID=691f8ca61c6b4dcbb0aeb5f4&SESSION_ID=691fbef77b922f3d581e7cd5","html-keyboard-response",3,189452,"0.0-3.0","dFWNX7ZA0Fyyp55RFdWa8sWD2XhxatexJXmB+bPKc42sdmVe8mMW47Xiwgzeim4uxZ7FWY1A/KySF9MUQrQFb05GNfCdkDFSWwlyE7YL39okdO5SjLe+CyfA5l5nw7DtoyKSHeL7XvqUETyXhBgKromyCeGDAr05PLTm8AqpJIeuEIi3hfilkCOXdQaWN/nP3ig2NrtldzTRZNNrKkgcWQmPpzSfVIltfsvmNVYqvq1yaFhg/NWojyvY3V3eLaHfABOXUVfdnYlnfsxORtf9cd0QHEqaOdFvqT7MmrDjEodangDEs2fsq2g6qeuX3NMIfZIUGT62wjBFiuI4XlM6ZA==","691f8ca61c6b4dcbb0aeb5f4","691fbef77b922f3d581e7cd5","index1","<span style='color:red'>Fail,<span style='color:red'>Fail,<span style='color:green'>Lift,<span style='color:green'>Lift,<span style='color:red'>Fail,<span style='color:red'>Fail,<span style='color:red'>Fail,<span style='color:red'>Fail,<span style='color:red'>Fail,<span style='color:green'>Lift,<span style='color:green'>Lift,<span style='color:red'>Fail","<span style='color:red'>Fail,<span style='color:red'>Fail,<span style='color:green'>Lift,<span style='color:green'>Lift,<span style='color:green'>Lift,<span style='color:green'>Lift,<span style='color:green'>Lift,<span style='color:red'>Fail,<span style='color:green'>Lift,<span style='color:green'>Lift,<span style='color:green'>Lift,<span style='color:red'>Fail","<span style='color:red'>Fail,<span style='color:green'>Lift,<span style='color:green'>Lift,<span style='color:red'>Fail,<span style='color:green'>Lift,<span style='color:green'>Lift","0,0,1,1,0,0,0,0,0,1,1,0","0,0,1,1,1,1,1,0,1,1,1,0","0,1,1,0,1,1",10,20,20,"",""," ","null","","",NA,"",NA,NA,NA,NA,NA,NA,NA,NA,NA,NA,NA,NA,NA,NA,NA,NA,NA,NA,NA,NA,NA,NA,NA,NA,NA,NA,NA,NA,NA,NA,NA,NA,NA,NA,NA,NA,NA,NA,NA,"",NA,NA,NA,NA,NA,NA,NA,NA,NA,2025-11-21 01:46:02
"71560.80000019073","https://psyc-201.github.io/xiang2023/exp/index1.html?PROLIFIC_PID=REDACTED&STUDY_ID=691f8ca61c6b4dcbb0aeb5f4&SESSION_ID=691fbef77b922f3d581e7cd5","survey-multi-choice",4,261013,"0.0-4.0","dFWNX7ZA0Fyyp55RFdWa8sWD2XhxatexJXmB+bPKc42sdmVe8mMW47Xiwgzeim4uxZ7FWY1A/KySF9MUQrQFb05GNfCdkDFSWwlyE7YL39okdO5SjLe+CyfA5l5nw7DtoyKSHeL7XvqUETyXhBgKromyCeGDAr05PLTm8AqpJIeuEIi3hfilkCOXdQaWN/nP3ig2NrtldzTRZNNrKkgcWQmPpzSfVIltfsvmNVYqvq1yaFhg/NWojyvY3V3eLaHfABOXUVfdnYlnfsxORtf9cd0QHEqaOdFvqT7MmrDjEodangDEs2fsq2g6qeuX3NMIfZIUGT62wjBFiuI4XlM6ZA==","691f8ca61c6b4dcbb0aeb5f4","691fbef77b922f3d581e7cd5","index1","<span style='color:red'>Fail,<span style='color:red'>Fail,<span style='color:green'>Lift,<span style='color:green'>Lift,<span style='color:red'>Fail,<span style='color:red'>Fail,<span style='color:red'>Fail,<span style='color:red'>Fail,<span style='color:red'>Fail,<span style='color:green'>Lift,<span style='color:green'>Lift,<span style='color:red'>Fail","<span style='color:red'>Fail,<span style='color:red'>Fail,<span style='color:green'>Lift,<span style='color:green'>Lift,<span style='color:green'>Lift,<span style='color:green'>Lift,<span style='color:green'>Lift,<span style='color:red'>Fail,<span style='color:green'>Lift,<span style='color:green'>Lift,<span style='color:green'>Lift,<span style='color:red'>Fail","<span style='color:red'>Fail,<span style='color:green'>Lift,<span style='color:green'>Lift,<span style='color:red'>Fail,<span style='color:green'>Lift,<span style='color:green'>Lift","0,0,1,1,0,0,0,0,0,1,1,0","0,0,1,1,1,1,1,0,1,1,1,0","0,1,1,0,1,1",10,20,20,"","","","","{""Q0"":""It consists of multiple contests, each contest with three rounds."",""Q1"":""When a new contest begins."",""Q2"":""The box weight always stays the same (equivalent to strength of 5)."",""Q3"":""Each will get $20."",""Q4"":""How close my guesses are to the actual outcome.""}","[0,1,2,3,4]",NA,"",NA,NA,NA,NA,NA,NA,NA,NA,NA,NA,NA,NA,NA,NA,NA,NA,NA,NA,NA,NA,NA,NA,NA,NA,NA,NA,NA,NA,NA,NA,NA,NA,NA,NA,NA,NA,NA,NA,NA,"",NA,NA,NA,NA,NA,NA,NA,NA,NA,2025-11-21 01:46:02
"19041.599999427795","https://psyc-201.github.io/xiang2023/exp/index1.html?PROLIFIC_PID=REDACTED&STUDY_ID=691f8ca61c6b4dcbb0aeb5f4&SESSION_ID=691fbef77b922f3d581e7cd5","instructions",5,280059,"0.0-305.0","dFWNX7ZA0Fyyp55RFdWa8sWD2XhxatexJXmB+bPKc42sdmVe8mMW47Xiwgzeim4uxZ7FWY1A/KySF9MUQrQFb05GNfCdkDFSWwlyE7YL39okdO5SjLe+CyfA5l5nw7DtoyKSHeL7XvqUETyXhBgKromyCeGDAr05PLTm8AqpJIeuEIi3hfilkCOXdQaWN/nP3ig2NrtldzTRZNNrKkgcWQmPpzSfVIltfsvmNVYqvq1yaFhg/NWojyvY3V3eLaHfABOXUVfdnYlnfsxORtf9cd0QHEqaOdFvqT7MmrDjEodangDEs2fsq2g6qeuX3NMIfZIUGT62wjBFiuI4XlM6ZA==","691f8ca61c6b4dcbb0aeb5f4","691fbef77b922f3d581e7cd5","index1","<span style='color:red'>Fail,<span style='color:red'>Fail,<span style='color:green'>Lift,<span style='color:green'>Lift,<span style='color:red'>Fail,<span style='color:red'>Fail,<span style='color:red'>Fail,<span style='color:red'>Fail,<span style='color:red'>Fail,<span style='color:green'>Lift,<span style='color:green'>Lift,<span style='color:red'>Fail","<span style='color:red'>Fail,<span style='color:red'>Fail,<span style='color:green'>Lift,<span style='color:green'>Lift,<span style='color:green'>Lift,<span style='color:green'>Lift,<span style='color:green'>Lift,<span style='color:red'>Fail,<span style='color:green'>Lift,<span style='color:green'>Lift,<span style='color:green'>Lift,<span style='color:red'>Fail","<span style='color:red'>Fail,<span style='color:green'>Lift,<span style='color:green'>Lift,<span style='color:red'>Fail,<span style='color:green'>Lift,<span style='color:green'>Lift","0,0,1,1,0,0,0,0,0,1,1,0","0,0,1,1,1,1,1,0,1,1,1,0","0,1,1,0,1,1",10,20,20,"","[{""page_index"":0,""viewing_time"":12159},{""page_index"":1,""viewing_time"":6882.39999961853}]","","","","",NA,"",NA,NA,NA,NA,NA,NA,NA,NA,NA,NA,NA,NA,NA,NA,NA,NA,NA,NA,NA,NA,NA,NA,NA,NA,NA,NA,NA,NA,NA,NA,NA,NA,NA,NA,NA,NA,NA,NA,NA,"",NA,NA,NA,NA,NA,NA,NA,NA,NA,2025-11-21 01:46:02
"null","https://psyc-201.github.io/xiang2023/exp/index1.html?PROLIFIC_PID=REDACTED&STUDY_ID=691f8ca61c6b4dcbb0aeb5f4&SESSION_ID=691fbef77b922f3d581e7cd5","html-keyboard-response",6,281061,"0.0-306.0","dFWNX7ZA0Fyyp55RFdWa8sWD2XhxatexJXmB+bPKc42sdmVe8mMW47Xiwgzeim4uxZ7FWY1A/KySF9MUQrQFb05GNfCdkDFSWwlyE7YL39okdO5SjLe+CyfA5l5nw7DtoyKSHeL7XvqUETyXhBgKromyCeGDAr05PLTm8AqpJIeuEIi3hfilkCOXdQaWN/nP3ig2NrtldzTRZNNrKkgcWQmPpzSfVIltfsvmNVYqvq1yaFhg/NWojyvY3V3eLaHfABOXUVfdnYlnfsxORtf9cd0QHEqaOdFvqT7MmrDjEodangDEs2fsq2g6qeuX3NMIfZIUGT62wjBFiuI4XlM6ZA==","691f8ca61c6b4dcbb0aeb5f4","691fbef77b922f3d581e7cd5","index1","<span style='color:red'>Fail,<span style='color:red'>Fail,<span style='color:green'>Lift,<span style='color:green'>Lift,<span style='color:red'>Fail,<span style='color:red'>Fail,<span style='color:red'>Fail,<span style='color:red'>Fail,<span style='color:red'>Fail,<span style='color:green'>Lift,<span style='color:green'>Lift,<span style='color:red'>Fail","<span style='color:red'>Fail,<span style='color:red'>Fail,<span style='color:green'>Lift,<span style='color:green'>Lift,<span style='color:green'>Lift,<span style='color:green'>Lift,<span style='color:green'>Lift,<span style='color:red'>Fail,<span style='color:green'>Lift,<span style='color:green'>Lift,<span style='color:green'>Lift,<span style='color:red'>Fail","<span style='color:red'>Fail,<span style='color:green'>Lift,<span style='color:green'>Lift,<span style='color:red'>Fail,<span style='color:green'>Lift,<span style='color:green'>Lift","0,0,1,1,0,0,0,0,0,1,1,0","0,0,1,1,1,1,1,0,1,1,1,0","0,1,1,0,1,1",10,20,20,"",""," ","null","","",1,"",NA,NA,NA,NA,NA,NA,NA,NA,NA,NA,NA,NA,NA,NA,NA,NA,NA,NA,NA,NA,NA,NA,NA,NA,NA,NA,NA,NA,NA,NA,NA,NA,NA,NA,NA,NA,NA,NA,NA,"",NA,NA,NA,NA,NA,NA,NA,NA,NA,2025-11-21 01:46:02
"null","https://psyc-201.github.io/xiang2023/exp/index1.html?PROLIFIC_PID=REDACTED&STUDY_ID=691f8ca61c6b4dcbb0aeb5f4&SESSION_ID=691fbef77b922f3d581e7cd5","html-keyboard-response",7,284064,"0.0-307.0","dFWNX7ZA0Fyyp55RFdWa8sWD2XhxatexJXmB+bPKc42sdmVe8mMW47Xiwgzeim4uxZ7FWY1A/KySF9MUQrQFb05GNfCdkDFSWwlyE7YL39okdO5SjLe+CyfA5l5nw7DtoyKSHeL7XvqUETyXhBgKromyCeGDAr05PLTm8AqpJIeuEIi3hfilkCOXdQaWN/nP3ig2NrtldzTRZNNrKkgcWQmPpzSfVIltfsvmNVYqvq1yaFhg/NWojyvY3V3eLaHfABOXUVfdnYlnfsxORtf9cd0QHEqaOdFvqT7MmrDjEodangDEs2fsq2g6qeuX3NMIfZIUGT62wjBFiuI4XlM6ZA==","691f8ca61c6b4dcbb0aeb5f4","691fbef77b922f3d581e7cd5","index1","<span style='color:red'>Fail,<span style='color:red'>Fail,<span style='color:green'>Lift,<span style='color:green'>Lift,<span style='color:red'>Fail,<span style='color:red'>Fail,<span style='color:red'>Fail,<span style='color:red'>Fail,<span style='color:red'>Fail,<span style='color:green'>Lift,<span style='color:green'>Lift,<span style='color:red'>Fail","<span style='color:red'>Fail,<span style='color:red'>Fail,<span style='color:green'>Lift,<span style='color:green'>Lift,<span style='color:green'>Lift,<span style='color:green'>Lift,<span style='color:green'>Lift,<span style='color:red'>Fail,<span style='color:green'>Lift,<span style='color:green'>Lift,<span style='color:green'>Lift,<span style='color:red'>Fail","<span style='color:red'>Fail,<span style='color:green'>Lift,<span style='color:green'>Lift,<span style='color:red'>Fail,<span style='color:green'>Lift,<span style='color:green'>Lift","0,0,1,1,0,0,0,0,0,1,1,0","0,0,1,1,1,1,1,0,1,1,1,0","0,1,1,0,1,1",10,20,20,"","","<p style='font-size:30px'><b> New Contest! </b></p>","null","","",1,"",NA,NA,NA,NA,NA,NA,NA,NA,NA,NA,NA,NA,NA,NA,NA,NA,NA,NA,NA,NA,NA,NA,NA,NA,NA,NA,NA,NA,NA,NA,NA,NA,NA,NA,NA,NA,NA,NA,NA,"",NA,NA,NA,NA,NA,NA,NA,NA,NA,2025-11-21 01:46:02
"33116.599999427795","https://psyc-201.github.io/xiang2023/exp/index1.html?PROLIFIC_PID=REDACTED&STUDY_ID=691f8ca61c6b4dcbb0aeb5f4&SESSION_ID=691fbef77b922f3d581e7cd5","survey-html-form",8,317186,"0.0-308.0","dFWNX7ZA0Fyyp55RFdWa8sWD2XhxatexJXmB+bPKc42sdmVe8mMW47Xiwgzeim4uxZ7FWY1A/KySF9MUQrQFb05GNfCdkDFSWwlyE7YL39okdO5SjLe+CyfA5l5nw7DtoyKSHeL7XvqUETyXhBgKromyCeGDAr05PLTm8AqpJIeuEIi3hfilkCOXdQaWN/nP3ig2NrtldzTRZNNrKkgcWQmPpzSfVIltfsvmNVYqvq1yaFhg/NWojyvY3V3eLaHfABOXUVfdnYlnfsxORtf9cd0QHEqaOdFvqT7MmrDjEodangDEs2fsq2g6qeuX3NMIfZIUGT62wjBFiuI4XlM6ZA==","691f8ca61c6b4dcbb0aeb5f4","691fbef77b922f3d581e7cd5","index1","<span style='color:red'>Fail,<span style='color:red'>Fail,<span style='color:green'>Lift,<span style='color:green'>Lift,<span style='color:red'>Fail,<span style='color:red'>Fail,<span style='color:red'>Fail,<span style='color:red'>Fail,<span style='color:red'>Fail,<span style='color:green'>Lift,<span style='color:green'>Lift,<span style='color:red'>Fail","<span style='color:red'>Fail,<span style='color:red'>Fail,<span style='color:green'>Lift,<span style='color:green'>Lift,<span style='color:green'>Lift,<span style='color:green'>Lift,<span style='color:green'>Lift,<span style='color:red'>Fail,<span style='color:green'>Lift,<span style='color:green'>Lift,<span style='color:green'>Lift,<span style='color:red'>Fail","<span style='color:red'>Fail,<span style='color:green'>Lift,<span style='color:green'>Lift,<span style='color:red'>Fail,<span style='color:green'>Lift,<span style='color:green'>Lift","0,0,1,1,0,0,0,0,0,1,1,0","0,0,1,1,1,1,1,0,1,1,1,0","0,1,1,0,1,1",10,20,20,"","","","","{""box1"":""5"",""box2"":""5""}","",1,"round1_outcome",1,1,1,5,5,NA,NA,0,0,10,5,5,NA,NA,0,0,10,NA,NA,NA,NA,NA,NA,NA,NA,NA,NA,NA,NA,NA,NA,NA,NA,NA,NA,NA,NA,NA,NA,"",NA,NA,NA,NA,NA,NA,NA,NA,NA,2025-11-21 01:46:02
"27176.800000190735","https://psyc-201.github.io/xiang2023/exp/index1.html?PROLIFIC_PID=REDACTED&STUDY_ID=691f8ca61c6b4dcbb0aeb5f4&SESSION_ID=691fbef77b922f3d581e7cd5","survey-html-form",9,344366,"0.0-309.0","dFWNX7ZA0Fyyp55RFdWa8sWD2XhxatexJXmB+bPKc42sdmVe8mMW47Xiwgzeim4uxZ7FWY1A/KySF9MUQrQFb05GNfCdkDFSWwlyE7YL39okdO5SjLe+CyfA5l5nw7DtoyKSHeL7XvqUETyXhBgKromyCeGDAr05PLTm8AqpJIeuEIi3hfilkCOXdQaWN/nP3ig2NrtldzTRZNNrKkgcWQmPpzSfVIltfsvmNVYqvq1yaFhg/NWojyvY3V3eLaHfABOXUVfdnYlnfsxORtf9cd0QHEqaOdFvqT7MmrDjEodangDEs2fsq2g6qeuX3NMIfZIUGT62wjBFiuI4XlM6ZA==","691f8ca61c6b4dcbb0aeb5f4","691fbef77b922f3d581e7cd5","index1","<span style='color:red'>Fail,<span style='color:red'>Fail,<span style='color:green'>Lift,<span style='color:green'>Lift,<span style='color:red'>Fail,<span style='color:red'>Fail,<span style='color:red'>Fail,<span style='color:red'>Fail,<span style='color:red'>Fail,<span style='color:green'>Lift,<span style='color:green'>Lift,<span style='color:red'>Fail","<span style='color:red'>Fail,<span style='color:red'>Fail,<span style='color:green'>Lift,<span style='color:green'>Lift,<span style='color:green'>Lift,<span style='color:green'>Lift,<span style='color:green'>Lift,<span style='color:red'>Fail,<span style='color:green'>Lift,<span style='color:green'>Lift,<span style='color:green'>Lift,<span style='color:red'>Fail","<span style='color:red'>Fail,<span style='color:green'>Lift,<span style='color:green'>Lift,<span style='color:red'>Fail,<span style='color:green'>Lift,<span style='color:green'>Lift","0,0,1,1,0,0,0,0,0,1,1,0","0,0,1,1,1,1,1,0,1,1,1,0","0,1,1,0,1,1",10,20,20,"","","","","{""box1"":""50"",""box2"":""50""}","",1,"round2_ready",2,1,2,NA,NA,NA,NA,NA,NA,NA,NA,NA,NA,NA,NA,NA,NA,50,50,50,50,NA,NA,NA,NA,NA,NA,NA,NA,NA,NA,NA,NA,NA,NA,NA,NA,NA,NA,"",NA,NA,NA,NA,NA,NA,NA,NA,NA,2025-11-21 01:46:02
"49489.5","https://psyc-201.github.io/xiang2023/exp/index1.html?PROLIFIC_PID=REDACTED&STUDY_ID=691f8ca61c6b4dcbb0aeb5f4&SESSION_ID=691fbef77b922f3d581e7cd5","survey-html-form",10,393858,"0.0-310.0","dFWNX7ZA0Fyyp55RFdWa8sWD2XhxatexJXmB+bPKc42sdmVe8mMW47Xiwgzeim4uxZ7FWY1A/KySF9MUQrQFb05GNfCdkDFSWwlyE7YL39okdO5SjLe+CyfA5l5nw7DtoyKSHeL7XvqUETyXhBgKromyCeGDAr05PLTm8AqpJIeuEIi3hfilkCOXdQaWN/nP3ig2NrtldzTRZNNrKkgcWQmPpzSfVIltfsvmNVYqvq1yaFhg/NWojyvY3V3eLaHfABOXUVfdnYlnfsxORtf9cd0QHEqaOdFvqT7MmrDjEodangDEs2fsq2g6qeuX3NMIfZIUGT62wjBFiuI4XlM6ZA==","691f8ca61c6b4dcbb0aeb5f4","691fbef77b922f3d581e7cd5","index1","<span style='color:red'>Fail,<span style='color:red'>Fail,<span style='color:green'>Lift,<span style='color:green'>Lift,<span style='color:red'>Fail,<span style='color:red'>Fail,<span style='color:red'>Fail,<span style='color:red'>Fail,<span style='color:red'>Fail,<span style='color:green'>Lift,<span style='color:green'>Lift,<span style='color:red'>Fail","<span style='color:red'>Fail,<span style='color:red'>Fail,<span style='color:green'>Lift,<span style='color:green'>Lift,<span style='color:green'>Lift,<span style='color:green'>Lift,<span style='color:green'>Lift,<span style='color:red'>Fail,<span style='color:green'>Lift,<span style='color:green'>Lift,<span style='color:green'>Lift,<span style='color:red'>Fail","<span style='color:red'>Fail,<span style='color:green'>Lift,<span style='color:green'>Lift,<span style='color:red'>Fail,<span style='color:green'>Lift,<span style='color:green'>Lift","0,0,1,1,0,0,0,0,0,1,1,0","0,0,1,1,1,1,1,0,1,1,1,0","0,1,1,0,1,1",10,20,20,"","","","","{""box1"":""5"",""box2"":""4"",""box3"":""85""}","",1,"round2_outcome",3,1,2,5,4,85,NA,1,0,20,NA,NA,NA,NA,NA,NA,NA,NA,NA,NA,NA,5,4,85,NA,1,0,20,NA,NA,NA,NA,NA,NA,NA,NA,NA,NA,NA,"",NA,NA,NA,NA,NA,NA,NA,NA,NA,2025-11-21 01:46:02
"23191.699999809265","https://psyc-201.github.io/xiang2023/exp/index1.html?PROLIFIC_PID=REDACTED&STUDY_ID=691f8ca61c6b4dcbb0aeb5f4&SESSION_ID=691fbef77b922f3d581e7cd5","survey-html-form",11,417053,"0.0-311.0","dFWNX7ZA0Fyyp55RFdWa8sWD2XhxatexJXmB+bPKc42sdmVe8mMW47Xiwgzeim4uxZ7FWY1A/KySF9MUQrQFb05GNfCdkDFSWwlyE7YL39okdO5SjLe+CyfA5l5nw7DtoyKSHeL7XvqUETyXhBgKromyCeGDAr05PLTm8AqpJIeuEIi3hfilkCOXdQaWN/nP3ig2NrtldzTRZNNrKkgcWQmPpzSfVIltfsvmNVYqvq1yaFhg/NWojyvY3V3eLaHfABOXUVfdnYlnfsxORtf9cd0QHEqaOdFvqT7MmrDjEodangDEs2fsq2g6qeuX3NMIfZIUGT62wjBFiuI4XlM6ZA==","691f8ca61c6b4dcbb0aeb5f4","691fbef77b922f3d581e7cd5","index1","<span style='color:red'>Fail,<span style='color:red'>Fail,<span style='color:green'>Lift,<span style='color:green'>Lift,<span style='color:red'>Fail,<span style='color:red'>Fail,<span style='color:red'>Fail,<span style='color:red'>Fail,<span style='color:red'>Fail,<span style='color:green'>Lift,<span style='color:green'>Lift,<span style='color:red'>Fail","<span style='color:red'>Fail,<span style='color:red'>Fail,<span style='color:green'>Lift,<span style='color:green'>Lift,<span style='color:green'>Lift,<span style='color:green'>Lift,<span style='color:green'>Lift,<span style='color:red'>Fail,<span style='color:green'>Lift,<span style='color:green'>Lift,<span style='color:green'>Lift,<span style='color:red'>Fail","<span style='color:red'>Fail,<span style='color:green'>Lift,<span style='color:green'>Lift,<span style='color:red'>Fail,<span style='color:green'>Lift,<span style='color:green'>Lift","0,0,1,1,0,0,0,0,0,1,1,0","0,0,1,1,1,1,1,0,1,1,1,0","0,1,1,0,1,1",10,20,20,"","","","","{""box1"":""90""}","",1,"round3_ready",4,1,3,NA,NA,NA,NA,NA,NA,NA,NA,NA,NA,NA,NA,NA,NA,90,90,NA,NA,NA,NA,NA,NA,NA,NA,NA,90,90,NA,NA,NA,NA,NA,NA,NA,NA,NA,"",NA,NA,NA,NA,NA,NA,NA,NA,NA,2025-11-21 01:46:02
"43662","https://psyc-201.github.io/xiang2023/exp/index1.html?PROLIFIC_PID=REDACTED&STUDY_ID=691f8ca61c6b4dcbb0aeb5f4&SESSION_ID=691fbef77b922f3d581e7cd5","survey-html-form",12,460716,"0.0-313.0-0.0","dFWNX7ZA0Fyyp55RFdWa8sWD2XhxatexJXmB+bPKc42sdmVe8mMW47Xiwgzeim4uxZ7FWY1A/KySF9MUQrQFb05GNfCdkDFSWwlyE7YL39okdO5SjLe+CyfA5l5nw7DtoyKSHeL7XvqUETyXhBgKromyCeGDAr05PLTm8AqpJIeuEIi3hfilkCOXdQaWN/nP3ig2NrtldzTRZNNrKkgcWQmPpzSfVIltfsvmNVYqvq1yaFhg/NWojyvY3V3eLaHfABOXUVfdnYlnfsxORtf9cd0QHEqaOdFvqT7MmrDjEodangDEs2fsq2g6qeuX3NMIfZIUGT62wjBFiuI4XlM6ZA==","691f8ca61c6b4dcbb0aeb5f4","691fbef77b922f3d581e7cd5","index1","<span style='color:red'>Fail,<span style='color:red'>Fail,<span style='color:green'>Lift,<span style='color:green'>Lift,<span style='color:red'>Fail,<span style='color:red'>Fail,<span style='color:red'>Fail,<span style='color:red'>Fail,<span style='color:red'>Fail,<span style='color:green'>Lift,<span style='color:green'>Lift,<span style='color:red'>Fail","<span style='color:red'>Fail,<span style='color:red'>Fail,<span style='color:green'>Lift,<span style='color:green'>Lift,<span style='color:green'>Lift,<span style='color:green'>Lift,<span style='color:green'>Lift,<span style='color:red'>Fail,<span style='color:green'>Lift,<span style='color:green'>Lift,<span style='color:green'>Lift,<span style='color:red'>Fail","<span style='color:red'>Fail,<span style='color:green'>Lift,<span style='color:green'>Lift,<span style='color:red'>Fail,<span style='color:green'>Lift,<span style='color:green'>Lift","0,0,1,1,0,0,0,0,0,1,1,0","0,0,1,1,1,1,1,0,1,1,1,0","0,1,1,0,1,1",10,20,20,"","","","","{""box1"":""6"",""box2"":""4"",""box3"":""999"",""box4"":""999""}","",2,"round3_fail",5,1,3,6,4,NA,NA,0,0,20,NA,NA,NA,NA,NA,NA,NA,NA,NA,NA,NA,NA,NA,NA,NA,NA,NA,NA,NA,NA,1,1,6,4,0,0,20,NA,NA,"",NA,NA,NA,NA,NA,NA,NA,NA,NA,2025-11-21 01:46:02
"null","https://psyc-201.github.io/xiang2023/exp/index1.html?PROLIFIC_PID=REDACTED&STUDY_ID=691f8ca61c6b4dcbb0aeb5f4&SESSION_ID=691fbef77b922f3d581e7cd5","html-keyboard-response",13,463720,"0.0-316.0","dFWNX7ZA0Fyyp55RFdWa8sWD2XhxatexJXmB+bPKc42sdmVe8mMW47Xiwgzeim4uxZ7FWY1A/KySF9MUQrQFb05GNfCdkDFSWwlyE7YL39okdO5SjLe+CyfA5l5nw7DtoyKSHeL7XvqUETyXhBgKromyCeGDAr05PLTm8AqpJIeuEIi3hfilkCOXdQaWN/nP3ig2NrtldzTRZNNrKkgcWQmPpzSfVIltfsvmNVYqvq1yaFhg/NWojyvY3V3eLaHfABOXUVfdnYlnfsxORtf9cd0QHEqaOdFvqT7MmrDjEodangDEs2fsq2g6qeuX3NMIfZIUGT62wjBFiuI4XlM6ZA==","691f8ca61c6b4dcbb0aeb5f4","691fbef77b922f3d581e7cd5","index1","<span style='color:red'>Fail,<span style='color:red'>Fail,<span style='color:green'>Lift,<span style='color:green'>Lift,<span style='color:red'>Fail,<span style='color:red'>Fail,<span style='color:red'>Fail,<span style='color:red'>Fail,<span style='color:red'>Fail,<span style='color:green'>Lift,<span style='color:green'>Lift,<span style='color:red'>Fail","<span style='color:red'>Fail,<span style='color:red'>Fail,<span style='color:green'>Lift,<span style='color:green'>Lift,<span style='color:green'>Lift,<span style='color:green'>Lift,<span style='color:green'>Lift,<span style='color:red'>Fail,<span style='color:green'>Lift,<span style='color:green'>Lift,<span style='color:green'>Lift,<span style='color:red'>Fail","<span style='color:red'>Fail,<span style='color:green'>Lift,<span style='color:green'>Lift,<span style='color:red'>Fail,<span style='color:green'>Lift,<span style='color:green'>Lift","0,0,1,1,0,0,0,0,0,1,1,0","0,0,1,1,1,1,1,0,1,1,1,0","0,1,1,0,1,1",10,20,20,"","","<p style='font-size:30px'><b> New Contest! </b></p>","null","","",2,"",NA,NA,NA,NA,NA,NA,NA,NA,NA,NA,NA,NA,NA,NA,NA,NA,NA,NA,NA,NA,NA,NA,NA,NA,NA,NA,NA,NA,NA,NA,NA,NA,NA,NA,NA,NA,NA,NA,NA,"",NA,NA,NA,NA,NA,NA,NA,NA,NA,2025-11-21 01:46:02
"41860.199999809265","https://psyc-201.github.io/xiang2023/exp/index1.html?PROLIFIC_PID=REDACTED&STUDY_ID=691f8ca61c6b4dcbb0aeb5f4&SESSION_ID=691fbef77b922f3d581e7cd5","survey-html-form",14,505582,"0.0-317.0","dFWNX7ZA0Fyyp55RFdWa8sWD2XhxatexJXmB+bPKc42sdmVe8mMW47Xiwgzeim4uxZ7FWY1A/KySF9MUQrQFb05GNfCdkDFSWwlyE7YL39okdO5SjLe+CyfA5l5nw7DtoyKSHeL7XvqUETyXhBgKromyCeGDAr05PLTm8AqpJIeuEIi3hfilkCOXdQaWN/nP3ig2NrtldzTRZNNrKkgcWQmPpzSfVIltfsvmNVYqvq1yaFhg/NWojyvY3V3eLaHfABOXUVfdnYlnfsxORtf9cd0QHEqaOdFvqT7MmrDjEodangDEs2fsq2g6qeuX3NMIfZIUGT62wjBFiuI4XlM6ZA==","691f8ca61c6b4dcbb0aeb5f4","691fbef77b922f3d581e7cd5","index1","<span style='color:red'>Fail,<span style='color:red'>Fail,<span style='color:green'>Lift,<span style='color:green'>Lift,<span style='color:red'>Fail,<span style='color:red'>Fail,<span style='color:red'>Fail,<span style='color:red'>Fail,<span style='color:red'>Fail,<span style='color:green'>Lift,<span style='color:green'>Lift,<span style='color:red'>Fail","<span style='color:red'>Fail,<span style='color:red'>Fail,<span style='color:green'>Lift,<span style='color:green'>Lift,<span style='color:green'>Lift,<span style='color:green'>Lift,<span style='color:green'>Lift,<span style='color:red'>Fail,<span style='color:green'>Lift,<span style='color:green'>Lift,<span style='color:green'>Lift,<span style='color:red'>Fail","<span style='color:red'>Fail,<span style='color:green'>Lift,<span style='color:green'>Lift,<span style='color:red'>Fail,<span style='color:green'>Lift,<span style='color:green'>Lift","0,0,1,1,0,0,0,0,0,1,1,0","0,0,1,1,1,1,1,0,1,1,1,0","0,1,1,0,1,1",10,20,20,"","","","","{""box1"":""5"",""box2"":""5""}","",2,"round1_outcome",1,2,1,5,5,NA,NA,0,0,10,5,5,NA,NA,0,0,10,NA,NA,NA,NA,NA,NA,NA,NA,NA,NA,NA,NA,NA,NA,NA,NA,NA,NA,NA,NA,NA,NA,"",NA,NA,NA,NA,NA,NA,NA,NA,NA,2025-11-21 01:46:02
"25782","https://psyc-201.github.io/xiang2023/exp/index1.html?PROLIFIC_PID=REDACTED&STUDY_ID=691f8ca61c6b4dcbb0aeb5f4&SESSION_ID=691fbef77b922f3d581e7cd5","survey-html-form",15,531365,"0.0-318.0","dFWNX7ZA0Fyyp55RFdWa8sWD2XhxatexJXmB+bPKc42sdmVe8mMW47Xiwgzeim4uxZ7FWY1A/KySF9MUQrQFb05GNfCdkDFSWwlyE7YL39okdO5SjLe+CyfA5l5nw7DtoyKSHeL7XvqUETyXhBgKromyCeGDAr05PLTm8AqpJIeuEIi3hfilkCOXdQaWN/nP3ig2NrtldzTRZNNrKkgcWQmPpzSfVIltfsvmNVYqvq1yaFhg/NWojyvY3V3eLaHfABOXUVfdnYlnfsxORtf9cd0QHEqaOdFvqT7MmrDjEodangDEs2fsq2g6qeuX3NMIfZIUGT62wjBFiuI4XlM6ZA==","691f8ca61c6b4dcbb0aeb5f4","691fbef77b922f3d581e7cd5","index1","<span style='color:red'>Fail,<span style='color:red'>Fail,<span style='color:green'>Lift,<span style='color:green'>Lift,<span style='color:red'>Fail,<span style='color:red'>Fail,<span style='color:red'>Fail,<span style='color:red'>Fail,<span style='color:red'>Fail,<span style='color:green'>Lift,<span style='color:green'>Lift,<span style='color:red'>Fail","<span style='color:red'>Fail,<span style='color:red'>Fail,<span style='color:green'>Lift,<span style='color:green'>Lift,<span style='color:green'>Lift,<span style='color:green'>Lift,<span style='color:green'>Lift,<span style='color:red'>Fail,<span style='color:green'>Lift,<span style='color:green'>Lift,<span style='color:green'>Lift,<span style='color:red'>Fail","<span style='color:red'>Fail,<span style='color:green'>Lift,<span style='color:green'>Lift,<span style='color:red'>Fail,<span style='color:green'>Lift,<span style='color:green'>Lift","0,0,1,1,0,0,0,0,0,1,1,0","0,0,1,1,1,1,1,0,1,1,1,0","0,1,1,0,1,1",10,20,20,"","","","","{""box1"":""70"",""box2"":""70""}","",2,"round2_ready",2,2,2,NA,NA,NA,NA,NA,NA,NA,NA,NA,NA,NA,NA,NA,NA,70,70,70,70,NA,NA,NA,NA,NA,NA,NA,NA,NA,NA,NA,NA,NA,NA,NA,NA,NA,NA,"",NA,NA,NA,NA,NA,NA,NA,NA,NA,2025-11-21 01:46:02
"21929.900000572205","https://psyc-201.github.io/xiang2023/exp/index1.html?PROLIFIC_PID=REDACTED&STUDY_ID=691f8ca61c6b4dcbb0aeb5f4&SESSION_ID=691fbef77b922f3d581e7cd5","survey-html-form",16,553297,"0.0-319.0","dFWNX7ZA0Fyyp55RFdWa8sWD2XhxatexJXmB+bPKc42sdmVe8mMW47Xiwgzeim4uxZ7FWY1A/KySF9MUQrQFb05GNfCdkDFSWwlyE7YL39okdO5SjLe+CyfA5l5nw7DtoyKSHeL7XvqUETyXhBgKromyCeGDAr05PLTm8AqpJIeuEIi3hfilkCOXdQaWN/nP3ig2NrtldzTRZNNrKkgcWQmPpzSfVIltfsvmNVYqvq1yaFhg/NWojyvY3V3eLaHfABOXUVfdnYlnfsxORtf9cd0QHEqaOdFvqT7MmrDjEodangDEs2fsq2g6qeuX3NMIfZIUGT62wjBFiuI4XlM6ZA==","691f8ca61c6b4dcbb0aeb5f4","691fbef77b922f3d581e7cd5","index1","<span style='color:red'>Fail,<span style='color:red'>Fail,<span style='color:green'>Lift,<span style='color:green'>Lift,<span style='color:red'>Fail,<span style='color:red'>Fail,<span style='color:red'>Fail,<span style='color:red'>Fail,<span style='color:red'>Fail,<span style='color:green'>Lift,<span style='color:green'>Lift,<span style='color:red'>Fail","<span style='color:red'>Fail,<span style='color:red'>Fail,<span style='color:green'>Lift,<span style='color:green'>Lift,<span style='color:green'>Lift,<span style='color:green'>Lift,<span style='color:green'>Lift,<span style='color:red'>Fail,<span style='color:green'>Lift,<span style='color:green'>Lift,<span style='color:green'>Lift,<span style='color:red'>Fail","<span style='color:red'>Fail,<span style='color:green'>Lift,<span style='color:green'>Lift,<span style='color:red'>Fail,<span style='color:green'>Lift,<span style='color:green'>Lift","0,0,1,1,0,0,0,0,0,1,1,0","0,0,1,1,1,1,1,0,1,1,1,0","0,1,1,0,1,1",10,20,20,"","","","","{""box1"":""3"",""box2"":""3""}","",2,"round2_outcome",3,2,2,3,3,NA,NA,0,0,20,NA,NA,NA,NA,NA,NA,NA,NA,NA,NA,NA,3,3,NA,NA,0,0,20,NA,NA,NA,NA,NA,NA,NA,NA,NA,NA,NA,"",NA,NA,NA,NA,NA,NA,NA,NA,NA,2025-11-21 01:46:02
"20147.5","https://psyc-201.github.io/xiang2023/exp/index1.html?PROLIFIC_PID=REDACTED&STUDY_ID=691f8ca61c6b4dcbb0aeb5f4&SESSION_ID=691fbef77b922f3d581e7cd5","survey-html-form",17,573446,"0.0-320.0","dFWNX7ZA0Fyyp55RFdWa8sWD2XhxatexJXmB+bPKc42sdmVe8mMW47Xiwgzeim4uxZ7FWY1A/KySF9MUQrQFb05GNfCdkDFSWwlyE7YL39okdO5SjLe+CyfA5l5nw7DtoyKSHeL7XvqUETyXhBgKromyCeGDAr05PLTm8AqpJIeuEIi3hfilkCOXdQaWN/nP3ig2NrtldzTRZNNrKkgcWQmPpzSfVIltfsvmNVYqvq1yaFhg/NWojyvY3V3eLaHfABOXUVfdnYlnfsxORtf9cd0QHEqaOdFvqT7MmrDjEodangDEs2fsq2g6qeuX3NMIfZIUGT62wjBFiuI4XlM6ZA==","691f8ca61c6b4dcbb0aeb5f4","691fbef77b922f3d581e7cd5","index1","<span style='color:red'>Fail,<span style='color:red'>Fail,<span style='color:green'>Lift,<span style='color:green'>Lift,<span style='color:red'>Fail,<span style='color:red'>Fail,<span style='color:red'>Fail,<span style='color:red'>Fail,<span style='color:red'>Fail,<span style='color:green'>Lift,<span style='color:green'>Lift,<span style='color:red'>Fail","<span style='color:red'>Fail,<span style='color:red'>Fail,<span style='color:green'>Lift,<span style='color:green'>Lift,<span style='color:green'>Lift,<span style='color:green'>Lift,<span style='color:green'>Lift,<span style='color:red'>Fail,<span style='color:green'>Lift,<span style='color:green'>Lift,<span style='color:green'>Lift,<span style='color:red'>Fail","<span style='color:red'>Fail,<span style='color:green'>Lift,<span style='color:green'>Lift,<span style='color:red'>Fail,<span style='color:green'>Lift,<span style='color:green'>Lift","0,0,1,1,0,0,0,0,0,1,1,0","0,0,1,1,1,1,1,0,1,1,1,0","0,1,1,0,1,1",10,20,20,"","","","","{""box1"":""75""}","",2,"round3_ready",4,2,3,NA,NA,NA,NA,NA,NA,NA,NA,NA,NA,NA,NA,NA,NA,75,75,NA,NA,NA,NA,NA,NA,NA,NA,NA,75,75,NA,NA,NA,NA,NA,NA,NA,NA,NA,"",NA,NA,NA,NA,NA,NA,NA,NA,NA,2025-11-21 01:46:02
"29700.89999961853","https://psyc-201.github.io/xiang2023/exp/index1.html?PROLIFIC_PID=REDACTED&STUDY_ID=691f8ca61c6b4dcbb0aeb5f4&SESSION_ID=691fbef77b922f3d581e7cd5","survey-html-form",18,603148,"0.0-322.0-0.0","dFWNX7ZA0Fyyp55RFdWa8sWD2XhxatexJXmB+bPKc42sdmVe8mMW47Xiwgzeim4uxZ7FWY1A/KySF9MUQrQFb05GNfCdkDFSWwlyE7YL39okdO5SjLe+CyfA5l5nw7DtoyKSHeL7XvqUETyXhBgKromyCeGDAr05PLTm8AqpJIeuEIi3hfilkCOXdQaWN/nP3ig2NrtldzTRZNNrKkgcWQmPpzSfVIltfsvmNVYqvq1yaFhg/NWojyvY3V3eLaHfABOXUVfdnYlnfsxORtf9cd0QHEqaOdFvqT7MmrDjEodangDEs2fsq2g6qeuX3NMIfZIUGT62wjBFiuI4XlM6ZA==","691f8ca61c6b4dcbb0aeb5f4","691fbef77b922f3d581e7cd5","index1","<span style='color:red'>Fail,<span style='color:red'>Fail,<span style='color:green'>Lift,<span style='color:green'>Lift,<span style='color:red'>Fail,<span style='color:red'>Fail,<span style='color:red'>Fail,<span style='color:red'>Fail,<span style='color:red'>Fail,<span style='color:green'>Lift,<span style='color:green'>Lift,<span style='color:red'>Fail","<span style='color:red'>Fail,<span style='color:red'>Fail,<span style='color:green'>Lift,<span style='color:green'>Lift,<span style='color:green'>Lift,<span style='color:green'>Lift,<span style='color:green'>Lift,<span style='color:red'>Fail,<span style='color:green'>Lift,<span style='color:green'>Lift,<span style='color:green'>Lift,<span style='color:red'>Fail","<span style='color:red'>Fail,<span style='color:green'>Lift,<span style='color:green'>Lift,<span style='color:red'>Fail,<span style='color:green'>Lift,<span style='color:green'>Lift","0,0,1,1,0,0,0,0,0,1,1,0","0,0,1,1,1,1,1,0,1,1,1,0","0,1,1,0,1,1",10,20,20,"","","","","{""box1"":""3"",""box2"":""3"",""box3"":""999"",""box4"":""999""}","",3,"round3_fail",5,2,3,3,3,NA,NA,0,0,20,NA,NA,NA,NA,NA,NA,NA,NA,NA,NA,NA,NA,NA,NA,NA,NA,NA,NA,NA,NA,1,1,3,3,0,0,20,NA,NA,"",NA,NA,NA,NA,NA,NA,NA,NA,NA,2025-11-21 01:46:02
"null","https://psyc-201.github.io/xiang2023/exp/index1.html?PROLIFIC_PID=REDACTED&STUDY_ID=691f8ca61c6b4dcbb0aeb5f4&SESSION_ID=691fbef77b922f3d581e7cd5","html-keyboard-response",19,606150,"0.0-325.0","dFWNX7ZA0Fyyp55RFdWa8sWD2XhxatexJXmB+bPKc42sdmVe8mMW47Xiwgzeim4uxZ7FWY1A/KySF9MUQrQFb05GNfCdkDFSWwlyE7YL39okdO5SjLe+CyfA5l5nw7DtoyKSHeL7XvqUETyXhBgKromyCeGDAr05PLTm8AqpJIeuEIi3hfilkCOXdQaWN/nP3ig2NrtldzTRZNNrKkgcWQmPpzSfVIltfsvmNVYqvq1yaFhg/NWojyvY3V3eLaHfABOXUVfdnYlnfsxORtf9cd0QHEqaOdFvqT7MmrDjEodangDEs2fsq2g6qeuX3NMIfZIUGT62wjBFiuI4XlM6ZA==","691f8ca61c6b4dcbb0aeb5f4","691fbef77b922f3d581e7cd5","index1","<span style='color:red'>Fail,<span style='color:red'>Fail,<span style='color:green'>Lift,<span style='color:green'>Lift,<span style='color:red'>Fail,<span style='color:red'>Fail,<span style='color:red'>Fail,<span style='color:red'>Fail,<span style='color:red'>Fail,<span style='color:green'>Lift,<span style='color:green'>Lift,<span style='color:red'>Fail","<span style='color:red'>Fail,<span style='color:red'>Fail,<span style='color:green'>Lift,<span style='color:green'>Lift,<span style='color:green'>Lift,<span style='color:green'>Lift,<span style='color:green'>Lift,<span style='color:red'>Fail,<span style='color:green'>Lift,<span style='color:green'>Lift,<span style='color:green'>Lift,<span style='color:red'>Fail","<span style='color:red'>Fail,<span style='color:green'>Lift,<span style='color:green'>Lift,<span style='color:red'>Fail,<span style='color:green'>Lift,<span style='color:green'>Lift","0,0,1,1,0,0,0,0,0,1,1,0","0,0,1,1,1,1,1,0,1,1,1,0","0,1,1,0,1,1",10,20,20,"","","<p style='font-size:30px'><b> New Contest! </b></p>","null","","",3,"",NA,NA,NA,NA,NA,NA,NA,NA,NA,NA,NA,NA,NA,NA,NA,NA,NA,NA,NA,NA,NA,NA,NA,NA,NA,NA,NA,NA,NA,NA,NA,NA,NA,NA,NA,NA,NA,NA,NA,"",NA,NA,NA,NA,NA,NA,NA,NA,NA,2025-11-21 01:46:02
"41060.79999923706","https://psyc-201.github.io/xiang2023/exp/index1.html?PROLIFIC_PID=REDACTED&STUDY_ID=691f8ca61c6b4dcbb0aeb5f4&SESSION_ID=691fbef77b922f3d581e7cd5","survey-html-form",20,647212,"0.0-326.0","dFWNX7ZA0Fyyp55RFdWa8sWD2XhxatexJXmB+bPKc42sdmVe8mMW47Xiwgzeim4uxZ7FWY1A/KySF9MUQrQFb05GNfCdkDFSWwlyE7YL39okdO5SjLe+CyfA5l5nw7DtoyKSHeL7XvqUETyXhBgKromyCeGDAr05PLTm8AqpJIeuEIi3hfilkCOXdQaWN/nP3ig2NrtldzTRZNNrKkgcWQmPpzSfVIltfsvmNVYqvq1yaFhg/NWojyvY3V3eLaHfABOXUVfdnYlnfsxORtf9cd0QHEqaOdFvqT7MmrDjEodangDEs2fsq2g6qeuX3NMIfZIUGT62wjBFiuI4XlM6ZA==","691f8ca61c6b4dcbb0aeb5f4","691fbef77b922f3d581e7cd5","index1","<span style='color:red'>Fail,<span style='color:red'>Fail,<span style='color:green'>Lift,<span style='color:green'>Lift,<span style='color:red'>Fail,<span style='color:red'>Fail,<span style='color:red'>Fail,<span style='color:red'>Fail,<span style='color:red'>Fail,<span style='color:green'>Lift,<span style='color:green'>Lift,<span style='color:red'>Fail","<span style='color:red'>Fail,<span style='color:red'>Fail,<span style='color:green'>Lift,<span style='color:green'>Lift,<span style='color:green'>Lift,<span style='color:green'>Lift,<span style='color:green'>Lift,<span style='color:red'>Fail,<span style='color:green'>Lift,<span style='color:green'>Lift,<span style='color:green'>Lift,<span style='color:red'>Fail","<span style='color:red'>Fail,<span style='color:green'>Lift,<span style='color:green'>Lift,<span style='color:red'>Fail,<span style='color:green'>Lift,<span style='color:green'>Lift","0,0,1,1,0,0,0,0,0,1,1,0","0,0,1,1,1,1,1,0,1,1,1,0","0,1,1,0,1,1",10,20,20,"","","","","{""box1"":""4"",""box2"":""7"",""box4"":""50""}","",3,"round1_outcome",1,3,1,4,7,NA,50,0,1,10,4,7,NA,50,0,1,10,NA,NA,NA,NA,NA,NA,NA,NA,NA,NA,NA,NA,NA,NA,NA,NA,NA,NA,NA,NA,NA,NA,"",NA,NA,NA,NA,NA,NA,NA,NA,NA,2025-11-21 01:46:02
"25963.5","https://psyc-201.github.io/xiang2023/exp/index1.html?PROLIFIC_PID=REDACTED&STUDY_ID=691f8ca61c6b4dcbb0aeb5f4&SESSION_ID=691fbef77b922f3d581e7cd5","survey-html-form",21,673178,"0.0-327.0","dFWNX7ZA0Fyyp55RFdWa8sWD2XhxatexJXmB+bPKc42sdmVe8mMW47Xiwgzeim4uxZ7FWY1A/KySF9MUQrQFb05GNfCdkDFSWwlyE7YL39okdO5SjLe+CyfA5l5nw7DtoyKSHeL7XvqUETyXhBgKromyCeGDAr05PLTm8AqpJIeuEIi3hfilkCOXdQaWN/nP3ig2NrtldzTRZNNrKkgcWQmPpzSfVIltfsvmNVYqvq1yaFhg/NWojyvY3V3eLaHfABOXUVfdnYlnfsxORtf9cd0QHEqaOdFvqT7MmrDjEodangDEs2fsq2g6qeuX3NMIfZIUGT62wjBFiuI4XlM6ZA==","691f8ca61c6b4dcbb0aeb5f4","691fbef77b922f3d581e7cd5","index1","<span style='color:red'>Fail,<span style='color:red'>Fail,<span style='color:green'>Lift,<span style='color:green'>Lift,<span style='color:red'>Fail,<span style='color:red'>Fail,<span style='color:red'>Fail,<span style='color:red'>Fail,<span style='color:red'>Fail,<span style='color:green'>Lift,<span style='color:green'>Lift,<span style='color:red'>Fail","<span style='color:red'>Fail,<span style='color:red'>Fail,<span style='color:green'>Lift,<span style='color:green'>Lift,<span style='color:green'>Lift,<span style='color:green'>Lift,<span style='color:green'>Lift,<span style='color:red'>Fail,<span style='color:green'>Lift,<span style='color:green'>Lift,<span style='color:green'>Lift,<span style='color:red'>Fail","<span style='color:red'>Fail,<span style='color:green'>Lift,<span style='color:green'>Lift,<span style='color:red'>Fail,<span style='color:green'>Lift,<span style='color:green'>Lift","0,0,1,1,0,0,0,0,0,1,1,0","0,0,1,1,1,1,1,0,1,1,1,0","0,1,1,0,1,1",10,20,20,"","","","","{""box1"":""70"",""box2"":""95""}","",3,"round2_ready",2,3,2,NA,NA,NA,NA,NA,NA,NA,NA,NA,NA,NA,NA,NA,NA,70,95,70,95,NA,NA,NA,NA,NA,NA,NA,NA,NA,NA,NA,NA,NA,NA,NA,NA,NA,NA,"",NA,NA,NA,NA,NA,NA,NA,NA,NA,2025-11-21 01:46:02
"41715.5","https://psyc-201.github.io/xiang2023/exp/index1.html?PROLIFIC_PID=REDACTED&STUDY_ID=691f8ca61c6b4dcbb0aeb5f4&SESSION_ID=691fbef77b922f3d581e7cd5","survey-html-form",22,714894,"0.0-328.0","dFWNX7ZA0Fyyp55RFdWa8sWD2XhxatexJXmB+bPKc42sdmVe8mMW47Xiwgzeim4uxZ7FWY1A/KySF9MUQrQFb05GNfCdkDFSWwlyE7YL39okdO5SjLe+CyfA5l5nw7DtoyKSHeL7XvqUETyXhBgKromyCeGDAr05PLTm8AqpJIeuEIi3hfilkCOXdQaWN/nP3ig2NrtldzTRZNNrKkgcWQmPpzSfVIltfsvmNVYqvq1yaFhg/NWojyvY3V3eLaHfABOXUVfdnYlnfsxORtf9cd0QHEqaOdFvqT7MmrDjEodangDEs2fsq2g6qeuX3NMIfZIUGT62wjBFiuI4XlM6ZA==","691f8ca61c6b4dcbb0aeb5f4","691fbef77b922f3d581e7cd5","index1","<span style='color:red'>Fail,<span style='color:red'>Fail,<span style='color:green'>Lift,<span style='color:green'>Lift,<span style='color:red'>Fail,<span style='color:red'>Fail,<span style='color:red'>Fail,<span style='color:red'>Fail,<span style='color:red'>Fail,<span style='color:green'>Lift,<span style='color:green'>Lift,<span style='color:red'>Fail","<span style='color:red'>Fail,<span style='color:red'>Fail,<span style='color:green'>Lift,<span style='color:green'>Lift,<span style='color:green'>Lift,<span style='color:green'>Lift,<span style='color:green'>Lift,<span style='color:red'>Fail,<span style='color:green'>Lift,<span style='color:green'>Lift,<span style='color:green'>Lift,<span style='color:red'>Fail","<span style='color:red'>Fail,<span style='color:green'>Lift,<span style='color:green'>Lift,<span style='color:red'>Fail,<span style='color:green'>Lift,<span style='color:green'>Lift","0,0,1,1,0,0,0,0,0,1,1,0","0,0,1,1,1,1,1,0,1,1,1,0","0,1,1,0,1,1",10,20,20,"","","","","{""box1"":""5"",""box2"":""8"",""box3"":""100"",""box4"":""60""}","",3,"round2_outcome",3,3,2,5,8,100,60,1,1,20,NA,NA,NA,NA,NA,NA,NA,NA,NA,NA,NA,5,8,100,60,1,1,20,NA,NA,NA,NA,NA,NA,NA,NA,NA,NA,NA,"",NA,NA,NA,NA,NA,NA,NA,NA,NA,2025-11-21 01:46:02
"23931.400000572205","https://psyc-201.github.io/xiang2023/exp/index1.html?PROLIFIC_PID=REDACTED&STUDY_ID=691f8ca61c6b4dcbb0aeb5f4&SESSION_ID=691fbef77b922f3d581e7cd5","survey-html-form",23,738827,"0.0-329.0","dFWNX7ZA0Fyyp55RFdWa8sWD2XhxatexJXmB+bPKc42sdmVe8mMW47Xiwgzeim4uxZ7FWY1A/KySF9MUQrQFb05GNfCdkDFSWwlyE7YL39okdO5SjLe+CyfA5l5nw7DtoyKSHeL7XvqUETyXhBgKromyCeGDAr05PLTm8AqpJIeuEIi3hfilkCOXdQaWN/nP3ig2NrtldzTRZNNrKkgcWQmPpzSfVIltfsvmNVYqvq1yaFhg/NWojyvY3V3eLaHfABOXUVfdnYlnfsxORtf9cd0QHEqaOdFvqT7MmrDjEodangDEs2fsq2g6qeuX3NMIfZIUGT62wjBFiuI4XlM6ZA==","691f8ca61c6b4dcbb0aeb5f4","691fbef77b922f3d581e7cd5","index1","<span style='color:red'>Fail,<span style='color:red'>Fail,<span style='color:green'>Lift,<span style='color:green'>Lift,<span style='color:red'>Fail,<span style='color:red'>Fail,<span style='color:red'>Fail,<span style='color:red'>Fail,<span style='color:red'>Fail,<span style='color:green'>Lift,<span style='color:green'>Lift,<span style='color:red'>Fail","<span style='color:red'>Fail,<span style='color:red'>Fail,<span style='color:green'>Lift,<span style='color:green'>Lift,<span style='color:green'>Lift,<span style='color:green'>Lift,<span style='color:green'>Lift,<span style='color:red'>Fail,<span style='color:green'>Lift,<span style='color:green'>Lift,<span style='color:green'>Lift,<span style='color:red'>Fail","<span style='color:red'>Fail,<span style='color:green'>Lift,<span style='color:green'>Lift,<span style='color:red'>Fail,<span style='color:green'>Lift,<span style='color:green'>Lift","0,0,1,1,0,0,0,0,0,1,1,0","0,0,1,1,1,1,1,0,1,1,1,0","0,1,1,0,1,1",10,20,20,"","","","","{""box1"":""95""}","",3,"round3_ready",4,3,3,NA,NA,NA,NA,NA,NA,NA,NA,NA,NA,NA,NA,NA,NA,95,95,NA,NA,NA,NA,NA,NA,NA,NA,NA,95,95,NA,NA,NA,NA,NA,NA,NA,NA,NA,"",NA,NA,NA,NA,NA,NA,NA,NA,NA,2025-11-21 01:46:02
"42648.699999809265","https://psyc-201.github.io/xiang2023/exp/index1.html?PROLIFIC_PID=REDACTED&STUDY_ID=691f8ca61c6b4dcbb0aeb5f4&SESSION_ID=691fbef77b922f3d581e7cd5","survey-html-form",24,781477,"0.0-330.0-0.0","dFWNX7ZA0Fyyp55RFdWa8sWD2XhxatexJXmB+bPKc42sdmVe8mMW47Xiwgzeim4uxZ7FWY1A/KySF9MUQrQFb05GNfCdkDFSWwlyE7YL39okdO5SjLe+CyfA5l5nw7DtoyKSHeL7XvqUETyXhBgKromyCeGDAr05PLTm8AqpJIeuEIi3hfilkCOXdQaWN/nP3ig2NrtldzTRZNNrKkgcWQmPpzSfVIltfsvmNVYqvq1yaFhg/NWojyvY3V3eLaHfABOXUVfdnYlnfsxORtf9cd0QHEqaOdFvqT7MmrDjEodangDEs2fsq2g6qeuX3NMIfZIUGT62wjBFiuI4XlM6ZA==","691f8ca61c6b4dcbb0aeb5f4","691fbef77b922f3d581e7cd5","index1","<span style='color:red'>Fail,<span style='color:red'>Fail,<span style='color:green'>Lift,<span style='color:green'>Lift,<span style='color:red'>Fail,<span style='color:red'>Fail,<span style='color:red'>Fail,<span style='color:red'>Fail,<span style='color:red'>Fail,<span style='color:green'>Lift,<span style='color:green'>Lift,<span style='color:red'>Fail","<span style='color:red'>Fail,<span style='color:red'>Fail,<span style='color:green'>Lift,<span style='color:green'>Lift,<span style='color:green'>Lift,<span style='color:green'>Lift,<span style='color:green'>Lift,<span style='color:red'>Fail,<span style='color:green'>Lift,<span style='color:green'>Lift,<span style='color:green'>Lift,<span style='color:red'>Fail","<span style='color:red'>Fail,<span style='color:green'>Lift,<span style='color:green'>Lift,<span style='color:red'>Fail,<span style='color:green'>Lift,<span style='color:green'>Lift","0,0,1,1,0,0,0,0,0,1,1,0","0,0,1,1,1,1,1,0,1,1,1,0","0,1,1,0,1,1",10,20,20,"","","","","{""box1"":""5"",""box2"":""8"",""box3"":""70"",""box4"":""45""}","",4,"round3_lift",5,3,3,5,8,70,45,1,1,20,NA,NA,NA,NA,NA,NA,NA,NA,NA,NA,NA,NA,NA,NA,NA,NA,NA,NA,NA,NA,NA,NA,5,8,1,1,20,70,45,"",NA,NA,NA,NA,NA,NA,NA,NA,NA,2025-11-21 01:46:02
"null","https://psyc-201.github.io/xiang2023/exp/index1.html?PROLIFIC_PID=REDACTED&STUDY_ID=691f8ca61c6b4dcbb0aeb5f4&SESSION_ID=691fbef77b922f3d581e7cd5","html-keyboard-response",25,784481,"0.0-334.0","dFWNX7ZA0Fyyp55RFdWa8sWD2XhxatexJXmB+bPKc42sdmVe8mMW47Xiwgzeim4uxZ7FWY1A/KySF9MUQrQFb05GNfCdkDFSWwlyE7YL39okdO5SjLe+CyfA5l5nw7DtoyKSHeL7XvqUETyXhBgKromyCeGDAr05PLTm8AqpJIeuEIi3hfilkCOXdQaWN/nP3ig2NrtldzTRZNNrKkgcWQmPpzSfVIltfsvmNVYqvq1yaFhg/NWojyvY3V3eLaHfABOXUVfdnYlnfsxORtf9cd0QHEqaOdFvqT7MmrDjEodangDEs2fsq2g6qeuX3NMIfZIUGT62wjBFiuI4XlM6ZA==","691f8ca61c6b4dcbb0aeb5f4","691fbef77b922f3d581e7cd5","index1","<span style='color:red'>Fail,<span style='color:red'>Fail,<span style='color:green'>Lift,<span style='color:green'>Lift,<span style='color:red'>Fail,<span style='color:red'>Fail,<span style='color:red'>Fail,<span style='color:red'>Fail,<span style='color:red'>Fail,<span style='color:green'>Lift,<span style='color:green'>Lift,<span style='color:red'>Fail","<span style='color:red'>Fail,<span style='color:red'>Fail,<span style='color:green'>Lift,<span style='color:green'>Lift,<span style='color:green'>Lift,<span style='color:green'>Lift,<span style='color:green'>Lift,<span style='color:red'>Fail,<span style='color:green'>Lift,<span style='color:green'>Lift,<span style='color:green'>Lift,<span style='color:red'>Fail","<span style='color:red'>Fail,<span style='color:green'>Lift,<span style='color:green'>Lift,<span style='color:red'>Fail,<span style='color:green'>Lift,<span style='color:green'>Lift","0,0,1,1,0,0,0,0,0,1,1,0","0,0,1,1,1,1,1,0,1,1,1,0","0,1,1,0,1,1",10,20,20,"","","<p style='font-size:30px'><b> New Contest! </b></p>","null","","",4,"",NA,NA,NA,NA,NA,NA,NA,NA,NA,NA,NA,NA,NA,NA,NA,NA,NA,NA,NA,NA,NA,NA,NA,NA,NA,NA,NA,NA,NA,NA,NA,NA,NA,NA,NA,NA,NA,NA,NA,"",NA,NA,NA,NA,NA,NA,NA,NA,NA,2025-11-21 01:46:02
"50893.099999427795","https://psyc-201.github.io/xiang2023/exp/index1.html?PROLIFIC_PID=REDACTED&STUDY_ID=691f8ca61c6b4dcbb0aeb5f4&SESSION_ID=691fbef77b922f3d581e7cd5","survey-html-form",26,835376,"0.0-335.0","dFWNX7ZA0Fyyp55RFdWa8sWD2XhxatexJXmB+bPKc42sdmVe8mMW47Xiwgzeim4uxZ7FWY1A/KySF9MUQrQFb05GNfCdkDFSWwlyE7YL39okdO5SjLe+CyfA5l5nw7DtoyKSHeL7XvqUETyXhBgKromyCeGDAr05PLTm8AqpJIeuEIi3hfilkCOXdQaWN/nP3ig2NrtldzTRZNNrKkgcWQmPpzSfVIltfsvmNVYqvq1yaFhg/NWojyvY3V3eLaHfABOXUVfdnYlnfsxORtf9cd0QHEqaOdFvqT7MmrDjEodangDEs2fsq2g6qeuX3NMIfZIUGT62wjBFiuI4XlM6ZA==","691f8ca61c6b4dcbb0aeb5f4","691fbef77b922f3d581e7cd5","index1","<span style='color:red'>Fail,<span style='color:red'>Fail,<span style='color:green'>Lift,<span style='color:green'>Lift,<span style='color:red'>Fail,<span style='color:red'>Fail,<span style='color:red'>Fail,<span style='color:red'>Fail,<span style='color:red'>Fail,<span style='color:green'>Lift,<span style='color:green'>Lift,<span style='color:red'>Fail","<span style='color:red'>Fail,<span style='color:red'>Fail,<span style='color:green'>Lift,<span style='color:green'>Lift,<span style='color:green'>Lift,<span style='color:green'>Lift,<span style='color:green'>Lift,<span style='color:red'>Fail,<span style='color:green'>Lift,<span style='color:green'>Lift,<span style='color:green'>Lift,<span style='color:red'>Fail","<span style='color:red'>Fail,<span style='color:green'>Lift,<span style='color:green'>Lift,<span style='color:red'>Fail,<span style='color:green'>Lift,<span style='color:green'>Lift","0,0,1,1,0,0,0,0,0,1,1,0","0,0,1,1,1,1,1,0,1,1,1,0","0,1,1,0,1,1",10,20,20,"","","","","{""box1"":""8"",""box2"":""4"",""box3"":""60""}","",4,"round1_outcome",1,4,1,8,4,60,NA,1,0,10,8,4,60,NA,1,0,10,NA,NA,NA,NA,NA,NA,NA,NA,NA,NA,NA,NA,NA,NA,NA,NA,NA,NA,NA,NA,NA,NA,"",NA,NA,NA,NA,NA,NA,NA,NA,NA,2025-11-21 01:46:02
"21997.70000076294","https://psyc-201.github.io/xiang2023/exp/index1.html?PROLIFIC_PID=REDACTED&STUDY_ID=691f8ca61c6b4dcbb0aeb5f4&SESSION_ID=691fbef77b922f3d581e7cd5","survey-html-form",27,857375,"0.0-336.0","dFWNX7ZA0Fyyp55RFdWa8sWD2XhxatexJXmB+bPKc42sdmVe8mMW47Xiwgzeim4uxZ7FWY1A/KySF9MUQrQFb05GNfCdkDFSWwlyE7YL39okdO5SjLe+CyfA5l5nw7DtoyKSHeL7XvqUETyXhBgKromyCeGDAr05PLTm8AqpJIeuEIi3hfilkCOXdQaWN/nP3ig2NrtldzTRZNNrKkgcWQmPpzSfVIltfsvmNVYqvq1yaFhg/NWojyvY3V3eLaHfABOXUVfdnYlnfsxORtf9cd0QHEqaOdFvqT7MmrDjEodangDEs2fsq2g6qeuX3NMIfZIUGT62wjBFiuI4XlM6ZA==","691f8ca61c6b4dcbb0aeb5f4","691fbef77b922f3d581e7cd5","index1","<span style='color:red'>Fail,<span style='color:red'>Fail,<span style='color:green'>Lift,<span style='color:green'>Lift,<span style='color:red'>Fail,<span style='color:red'>Fail,<span style='color:red'>Fail,<span style='color:red'>Fail,<span style='color:red'>Fail,<span style='color:green'>Lift,<span style='color:green'>Lift,<span style='color:red'>Fail","<span style='color:red'>Fail,<span style='color:red'>Fail,<span style='color:green'>Lift,<span style='color:green'>Lift,<span style='color:green'>Lift,<span style='color:green'>Lift,<span style='color:green'>Lift,<span style='color:red'>Fail,<span style='color:green'>Lift,<span style='color:green'>Lift,<span style='color:green'>Lift,<span style='color:red'>Fail","<span style='color:red'>Fail,<span style='color:green'>Lift,<span style='color:green'>Lift,<span style='color:red'>Fail,<span style='color:green'>Lift,<span style='color:green'>Lift","0,0,1,1,0,0,0,0,0,1,1,0","0,0,1,1,1,1,1,0,1,1,1,0","0,1,1,0,1,1",10,20,20,"","","","","{""box1"":""95"",""box2"":""60""}","",4,"round2_ready",2,4,2,NA,NA,NA,NA,NA,NA,NA,NA,NA,NA,NA,NA,NA,NA,95,60,95,60,NA,NA,NA,NA,NA,NA,NA,NA,NA,NA,NA,NA,NA,NA,NA,NA,NA,NA,"",NA,NA,NA,NA,NA,NA,NA,NA,NA,2025-11-21 01:46:02
"30547.60000038147","https://psyc-201.github.io/xiang2023/exp/index1.html?PROLIFIC_PID=REDACTED&STUDY_ID=691f8ca61c6b4dcbb0aeb5f4&SESSION_ID=691fbef77b922f3d581e7cd5","survey-html-form",28,887925,"0.0-337.0","dFWNX7ZA0Fyyp55RFdWa8sWD2XhxatexJXmB+bPKc42sdmVe8mMW47Xiwgzeim4uxZ7FWY1A/KySF9MUQrQFb05GNfCdkDFSWwlyE7YL39okdO5SjLe+CyfA5l5nw7DtoyKSHeL7XvqUETyXhBgKromyCeGDAr05PLTm8AqpJIeuEIi3hfilkCOXdQaWN/nP3ig2NrtldzTRZNNrKkgcWQmPpzSfVIltfsvmNVYqvq1yaFhg/NWojyvY3V3eLaHfABOXUVfdnYlnfsxORtf9cd0QHEqaOdFvqT7MmrDjEodangDEs2fsq2g6qeuX3NMIfZIUGT62wjBFiuI4XlM6ZA==","691f8ca61c6b4dcbb0aeb5f4","691fbef77b922f3d581e7cd5","index1","<span style='color:red'>Fail,<span style='color:red'>Fail,<span style='color:green'>Lift,<span style='color:green'>Lift,<span style='color:red'>Fail,<span style='color:red'>Fail,<span style='color:red'>Fail,<span style='color:red'>Fail,<span style='color:red'>Fail,<span style='color:green'>Lift,<span style='color:green'>Lift,<span style='color:red'>Fail","<span style='color:red'>Fail,<span style='color:red'>Fail,<span style='color:green'>Lift,<span style='color:green'>Lift,<span style='color:green'>Lift,<span style='color:green'>Lift,<span style='color:green'>Lift,<span style='color:red'>Fail,<span style='color:green'>Lift,<span style='color:green'>Lift,<span style='color:green'>Lift,<span style='color:red'>Fail","<span style='color:red'>Fail,<span style='color:green'>Lift,<span style='color:green'>Lift,<span style='color:red'>Fail,<span style='color:green'>Lift,<span style='color:green'>Lift","0,0,1,1,0,0,0,0,0,1,1,0","0,0,1,1,1,1,1,0,1,1,1,0","0,1,1,0,1,1",10,20,20,"","","","","{""box1"":""8"",""box2"":""4"",""box3"":""50""}","",4,"round2_outcome",3,4,2,8,4,50,NA,1,0,20,NA,NA,NA,NA,NA,NA,NA,NA,NA,NA,NA,8,4,50,NA,1,0,20,NA,NA,NA,NA,NA,NA,NA,NA,NA,NA,NA,"",NA,NA,NA,NA,NA,NA,NA,NA,NA,2025-11-21 01:46:02
"52914.39999961853","https://psyc-201.github.io/xiang2023/exp/index1.html?PROLIFIC_PID=REDACTED&STUDY_ID=691f8ca61c6b4dcbb0aeb5f4&SESSION_ID=691fbef77b922f3d581e7cd5","survey-html-form",29,940839,"0.0-338.0","dFWNX7ZA0Fyyp55RFdWa8sWD2XhxatexJXmB+bPKc42sdmVe8mMW47Xiwgzeim4uxZ7FWY1A/KySF9MUQrQFb05GNfCdkDFSWwlyE7YL39okdO5SjLe+CyfA5l5nw7DtoyKSHeL7XvqUETyXhBgKromyCeGDAr05PLTm8AqpJIeuEIi3hfilkCOXdQaWN/nP3ig2NrtldzTRZNNrKkgcWQmPpzSfVIltfsvmNVYqvq1yaFhg/NWojyvY3V3eLaHfABOXUVfdnYlnfsxORtf9cd0QHEqaOdFvqT7MmrDjEodangDEs2fsq2g6qeuX3NMIfZIUGT62wjBFiuI4XlM6ZA==","691f8ca61c6b4dcbb0aeb5f4","691fbef77b922f3d581e7cd5","index1","<span style='color:red'>Fail,<span style='color:red'>Fail,<span style='color:green'>Lift,<span style='color:green'>Lift,<span style='color:red'>Fail,<span style='color:red'>Fail,<span style='color:red'>Fail,<span style='color:red'>Fail,<span style='color:red'>Fail,<span style='color:green'>Lift,<span style='color:green'>Lift,<span style='color:red'>Fail","<span style='color:red'>Fail,<span style='color:red'>Fail,<span style='color:green'>Lift,<span style='color:green'>Lift,<span style='color:green'>Lift,<span style='color:green'>Lift,<span style='color:green'>Lift,<span style='color:red'>Fail,<span style='color:green'>Lift,<span style='color:green'>Lift,<span style='color:green'>Lift,<span style='color:red'>Fail","<span style='color:red'>Fail,<span style='color:green'>Lift,<span style='color:green'>Lift,<span style='color:red'>Fail,<span style='color:green'>Lift,<span style='color:green'>Lift","0,0,1,1,0,0,0,0,0,1,1,0","0,0,1,1,1,1,1,0,1,1,1,0","0,1,1,0,1,1",10,20,20,"","","","","{""box1"":""96""}","",4,"round3_ready",4,4,3,NA,NA,NA,NA,NA,NA,NA,NA,NA,NA,NA,NA,NA,NA,96,96,NA,NA,NA,NA,NA,NA,NA,NA,NA,96,96,NA,NA,NA,NA,NA,NA,NA,NA,NA,"",NA,NA,NA,NA,NA,NA,NA,NA,NA,2025-11-21 01:46:02
"35083.89999961853","https://psyc-201.github.io/xiang2023/exp/index1.html?PROLIFIC_PID=REDACTED&STUDY_ID=691f8ca61c6b4dcbb0aeb5f4&SESSION_ID=691fbef77b922f3d581e7cd5","survey-html-form",30,975925,"0.0-339.0-0.0","dFWNX7ZA0Fyyp55RFdWa8sWD2XhxatexJXmB+bPKc42sdmVe8mMW47Xiwgzeim4uxZ7FWY1A/KySF9MUQrQFb05GNfCdkDFSWwlyE7YL39okdO5SjLe+CyfA5l5nw7DtoyKSHeL7XvqUETyXhBgKromyCeGDAr05PLTm8AqpJIeuEIi3hfilkCOXdQaWN/nP3ig2NrtldzTRZNNrKkgcWQmPpzSfVIltfsvmNVYqvq1yaFhg/NWojyvY3V3eLaHfABOXUVfdnYlnfsxORtf9cd0QHEqaOdFvqT7MmrDjEodangDEs2fsq2g6qeuX3NMIfZIUGT62wjBFiuI4XlM6ZA==","691f8ca61c6b4dcbb0aeb5f4","691fbef77b922f3d581e7cd5","index1","<span style='color:red'>Fail,<span style='color:red'>Fail,<span style='color:green'>Lift,<span style='color:green'>Lift,<span style='color:red'>Fail,<span style='color:red'>Fail,<span style='color:red'>Fail,<span style='color:red'>Fail,<span style='color:red'>Fail,<span style='color:green'>Lift,<span style='color:green'>Lift,<span style='color:red'>Fail","<span style='color:red'>Fail,<span style='color:red'>Fail,<span style='color:green'>Lift,<span style='color:green'>Lift,<span style='color:green'>Lift,<span style='color:green'>Lift,<span style='color:green'>Lift,<span style='color:red'>Fail,<span style='color:green'>Lift,<span style='color:green'>Lift,<span style='color:green'>Lift,<span style='color:red'>Fail","<span style='color:red'>Fail,<span style='color:green'>Lift,<span style='color:green'>Lift,<span style='color:red'>Fail,<span style='color:green'>Lift,<span style='color:green'>Lift","0,0,1,1,0,0,0,0,0,1,1,0","0,0,1,1,1,1,1,0,1,1,1,0","0,1,1,0,1,1",10,20,20,"","","","","{""box1"":""8"",""box2"":""4"",""box3"":""55"",""box4"":""100""}","",5,"round3_lift",5,4,3,8,4,55,100,1,1,20,NA,NA,NA,NA,NA,NA,NA,NA,NA,NA,NA,NA,NA,NA,NA,NA,NA,NA,NA,NA,NA,NA,8,4,1,1,20,55,100,"",NA,NA,NA,NA,NA,NA,NA,NA,NA,2025-11-21 01:46:02
"null","https://psyc-201.github.io/xiang2023/exp/index1.html?PROLIFIC_PID=REDACTED&STUDY_ID=691f8ca61c6b4dcbb0aeb5f4&SESSION_ID=691fbef77b922f3d581e7cd5","html-keyboard-response",31,978929,"0.0-343.0","dFWNX7ZA0Fyyp55RFdWa8sWD2XhxatexJXmB+bPKc42sdmVe8mMW47Xiwgzeim4uxZ7FWY1A/KySF9MUQrQFb05GNfCdkDFSWwlyE7YL39okdO5SjLe+CyfA5l5nw7DtoyKSHeL7XvqUETyXhBgKromyCeGDAr05PLTm8AqpJIeuEIi3hfilkCOXdQaWN/nP3ig2NrtldzTRZNNrKkgcWQmPpzSfVIltfsvmNVYqvq1yaFhg/NWojyvY3V3eLaHfABOXUVfdnYlnfsxORtf9cd0QHEqaOdFvqT7MmrDjEodangDEs2fsq2g6qeuX3NMIfZIUGT62wjBFiuI4XlM6ZA==","691f8ca61c6b4dcbb0aeb5f4","691fbef77b922f3d581e7cd5","index1","<span style='color:red'>Fail,<span style='color:red'>Fail,<span style='color:green'>Lift,<span style='color:green'>Lift,<span style='color:red'>Fail,<span style='color:red'>Fail,<span style='color:red'>Fail,<span style='color:red'>Fail,<span style='color:red'>Fail,<span style='color:green'>Lift,<span style='color:green'>Lift,<span style='color:red'>Fail","<span style='color:red'>Fail,<span style='color:red'>Fail,<span style='color:green'>Lift,<span style='color:green'>Lift,<span style='color:green'>Lift,<span style='color:green'>Lift,<span style='color:green'>Lift,<span style='color:red'>Fail,<span style='color:green'>Lift,<span style='color:green'>Lift,<span style='color:green'>Lift,<span style='color:red'>Fail","<span style='color:red'>Fail,<span style='color:green'>Lift,<span style='color:green'>Lift,<span style='color:red'>Fail,<span style='color:green'>Lift,<span style='color:green'>Lift","0,0,1,1,0,0,0,0,0,1,1,0","0,0,1,1,1,1,1,0,1,1,1,0","0,1,1,0,1,1",10,20,20,"","","<p style='font-size:30px'><b> New Contest! </b></p>","null","","",5,"",NA,NA,NA,NA,NA,NA,NA,NA,NA,NA,NA,NA,NA,NA,NA,NA,NA,NA,NA,NA,NA,NA,NA,NA,NA,NA,NA,NA,NA,NA,NA,NA,NA,NA,NA,NA,NA,NA,NA,"",NA,NA,NA,NA,NA,NA,NA,NA,NA,2025-11-21 01:46:02
"46175.39999961853","https://psyc-201.github.io/xiang2023/exp/index1.html?PROLIFIC_PID=REDACTED&STUDY_ID=691f8ca61c6b4dcbb0aeb5f4&SESSION_ID=691fbef77b922f3d581e7cd5","survey-html-form",32,1025106,"0.0-344.0","dFWNX7ZA0Fyyp55RFdWa8sWD2XhxatexJXmB+bPKc42sdmVe8mMW47Xiwgzeim4uxZ7FWY1A/KySF9MUQrQFb05GNfCdkDFSWwlyE7YL39okdO5SjLe+CyfA5l5nw7DtoyKSHeL7XvqUETyXhBgKromyCeGDAr05PLTm8AqpJIeuEIi3hfilkCOXdQaWN/nP3ig2NrtldzTRZNNrKkgcWQmPpzSfVIltfsvmNVYqvq1yaFhg/NWojyvY3V3eLaHfABOXUVfdnYlnfsxORtf9cd0QHEqaOdFvqT7MmrDjEodangDEs2fsq2g6qeuX3NMIfZIUGT62wjBFiuI4XlM6ZA==","691f8ca61c6b4dcbb0aeb5f4","691fbef77b922f3d581e7cd5","index1","<span style='color:red'>Fail,<span style='color:red'>Fail,<span style='color:green'>Lift,<span style='color:green'>Lift,<span style='color:red'>Fail,<span style='color:red'>Fail,<span style='color:red'>Fail,<span style='color:red'>Fail,<span style='color:red'>Fail,<span style='color:green'>Lift,<span style='color:green'>Lift,<span style='color:red'>Fail","<span style='color:red'>Fail,<span style='color:red'>Fail,<span style='color:green'>Lift,<span style='color:green'>Lift,<span style='color:green'>Lift,<span style='color:green'>Lift,<span style='color:green'>Lift,<span style='color:red'>Fail,<span style='color:green'>Lift,<span style='color:green'>Lift,<span style='color:green'>Lift,<span style='color:red'>Fail","<span style='color:red'>Fail,<span style='color:green'>Lift,<span style='color:green'>Lift,<span style='color:red'>Fail,<span style='color:green'>Lift,<span style='color:green'>Lift","0,0,1,1,0,0,0,0,0,1,1,0","0,0,1,1,1,1,1,0,1,1,1,0","0,1,1,0,1,1",10,20,20,"","","","","{""box1"":""8"",""box2"":""8"",""box3"":""45"",""box4"":""55""}","",5,"round1_outcome",1,5,1,8,8,45,55,1,1,10,8,8,45,55,1,1,10,NA,NA,NA,NA,NA,NA,NA,NA,NA,NA,NA,NA,NA,NA,NA,NA,NA,NA,NA,NA,NA,NA,"",NA,NA,NA,NA,NA,NA,NA,NA,NA,2025-11-21 01:46:02
"23463","https://psyc-201.github.io/xiang2023/exp/index1.html?PROLIFIC_PID=REDACTED&STUDY_ID=691f8ca61c6b4dcbb0aeb5f4&SESSION_ID=691fbef77b922f3d581e7cd5","survey-html-form",33,1048571,"0.0-345.0","dFWNX7ZA0Fyyp55RFdWa8sWD2XhxatexJXmB+bPKc42sdmVe8mMW47Xiwgzeim4uxZ7FWY1A/KySF9MUQrQFb05GNfCdkDFSWwlyE7YL39okdO5SjLe+CyfA5l5nw7DtoyKSHeL7XvqUETyXhBgKromyCeGDAr05PLTm8AqpJIeuEIi3hfilkCOXdQaWN/nP3ig2NrtldzTRZNNrKkgcWQmPpzSfVIltfsvmNVYqvq1yaFhg/NWojyvY3V3eLaHfABOXUVfdnYlnfsxORtf9cd0QHEqaOdFvqT7MmrDjEodangDEs2fsq2g6qeuX3NMIfZIUGT62wjBFiuI4XlM6ZA==","691f8ca61c6b4dcbb0aeb5f4","691fbef77b922f3d581e7cd5","index1","<span style='color:red'>Fail,<span style='color:red'>Fail,<span style='color:green'>Lift,<span style='color:green'>Lift,<span style='color:red'>Fail,<span style='color:red'>Fail,<span style='color:red'>Fail,<span style='color:red'>Fail,<span style='color:red'>Fail,<span style='color:green'>Lift,<span style='color:green'>Lift,<span style='color:red'>Fail","<span style='color:red'>Fail,<span style='color:red'>Fail,<span style='color:green'>Lift,<span style='color:green'>Lift,<span style='color:green'>Lift,<span style='color:green'>Lift,<span style='color:green'>Lift,<span style='color:red'>Fail,<span style='color:green'>Lift,<span style='color:green'>Lift,<span style='color:green'>Lift,<span style='color:red'>Fail","<span style='color:red'>Fail,<span style='color:green'>Lift,<span style='color:green'>Lift,<span style='color:red'>Fail,<span style='color:green'>Lift,<span style='color:green'>Lift","0,0,1,1,0,0,0,0,0,1,1,0","0,0,1,1,1,1,1,0,1,1,1,0","0,1,1,0,1,1",10,20,20,"","","","","{""box1"":""99"",""box2"":""99""}","",5,"round2_ready",2,5,2,NA,NA,NA,NA,NA,NA,NA,NA,NA,NA,NA,NA,NA,NA,99,99,99,99,NA,NA,NA,NA,NA,NA,NA,NA,NA,NA,NA,NA,NA,NA,NA,NA,NA,NA,"",NA,NA,NA,NA,NA,NA,NA,NA,NA,2025-11-21 01:46:02
"27616.900000572205","https://psyc-201.github.io/xiang2023/exp/index1.html?PROLIFIC_PID=REDACTED&STUDY_ID=691f8ca61c6b4dcbb0aeb5f4&SESSION_ID=691fbef77b922f3d581e7cd5","survey-html-form",34,1076189,"0.0-346.0","dFWNX7ZA0Fyyp55RFdWa8sWD2XhxatexJXmB+bPKc42sdmVe8mMW47Xiwgzeim4uxZ7FWY1A/KySF9MUQrQFb05GNfCdkDFSWwlyE7YL39okdO5SjLe+CyfA5l5nw7DtoyKSHeL7XvqUETyXhBgKromyCeGDAr05PLTm8AqpJIeuEIi3hfilkCOXdQaWN/nP3ig2NrtldzTRZNNrKkgcWQmPpzSfVIltfsvmNVYqvq1yaFhg/NWojyvY3V3eLaHfABOXUVfdnYlnfsxORtf9cd0QHEqaOdFvqT7MmrDjEodangDEs2fsq2g6qeuX3NMIfZIUGT62wjBFiuI4XlM6ZA==","691f8ca61c6b4dcbb0aeb5f4","691fbef77b922f3d581e7cd5","index1","<span style='color:red'>Fail,<span style='color:red'>Fail,<span style='color:green'>Lift,<span style='color:green'>Lift,<span style='color:red'>Fail,<span style='color:red'>Fail,<span style='color:red'>Fail,<span style='color:red'>Fail,<span style='color:red'>Fail,<span style='color:green'>Lift,<span style='color:green'>Lift,<span style='color:red'>Fail","<span style='color:red'>Fail,<span style='color:red'>Fail,<span style='color:green'>Lift,<span style='color:green'>Lift,<span style='color:green'>Lift,<span style='color:green'>Lift,<span style='color:green'>Lift,<span style='color:red'>Fail,<span style='color:green'>Lift,<span style='color:green'>Lift,<span style='color:green'>Lift,<span style='color:red'>Fail","<span style='color:red'>Fail,<span style='color:green'>Lift,<span style='color:green'>Lift,<span style='color:red'>Fail,<span style='color:green'>Lift,<span style='color:green'>Lift","0,0,1,1,0,0,0,0,0,1,1,0","0,0,1,1,1,1,1,0,1,1,1,0","0,1,1,0,1,1",10,20,20,"","","","","{""box1"":""8"",""box2"":""8"",""box3"":""50"",""box4"":""50""}","",5,"round2_outcome",3,5,2,8,8,50,50,1,1,20,NA,NA,NA,NA,NA,NA,NA,NA,NA,NA,NA,8,8,50,50,1,1,20,NA,NA,NA,NA,NA,NA,NA,NA,NA,NA,NA,"",NA,NA,NA,NA,NA,NA,NA,NA,NA,2025-11-21 01:46:02
"22181.10000038147","https://psyc-201.github.io/xiang2023/exp/index1.html?PROLIFIC_PID=REDACTED&STUDY_ID=691f8ca61c6b4dcbb0aeb5f4&SESSION_ID=691fbef77b922f3d581e7cd5","survey-html-form",35,1098372,"0.0-347.0","dFWNX7ZA0Fyyp55RFdWa8sWD2XhxatexJXmB+bPKc42sdmVe8mMW47Xiwgzeim4uxZ7FWY1A/KySF9MUQrQFb05GNfCdkDFSWwlyE7YL39okdO5SjLe+CyfA5l5nw7DtoyKSHeL7XvqUETyXhBgKromyCeGDAr05PLTm8AqpJIeuEIi3hfilkCOXdQaWN/nP3ig2NrtldzTRZNNrKkgcWQmPpzSfVIltfsvmNVYqvq1yaFhg/NWojyvY3V3eLaHfABOXUVfdnYlnfsxORtf9cd0QHEqaOdFvqT7MmrDjEodangDEs2fsq2g6qeuX3NMIfZIUGT62wjBFiuI4XlM6ZA==","691f8ca61c6b4dcbb0aeb5f4","691fbef77b922f3d581e7cd5","index1","<span style='color:red'>Fail,<span style='color:red'>Fail,<span style='color:green'>Lift,<span style='color:green'>Lift,<span style='color:red'>Fail,<span style='color:red'>Fail,<span style='color:red'>Fail,<span style='color:red'>Fail,<span style='color:red'>Fail,<span style='color:green'>Lift,<span style='color:green'>Lift,<span style='color:red'>Fail","<span style='color:red'>Fail,<span style='color:red'>Fail,<span style='color:green'>Lift,<span style='color:green'>Lift,<span style='color:green'>Lift,<span style='color:green'>Lift,<span style='color:green'>Lift,<span style='color:red'>Fail,<span style='color:green'>Lift,<span style='color:green'>Lift,<span style='color:green'>Lift,<span style='color:red'>Fail","<span style='color:red'>Fail,<span style='color:green'>Lift,<span style='color:green'>Lift,<span style='color:red'>Fail,<span style='color:green'>Lift,<span style='color:green'>Lift","0,0,1,1,0,0,0,0,0,1,1,0","0,0,1,1,1,1,1,0,1,1,1,0","0,1,1,0,1,1",10,20,20,"","","","","{""box1"":""99""}","",5,"round3_ready",4,5,3,NA,NA,NA,NA,NA,NA,NA,NA,NA,NA,NA,NA,NA,NA,99,99,NA,NA,NA,NA,NA,NA,NA,NA,NA,99,99,NA,NA,NA,NA,NA,NA,NA,NA,NA,"",NA,NA,NA,NA,NA,NA,NA,NA,NA,2025-11-21 01:46:02
"36981.199999809265","https://psyc-201.github.io/xiang2023/exp/index1.html?PROLIFIC_PID=REDACTED&STUDY_ID=691f8ca61c6b4dcbb0aeb5f4&SESSION_ID=691fbef77b922f3d581e7cd5","survey-html-form",36,1135354,"0.0-348.0-0.0","dFWNX7ZA0Fyyp55RFdWa8sWD2XhxatexJXmB+bPKc42sdmVe8mMW47Xiwgzeim4uxZ7FWY1A/KySF9MUQrQFb05GNfCdkDFSWwlyE7YL39okdO5SjLe+CyfA5l5nw7DtoyKSHeL7XvqUETyXhBgKromyCeGDAr05PLTm8AqpJIeuEIi3hfilkCOXdQaWN/nP3ig2NrtldzTRZNNrKkgcWQmPpzSfVIltfsvmNVYqvq1yaFhg/NWojyvY3V3eLaHfABOXUVfdnYlnfsxORtf9cd0QHEqaOdFvqT7MmrDjEodangDEs2fsq2g6qeuX3NMIfZIUGT62wjBFiuI4XlM6ZA==","691f8ca61c6b4dcbb0aeb5f4","691fbef77b922f3d581e7cd5","index1","<span style='color:red'>Fail,<span style='color:red'>Fail,<span style='color:green'>Lift,<span style='color:green'>Lift,<span style='color:red'>Fail,<span style='color:red'>Fail,<span style='color:red'>Fail,<span style='color:red'>Fail,<span style='color:red'>Fail,<span style='color:green'>Lift,<span style='color:green'>Lift,<span style='color:red'>Fail","<span style='color:red'>Fail,<span style='color:red'>Fail,<span style='color:green'>Lift,<span style='color:green'>Lift,<span style='color:green'>Lift,<span style='color:green'>Lift,<span style='color:green'>Lift,<span style='color:red'>Fail,<span style='color:green'>Lift,<span style='color:green'>Lift,<span style='color:green'>Lift,<span style='color:red'>Fail","<span style='color:red'>Fail,<span style='color:green'>Lift,<span style='color:green'>Lift,<span style='color:red'>Fail,<span style='color:green'>Lift,<span style='color:green'>Lift","0,0,1,1,0,0,0,0,0,1,1,0","0,0,1,1,1,1,1,0,1,1,1,0","0,1,1,0,1,1",10,20,20,"","","","","{""box1"":""8"",""box2"":""8"",""box3"":""40"",""box4"":""40""}","",6,"round3_lift",5,5,3,8,8,40,40,1,1,20,NA,NA,NA,NA,NA,NA,NA,NA,NA,NA,NA,NA,NA,NA,NA,NA,NA,NA,NA,NA,NA,NA,8,8,1,1,20,40,40,"",NA,NA,NA,NA,NA,NA,NA,NA,NA,2025-11-21 01:46:02
"null","https://psyc-201.github.io/xiang2023/exp/index1.html?PROLIFIC_PID=REDACTED&STUDY_ID=691f8ca61c6b4dcbb0aeb5f4&SESSION_ID=691fbef77b922f3d581e7cd5","html-keyboard-response",37,1138358,"0.0-352.0","dFWNX7ZA0Fyyp55RFdWa8sWD2XhxatexJXmB+bPKc42sdmVe8mMW47Xiwgzeim4uxZ7FWY1A/KySF9MUQrQFb05GNfCdkDFSWwlyE7YL39okdO5SjLe+CyfA5l5nw7DtoyKSHeL7XvqUETyXhBgKromyCeGDAr05PLTm8AqpJIeuEIi3hfilkCOXdQaWN/nP3ig2NrtldzTRZNNrKkgcWQmPpzSfVIltfsvmNVYqvq1yaFhg/NWojyvY3V3eLaHfABOXUVfdnYlnfsxORtf9cd0QHEqaOdFvqT7MmrDjEodangDEs2fsq2g6qeuX3NMIfZIUGT62wjBFiuI4XlM6ZA==","691f8ca61c6b4dcbb0aeb5f4","691fbef77b922f3d581e7cd5","index1","<span style='color:red'>Fail,<span style='color:red'>Fail,<span style='color:green'>Lift,<span style='color:green'>Lift,<span style='color:red'>Fail,<span style='color:red'>Fail,<span style='color:red'>Fail,<span style='color:red'>Fail,<span style='color:red'>Fail,<span style='color:green'>Lift,<span style='color:green'>Lift,<span style='color:red'>Fail","<span style='color:red'>Fail,<span style='color:red'>Fail,<span style='color:green'>Lift,<span style='color:green'>Lift,<span style='color:green'>Lift,<span style='color:green'>Lift,<span style='color:green'>Lift,<span style='color:red'>Fail,<span style='color:green'>Lift,<span style='color:green'>Lift,<span style='color:green'>Lift,<span style='color:red'>Fail","<span style='color:red'>Fail,<span style='color:green'>Lift,<span style='color:green'>Lift,<span style='color:red'>Fail,<span style='color:green'>Lift,<span style='color:green'>Lift","0,0,1,1,0,0,0,0,0,1,1,0","0,0,1,1,1,1,1,0,1,1,1,0","0,1,1,0,1,1",10,20,20,"","","<p style='font-size:30px'><b> New Contest! </b></p>","null","","",6,"",NA,NA,NA,NA,NA,NA,NA,NA,NA,NA,NA,NA,NA,NA,NA,NA,NA,NA,NA,NA,NA,NA,NA,NA,NA,NA,NA,NA,NA,NA,NA,NA,NA,NA,NA,NA,NA,NA,NA,"",NA,NA,NA,NA,NA,NA,NA,NA,NA,2025-11-21 01:46:02
"31008.400000572205","https://psyc-201.github.io/xiang2023/exp/index1.html?PROLIFIC_PID=REDACTED&STUDY_ID=691f8ca61c6b4dcbb0aeb5f4&SESSION_ID=691fbef77b922f3d581e7cd5","survey-html-form",38,1169369,"0.0-353.0","dFWNX7ZA0Fyyp55RFdWa8sWD2XhxatexJXmB+bPKc42sdmVe8mMW47Xiwgzeim4uxZ7FWY1A/KySF9MUQrQFb05GNfCdkDFSWwlyE7YL39okdO5SjLe+CyfA5l5nw7DtoyKSHeL7XvqUETyXhBgKromyCeGDAr05PLTm8AqpJIeuEIi3hfilkCOXdQaWN/nP3ig2NrtldzTRZNNrKkgcWQmPpzSfVIltfsvmNVYqvq1yaFhg/NWojyvY3V3eLaHfABOXUVfdnYlnfsxORtf9cd0QHEqaOdFvqT7MmrDjEodangDEs2fsq2g6qeuX3NMIfZIUGT62wjBFiuI4XlM6ZA==","691f8ca61c6b4dcbb0aeb5f4","691fbef77b922f3d581e7cd5","index1","<span style='color:red'>Fail,<span style='color:red'>Fail,<span style='color:green'>Lift,<span style='color:green'>Lift,<span style='color:red'>Fail,<span style='color:red'>Fail,<span style='color:red'>Fail,<span style='color:red'>Fail,<span style='color:red'>Fail,<span style='color:green'>Lift,<span style='color:green'>Lift,<span style='color:red'>Fail","<span style='color:red'>Fail,<span style='color:red'>Fail,<span style='color:green'>Lift,<span style='color:green'>Lift,<span style='color:green'>Lift,<span style='color:green'>Lift,<span style='color:green'>Lift,<span style='color:red'>Fail,<span style='color:green'>Lift,<span style='color:green'>Lift,<span style='color:green'>Lift,<span style='color:red'>Fail","<span style='color:red'>Fail,<span style='color:green'>Lift,<span style='color:green'>Lift,<span style='color:red'>Fail,<span style='color:green'>Lift,<span style='color:green'>Lift","0,0,1,1,0,0,0,0,0,1,1,0","0,0,1,1,1,1,1,0,1,1,1,0","0,1,1,0,1,1",10,20,20,"","","","","{""box1"":""5"",""box2"":""5""}","",6,"round1_outcome",1,6,1,5,5,NA,NA,0,0,10,5,5,NA,NA,0,0,10,NA,NA,NA,NA,NA,NA,NA,NA,NA,NA,NA,NA,NA,NA,NA,NA,NA,NA,NA,NA,NA,NA,"",NA,NA,NA,NA,NA,NA,NA,NA,NA,2025-11-21 01:46:02
"28133.199999809265","https://psyc-201.github.io/xiang2023/exp/index1.html?PROLIFIC_PID=REDACTED&STUDY_ID=691f8ca61c6b4dcbb0aeb5f4&SESSION_ID=691fbef77b922f3d581e7cd5","survey-html-form",39,1197504,"0.0-354.0","dFWNX7ZA0Fyyp55RFdWa8sWD2XhxatexJXmB+bPKc42sdmVe8mMW47Xiwgzeim4uxZ7FWY1A/KySF9MUQrQFb05GNfCdkDFSWwlyE7YL39okdO5SjLe+CyfA5l5nw7DtoyKSHeL7XvqUETyXhBgKromyCeGDAr05PLTm8AqpJIeuEIi3hfilkCOXdQaWN/nP3ig2NrtldzTRZNNrKkgcWQmPpzSfVIltfsvmNVYqvq1yaFhg/NWojyvY3V3eLaHfABOXUVfdnYlnfsxORtf9cd0QHEqaOdFvqT7MmrDjEodangDEs2fsq2g6qeuX3NMIfZIUGT62wjBFiuI4XlM6ZA==","691f8ca61c6b4dcbb0aeb5f4","691fbef77b922f3d581e7cd5","index1","<span style='color:red'>Fail,<span style='color:red'>Fail,<span style='color:green'>Lift,<span style='color:green'>Lift,<span style='color:red'>Fail,<span style='color:red'>Fail,<span style='color:red'>Fail,<span style='color:red'>Fail,<span style='color:red'>Fail,<span style='color:green'>Lift,<span style='color:green'>Lift,<span style='color:red'>Fail","<span style='color:red'>Fail,<span style='color:red'>Fail,<span style='color:green'>Lift,<span style='color:green'>Lift,<span style='color:green'>Lift,<span style='color:green'>Lift,<span style='color:green'>Lift,<span style='color:red'>Fail,<span style='color:green'>Lift,<span style='color:green'>Lift,<span style='color:green'>Lift,<span style='color:red'>Fail","<span style='color:red'>Fail,<span style='color:green'>Lift,<span style='color:green'>Lift,<span style='color:red'>Fail,<span style='color:green'>Lift,<span style='color:green'>Lift","0,0,1,1,0,0,0,0,0,1,1,0","0,0,1,1,1,1,1,0,1,1,1,0","0,1,1,0,1,1",10,20,20,"","","","","{""box1"":""60"",""box2"":""60""}","",6,"round2_ready",2,6,2,NA,NA,NA,NA,NA,NA,NA,NA,NA,NA,NA,NA,NA,NA,60,60,60,60,NA,NA,NA,NA,NA,NA,NA,NA,NA,NA,NA,NA,NA,NA,NA,NA,NA,NA,"",NA,NA,NA,NA,NA,NA,NA,NA,NA,2025-11-21 01:46:02
"32398.699999809265","https://psyc-201.github.io/xiang2023/exp/index1.html?PROLIFIC_PID=REDACTED&STUDY_ID=691f8ca61c6b4dcbb0aeb5f4&SESSION_ID=691fbef77b922f3d581e7cd5","survey-html-form",40,1229905,"0.0-355.0","dFWNX7ZA0Fyyp55RFdWa8sWD2XhxatexJXmB+bPKc42sdmVe8mMW47Xiwgzeim4uxZ7FWY1A/KySF9MUQrQFb05GNfCdkDFSWwlyE7YL39okdO5SjLe+CyfA5l5nw7DtoyKSHeL7XvqUETyXhBgKromyCeGDAr05PLTm8AqpJIeuEIi3hfilkCOXdQaWN/nP3ig2NrtldzTRZNNrKkgcWQmPpzSfVIltfsvmNVYqvq1yaFhg/NWojyvY3V3eLaHfABOXUVfdnYlnfsxORtf9cd0QHEqaOdFvqT7MmrDjEodangDEs2fsq2g6qeuX3NMIfZIUGT62wjBFiuI4XlM6ZA==","691f8ca61c6b4dcbb0aeb5f4","691fbef77b922f3d581e7cd5","index1","<span style='color:red'>Fail,<span style='color:red'>Fail,<span style='color:green'>Lift,<span style='color:green'>Lift,<span style='color:red'>Fail,<span style='color:red'>Fail,<span style='color:red'>Fail,<span style='color:red'>Fail,<span style='color:red'>Fail,<span style='color:green'>Lift,<span style='color:green'>Lift,<span style='color:red'>Fail","<span style='color:red'>Fail,<span style='color:red'>Fail,<span style='color:green'>Lift,<span style='color:green'>Lift,<span style='color:green'>Lift,<span style='color:green'>Lift,<span style='color:green'>Lift,<span style='color:red'>Fail,<span style='color:green'>Lift,<span style='color:green'>Lift,<span style='color:green'>Lift,<span style='color:red'>Fail","<span style='color:red'>Fail,<span style='color:green'>Lift,<span style='color:green'>Lift,<span style='color:red'>Fail,<span style='color:green'>Lift,<span style='color:green'>Lift","0,0,1,1,0,0,0,0,0,1,1,0","0,0,1,1,1,1,1,0,1,1,1,0","0,1,1,0,1,1",10,20,20,"","","","","{""box1"":""6"",""box2"":""6"",""box3"":""100"",""box4"":""100""}","",6,"round2_outcome",3,6,2,6,6,100,100,1,1,20,NA,NA,NA,NA,NA,NA,NA,NA,NA,NA,NA,6,6,100,100,1,1,20,NA,NA,NA,NA,NA,NA,NA,NA,NA,NA,NA,"",NA,NA,NA,NA,NA,NA,NA,NA,NA,2025-11-21 01:46:02
"19844.099999427795","https://psyc-201.github.io/xiang2023/exp/index1.html?PROLIFIC_PID=REDACTED&STUDY_ID=691f8ca61c6b4dcbb0aeb5f4&SESSION_ID=691fbef77b922f3d581e7cd5","survey-html-form",41,1249753,"0.0-356.0","dFWNX7ZA0Fyyp55RFdWa8sWD2XhxatexJXmB+bPKc42sdmVe8mMW47Xiwgzeim4uxZ7FWY1A/KySF9MUQrQFb05GNfCdkDFSWwlyE7YL39okdO5SjLe+CyfA5l5nw7DtoyKSHeL7XvqUETyXhBgKromyCeGDAr05PLTm8AqpJIeuEIi3hfilkCOXdQaWN/nP3ig2NrtldzTRZNNrKkgcWQmPpzSfVIltfsvmNVYqvq1yaFhg/NWojyvY3V3eLaHfABOXUVfdnYlnfsxORtf9cd0QHEqaOdFvqT7MmrDjEodangDEs2fsq2g6qeuX3NMIfZIUGT62wjBFiuI4XlM6ZA==","691f8ca61c6b4dcbb0aeb5f4","691fbef77b922f3d581e7cd5","index1","<span style='color:red'>Fail,<span style='color:red'>Fail,<span style='color:green'>Lift,<span style='color:green'>Lift,<span style='color:red'>Fail,<span style='color:red'>Fail,<span style='color:red'>Fail,<span style='color:red'>Fail,<span style='color:red'>Fail,<span style='color:green'>Lift,<span style='color:green'>Lift,<span style='color:red'>Fail","<span style='color:red'>Fail,<span style='color:red'>Fail,<span style='color:green'>Lift,<span style='color:green'>Lift,<span style='color:green'>Lift,<span style='color:green'>Lift,<span style='color:green'>Lift,<span style='color:red'>Fail,<span style='color:green'>Lift,<span style='color:green'>Lift,<span style='color:green'>Lift,<span style='color:red'>Fail","<span style='color:red'>Fail,<span style='color:green'>Lift,<span style='color:green'>Lift,<span style='color:red'>Fail,<span style='color:green'>Lift,<span style='color:green'>Lift","0,0,1,1,0,0,0,0,0,1,1,0","0,0,1,1,1,1,1,0,1,1,1,0","0,1,1,0,1,1",10,20,20,"","","","","{""box1"":""96""}","",6,"round3_ready",4,6,3,NA,NA,NA,NA,NA,NA,NA,NA,NA,NA,NA,NA,NA,NA,96,96,NA,NA,NA,NA,NA,NA,NA,NA,NA,96,96,NA,NA,NA,NA,NA,NA,NA,NA,NA,"",NA,NA,NA,NA,NA,NA,NA,NA,NA,2025-11-21 01:46:02
"37547.5","https://psyc-201.github.io/xiang2023/exp/index1.html?PROLIFIC_PID=REDACTED&STUDY_ID=691f8ca61c6b4dcbb0aeb5f4&SESSION_ID=691fbef77b922f3d581e7cd5","survey-html-form",42,1287302,"0.0-357.0-0.0","dFWNX7ZA0Fyyp55RFdWa8sWD2XhxatexJXmB+bPKc42sdmVe8mMW47Xiwgzeim4uxZ7FWY1A/KySF9MUQrQFb05GNfCdkDFSWwlyE7YL39okdO5SjLe+CyfA5l5nw7DtoyKSHeL7XvqUETyXhBgKromyCeGDAr05PLTm8AqpJIeuEIi3hfilkCOXdQaWN/nP3ig2NrtldzTRZNNrKkgcWQmPpzSfVIltfsvmNVYqvq1yaFhg/NWojyvY3V3eLaHfABOXUVfdnYlnfsxORtf9cd0QHEqaOdFvqT7MmrDjEodangDEs2fsq2g6qeuX3NMIfZIUGT62wjBFiuI4XlM6ZA==","691f8ca61c6b4dcbb0aeb5f4","691fbef77b922f3d581e7cd5","index1","<span style='color:red'>Fail,<span style='color:red'>Fail,<span style='color:green'>Lift,<span style='color:green'>Lift,<span style='color:red'>Fail,<span style='color:red'>Fail,<span style='color:red'>Fail,<span style='color:red'>Fail,<span style='color:red'>Fail,<span style='color:green'>Lift,<span style='color:green'>Lift,<span style='color:red'>Fail","<span style='color:red'>Fail,<span style='color:red'>Fail,<span style='color:green'>Lift,<span style='color:green'>Lift,<span style='color:green'>Lift,<span style='color:green'>Lift,<span style='color:green'>Lift,<span style='color:red'>Fail,<span style='color:green'>Lift,<span style='color:green'>Lift,<span style='color:green'>Lift,<span style='color:red'>Fail","<span style='color:red'>Fail,<span style='color:green'>Lift,<span style='color:green'>Lift,<span style='color:red'>Fail,<span style='color:green'>Lift,<span style='color:green'>Lift","0,0,1,1,0,0,0,0,0,1,1,0","0,0,1,1,1,1,1,0,1,1,1,0","0,1,1,0,1,1",10,20,20,"","","","","{""box1"":""6"",""box2"":""6"",""box3"":""60"",""box4"":""60""}","",6,"round3_lift",5,6,3,6,6,60,60,1,1,20,NA,NA,NA,NA,NA,NA,NA,NA,NA,NA,NA,NA,NA,NA,NA,NA,NA,NA,NA,NA,NA,NA,6,6,1,1,20,60,60,"",NA,NA,NA,NA,NA,NA,NA,NA,NA,2025-11-21 01:46:02
"64131","https://psyc-201.github.io/xiang2023/exp/index1.html?PROLIFIC_PID=REDACTED&STUDY_ID=691f8ca61c6b4dcbb0aeb5f4&SESSION_ID=691fbef77b922f3d581e7cd5","survey-text",43,1351434,"0.0-361.0","dFWNX7ZA0Fyyp55RFdWa8sWD2XhxatexJXmB+bPKc42sdmVe8mMW47Xiwgzeim4uxZ7FWY1A/KySF9MUQrQFb05GNfCdkDFSWwlyE7YL39okdO5SjLe+CyfA5l5nw7DtoyKSHeL7XvqUETyXhBgKromyCeGDAr05PLTm8AqpJIeuEIi3hfilkCOXdQaWN/nP3ig2NrtldzTRZNNrKkgcWQmPpzSfVIltfsvmNVYqvq1yaFhg/NWojyvY3V3eLaHfABOXUVfdnYlnfsxORtf9cd0QHEqaOdFvqT7MmrDjEodangDEs2fsq2g6qeuX3NMIfZIUGT62wjBFiuI4XlM6ZA==","691f8ca61c6b4dcbb0aeb5f4","691fbef77b922f3d581e7cd5","index1","<span style='color:red'>Fail,<span style='color:red'>Fail,<span style='color:green'>Lift,<span style='color:green'>Lift,<span style='color:red'>Fail,<span style='color:red'>Fail,<span style='color:red'>Fail,<span style='color:red'>Fail,<span style='color:red'>Fail,<span style='color:green'>Lift,<span style='color:green'>Lift,<span style='color:red'>Fail","<span style='color:red'>Fail,<span style='color:red'>Fail,<span style='color:green'>Lift,<span style='color:green'>Lift,<span style='color:green'>Lift,<span style='color:green'>Lift,<span style='color:green'>Lift,<span style='color:red'>Fail,<span style='color:green'>Lift,<span style='color:green'>Lift,<span style='color:green'>Lift,<span style='color:red'>Fail","<span style='color:red'>Fail,<span style='color:green'>Lift,<span style='color:green'>Lift,<span style='color:red'>Fail,<span style='color:green'>Lift,<span style='color:green'>Lift","0,0,1,1,0,0,0,0,0,1,1,0","0,0,1,1,1,1,1,0,1,1,1,0","0,1,1,0,1,1",10,20,20,"","","","","{""Q0"":""Observe contestants try to lift boxes. Predict their success and estimate their strength and effort""}","",NA,"",NA,NA,NA,NA,NA,NA,NA,NA,NA,NA,NA,NA,NA,NA,NA,NA,NA,NA,NA,NA,NA,NA,NA,NA,NA,NA,NA,NA,NA,NA,NA,NA,NA,NA,NA,NA,NA,NA,NA,"",NA,NA,NA,NA,NA,NA,NA,NA,NA,2025-11-21 01:46:02
"6599.39999961853","https://psyc-201.github.io/xiang2023/exp/index1.html?PROLIFIC_PID=REDACTED&STUDY_ID=691f8ca61c6b4dcbb0aeb5f4&SESSION_ID=691fbef77b922f3d581e7cd5","survey-text",44,1358036,"0.0-362.0","dFWNX7ZA0Fyyp55RFdWa8sWD2XhxatexJXmB+bPKc42sdmVe8mMW47Xiwgzeim4uxZ7FWY1A/KySF9MUQrQFb05GNfCdkDFSWwlyE7YL39okdO5SjLe+CyfA5l5nw7DtoyKSHeL7XvqUETyXhBgKromyCeGDAr05PLTm8AqpJIeuEIi3hfilkCOXdQaWN/nP3ig2NrtldzTRZNNrKkgcWQmPpzSfVIltfsvmNVYqvq1yaFhg/NWojyvY3V3eLaHfABOXUVfdnYlnfsxORtf9cd0QHEqaOdFvqT7MmrDjEodangDEs2fsq2g6qeuX3NMIfZIUGT62wjBFiuI4XlM6ZA==","691f8ca61c6b4dcbb0aeb5f4","691fbef77b922f3d581e7cd5","index1","<span style='color:red'>Fail,<span style='color:red'>Fail,<span style='color:green'>Lift,<span style='color:green'>Lift,<span style='color:red'>Fail,<span style='color:red'>Fail,<span style='color:red'>Fail,<span style='color:red'>Fail,<span style='color:red'>Fail,<span style='color:green'>Lift,<span style='color:green'>Lift,<span style='color:red'>Fail","<span style='color:red'>Fail,<span style='color:red'>Fail,<span style='color:green'>Lift,<span style='color:green'>Lift,<span style='color:green'>Lift,<span style='color:green'>Lift,<span style='color:green'>Lift,<span style='color:red'>Fail,<span style='color:green'>Lift,<span style='color:green'>Lift,<span style='color:green'>Lift,<span style='color:red'>Fail","<span style='color:red'>Fail,<span style='color:green'>Lift,<span style='color:green'>Lift,<span style='color:red'>Fail,<span style='color:green'>Lift,<span style='color:green'>Lift","0,0,1,1,0,0,0,0,0,1,1,0","0,0,1,1,1,1,1,0,1,1,1,0","0,1,1,0,1,1",10,20,20,"","","","","{""Q0"":""""}","",NA,"",NA,NA,NA,NA,NA,NA,NA,NA,NA,NA,NA,NA,NA,NA,NA,NA,NA,NA,NA,NA,NA,NA,NA,NA,NA,NA,NA,NA,NA,NA,NA,NA,NA,NA,NA,NA,NA,NA,NA,"[{""event"":""blur"",""trial"":0,""time"":738},{""event"":""focus"",""trial"":0,""time"":8346},{""event"":""fullscreenenter"",""trial"":1,""time"":14191},{""event"":""blur"",""trial"":2,""time"":29205},{""event"":""focus"",""trial"":2,""time"":37654},{""event"":""blur"",""trial"":2,""time"":56188},{""event"":""focus"",""trial"":2,""time"":60176},{""event"":""blur"",""trial"":2,""time"":76541},{""event"":""focus"",""trial"":2,""time"":85073},{""event"":""blur"",""trial"":2,""time"":98126},{""event"":""focus"",""trial"":2,""time"":101763},{""event"":""blur"",""trial"":2,""time"":129995},{""event"":""focus"",""trial"":2,""time"":134054},{""event"":""blur"",""trial"":2,""time"":155341},{""event"":""focus"",""trial"":2,""time"":174694},{""event"":""blur"",""trial"":2,""time"":182251},{""event"":""focus"",""trial"":2,""time"":187846},{""event"":""blur"",""trial"":4,""time"":202034},{""event"":""focus"",""trial"":4,""time"":214429},{""event"":""blur"",""trial"":4,""time"":217649},{""event"":""focus"",""trial"":4,""time"":220830},{""event"":""blur"",""trial"":4,""time"":221587},{""event"":""focus"",""trial"":4,""time"":222840},{""event"":""blur"",""trial"":4,""time"":230609},{""event"":""focus"",""trial"":4,""time"":233201},{""event"":""blur"",""trial"":4,""time"":241878},{""event"":""focus"",""trial"":4,""time"":246421},{""event"":""blur"",""trial"":4,""time"":247678},{""event"":""focus"",""trial"":4,""time"":249538},{""event"":""blur"",""trial"":4,""time"":253954},{""event"":""focus"",""trial"":4,""time"":258867},{""event"":""blur"",""trial"":8,""time"":296687},{""event"":""focus"",""trial"":8,""time"":302826},{""event"":""blur"",""trial"":8,""time"":303754},{""event"":""focus"",""trial"":8,""time"":311865},{""event"":""blur"",""trial"":9,""time"":328630},{""event"":""focus"",""trial"":9,""time"":339323},{""event"":""blur"",""trial"":10,""time"":357184},{""event"":""focus"",""trial"":10,""time"":368934},{""event"":""blur"",""trial"":10,""time"":370491},{""event"":""focus"",""trial"":10,""time"":377523},{""event"":""blur"",""trial"":10,""time"":386771},{""event"":""focus"",""trial"":10,""time"":388736},{""event"":""blur"",""trial"":10,""time"":390463},{""event"":""focus"",""trial"":10,""time"":391619},{""event"":""blur"",""trial"":11,""time"":401995},{""event"":""focus"",""trial"":11,""time"":414400},{""event"":""blur"",""trial"":12,""time"":425705},{""event"":""focus"",""trial"":12,""time"":438964},{""event"":""blur"",""trial"":12,""time"":448969},{""event"":""focus"",""trial"":12,""time"":450782},{""event"":""blur"",""trial"":12,""time"":458037},{""event"":""focus"",""trial"":12,""time"":459310},{""event"":""blur"",""trial"":14,""time"":469929},{""event"":""focus"",""trial"":14,""time"":494233},{""event"":""blur"",""trial"":14,""time"":495605},{""event"":""focus"",""trial"":14,""time"":500896},{""event"":""blur"",""trial"":15,""time"":511731},{""event"":""focus"",""trial"":15,""time"":526437},{""event"":""blur"",""trial"":16,""time"":536444},{""event"":""focus"",""trial"":16,""time"":547995},{""event"":""blur"",""trial"":17,""time"":559870},{""event"":""focus"",""trial"":17,""time"":570610},{""event"":""blur"",""trial"":18,""time"":583685},{""event"":""focus"",""trial"":18,""time"":593228},{""event"":""blur"",""trial"":20,""time"":612505},{""event"":""focus"",""trial"":20,""time"":627235},{""event"":""blur"",""trial"":20,""time"":628742},{""event"":""focus"",""trial"":20,""time"":636259},{""event"":""blur"",""trial"":20,""time"":643427},{""event"":""focus"",""trial"":20,""time"":645074},{""event"":""blur"",""trial"":21,""time"":653336},{""event"":""focus"",""trial"":21,""time"":665772},{""event"":""blur"",""trial"":22,""time"":680722},{""event"":""focus"",""trial"":22,""time"":697701},{""event"":""blur"",""trial"":22,""time"":700361},{""event"":""focus"",""trial"":22,""time"":702660},{""event"":""blur"",""trial"":22,""time"":707838},{""event"":""focus"",""trial"":22,""time"":709800},{""event"":""blur"",""trial"":23,""time"":720901},{""event"":""focus"",""trial"":23,""time"":735597},{""event"":""blur"",""trial"":24,""time"":749254},{""event"":""focus"",""trial"":24,""time"":764857},{""event"":""blur"",""trial"":24,""time"":768191},{""event"":""focus"",""trial"":24,""time"":770458},{""event"":""blur"",""trial"":24,""time"":775475},{""event"":""focus"",""trial"":24,""time"":776841},{""event"":""blur"",""trial"":26,""time"":790705},{""event"":""focus"",""trial"":26,""time"":812406},{""event"":""blur"",""trial"":26,""time"":813807},{""event"":""focus"",""trial"":26,""time"":822600},{""event"":""blur"",""trial"":26,""time"":828748},{""event"":""focus"",""trial"":26,""time"":832223},{""event"":""blur"",""trial"":27,""time"":840473},{""event"":""focus"",""trial"":27,""time"":852280},{""event"":""blur"",""trial"":28,""time"":862915},{""event"":""focus"",""trial"":28,""time"":878515},{""event"":""blur"",""trial"":28,""time"":884148},{""event"":""focus"",""trial"":28,""time"":885275},{""event"":""blur"",""trial"":29,""time"":897801},{""event"":""focus"",""trial"":29,""time"":914116},{""event"":""blur"",""trial"":29,""time"":915171},{""event"":""focus"",""trial"":29,""time"":937218},{""event"":""blur"",""trial"":30,""time"":947092},{""event"":""focus"",""trial"":30,""time"":961977},{""event"":""blur"",""trial"":30,""time"":969816},{""event"":""focus"",""trial"":30,""time"":972282},{""event"":""blur"",""trial"":32,""time"":986103},{""event"":""focus"",""trial"":32,""time"":1004113},{""event"":""blur"",""trial"":32,""time"":1005394},{""event"":""focus"",""trial"":32,""time"":1015002},{""event"":""blur"",""trial"":33,""time"":1029897},{""event"":""focus"",""trial"":33,""time"":1043928},{""event"":""blur"",""trial"":34,""time"":1054185},{""event"":""focus"",""trial"":34,""time"":1066544},{""event"":""blur"",""trial"":35,""time"":1081871},{""event"":""focus"",""trial"":35,""time"":1095963},{""event"":""blur"",""trial"":36,""time"":1104671},{""event"":""focus"",""trial"":36,""time"":1118409},{""event"":""blur"",""trial"":36,""time"":1129129},{""event"":""focus"",""trial"":36,""time"":1131284},{""event"":""blur"",""trial"":38,""time"":1143474},{""event"":""focus"",""trial"":38,""time"":1160981},{""event"":""blur"",""trial"":38,""time"":1162676},{""event"":""focus"",""trial"":38,""time"":1163965},{""event"":""blur"",""trial"":39,""time"":1174742},{""event"":""focus"",""trial"":39,""time"":1186996},{""event"":""blur"",""trial"":40,""time"":1202687},{""event"":""focus"",""trial"":40,""time"":1219240},{""event"":""blur"",""trial"":41,""time"":1235611},{""event"":""focus"",""trial"":41,""time"":1246552},{""event"":""blur"",""trial"":42,""time"":1256050},{""event"":""focus"",""trial"":42,""time"":1270698},{""event"":""blur"",""trial"":42,""time"":1277290},{""event"":""focus"",""trial"":42,""time"":1281181},{""event"":""blur"",""trial"":43,""time"":1294685},{""event"":""focus"",""trial"":43,""time"":1311779},{""event"":""blur"",""trial"":43,""time"":1323009},{""event"":""focus"",""trial"":43,""time"":1324821},{""event"":""blur"",""trial"":43,""time"":1331238},{""event"":""focus"",""trial"":43,""time"":1333332}]",2,2,1,70,0,0.3,NA,NA,NA,2025-11-21 01:46:02
"12792.79999923706","https://psyc-201.github.io/xiang2023/exp/index1.html?PROLIFIC_PID=REDACTED&STUDY_ID=691f8ca61c6b4dcbb0aeb5f4&SESSION_ID=691fbef77b922f3d581e7cd5","html-button-response",45,1370832,"0.0-363.0","dFWNX7ZA0Fyyp55RFdWa8sWD2XhxatexJXmB+bPKc42sdmVe8mMW47Xiwgzeim4uxZ7FWY1A/KySF9MUQrQFb05GNfCdkDFSWwlyE7YL39okdO5SjLe+CyfA5l5nw7DtoyKSHeL7XvqUETyXhBgKromyCeGDAr05PLTm8AqpJIeuEIi3hfilkCOXdQaWN/nP3ig2NrtldzTRZNNrKkgcWQmPpzSfVIltfsvmNVYqvq1yaFhg/NWojyvY3V3eLaHfABOXUVfdnYlnfsxORtf9cd0QHEqaOdFvqT7MmrDjEodangDEs2fsq2g6qeuX3NMIfZIUGT62wjBFiuI4XlM6ZA==","691f8ca61c6b4dcbb0aeb5f4","691fbef77b922f3d581e7cd5","index1","<span style='color:red'>Fail,<span style='color:red'>Fail,<span style='color:green'>Lift,<span style='color:green'>Lift,<span style='color:red'>Fail,<span style='color:red'>Fail,<span style='color:red'>Fail,<span style='color:red'>Fail,<span style='color:red'>Fail,<span style='color:green'>Lift,<span style='color:green'>Lift,<span style='color:red'>Fail","<span style='color:red'>Fail,<span style='color:red'>Fail,<span style='color:green'>Lift,<span style='color:green'>Lift,<span style='color:green'>Lift,<span style='color:green'>Lift,<span style='color:green'>Lift,<span style='color:red'>Fail,<span style='color:green'>Lift,<span style='color:green'>Lift,<span style='color:green'>Lift,<span style='color:red'>Fail","<span style='color:red'>Fail,<span style='color:green'>Lift,<span style='color:green'>Lift,<span style='color:red'>Fail,<span style='color:green'>Lift,<span style='color:green'>Lift","0,0,1,1,0,0,0,0,0,1,1,0","0,0,1,1,1,1,1,0,1,1,1,0","0,1,1,0,1,1",10,20,20,"","","<p> We randomly picked <b>Contest 2, Round 2</b> to calculate your bonus. </p><p> The outcome of Contestant D on that round is <span style='color:red'>Fail</span>. </p><p> The probability you entered was 70. </p><p><b> You won a bonus of $0.30!</b></p><p> IMPORTANT: Please click 'Next' to complete the game.</p>","","","",NA,"",NA,NA,NA,NA,NA,NA,NA,NA,NA,NA,NA,NA,NA,NA,NA,NA,NA,NA,NA,NA,NA,NA,NA,NA,NA,NA,NA,NA,NA,NA,NA,NA,NA,NA,NA,NA,NA,NA,NA,"",NA,NA,NA,NA,NA,NA,0,2,1,2025-11-21 01:46:02
