"rt","url","trial_type","trial_index","time_elapsed","internal_node_id","encryptedProlificId","studyId","sessionId","expIndex","round1_outcomes","round2_outcomes","round3_outcomes","round1_o","round2_o","round3_o","round1_reward","round2_reward","round3_reward","success","view_history","stimulus","key_press","responses","question_order","button_pressed","j","Stage","stage","contest","round","strength_a","strength_b","effort_a","effort_b","outcome_a","outcome_b","reward","r1_strength_a","r1_strength_b","r1_effort_a","r1_effort_b","r1_outcome_a","r1_outcome_b","r1_reward","probability_a","probability_b","r2_prob_a","r2_prob_b","r2_strength_a","r2_strength_b","r2_effort_a","r2_effort_b","r2_outcome_a","r2_outcome_b","r2_reward","r3_prob_a","r3_prob_b","r3_strength_a","r3_strength_b","r3_effort_a","r3_effort_b","r3_outcome_a","r3_outcome_b","r3_reward","attention_check","count","screen","pick_contest","pick_round","pick_side","trial_probability","trial_outcome","bonus","attention_sum","attention","datapipe_meta.attributes.date_modified"
"1578.3999999761581","https://psyc-201.github.io/xiang2023/exp/index1.html?PROLIFIC_PID=REDACTED&STUDY_ID=691f8ca61c6b4dcbb0aeb5f4&SESSION_ID=691fc7bce524825be65c1ef8","external-html",0,1698,"0.0-0.0","L9lzJsdZuiSESgJ1Te2RrA/lPCslSuI6g/bHAoFcdoTtE/KmzcOUt0LkoLSmiVCtfVWFnpXY1iE4L5d3mJtoNtevISZdacDcjuGlCSw+e2x2vaHU3P+mAd+gR/WRfxDPUV1Qrq+bcH0peoRnUdG4n9LSCGznidhKvWEGOePo+QipFgoa3Ra3jrhiK14tJaxJ93oUyovWuRRkK8/3IHp7P/Y1yckF0j3xsC/niyjE2U89DROVjjX7CxZCZnqCp8jR45ecrypZ9t9B9kL2jLIRtHVu0bNHrjroLN8CyidmFUNQ1Z3Qn6BTmegq0ajHT2hLq/uSZzkX7utavye8sM5eMg==","691f8ca61c6b4dcbb0aeb5f4","691fc7bce524825be65c1ef8","index1","<span style='color:red'>Fail,<span style='color:red'>Fail,<span style='color:green'>Lift,<span style='color:green'>Lift,<span style='color:red'>Fail,<span style='color:red'>Fail,<span style='color:red'>Fail,<span style='color:red'>Fail,<span style='color:red'>Fail,<span style='color:green'>Lift,<span style='color:red'>Fail,<span style='color:green'>Lift","<span style='color:red'>Fail,<span style='color:red'>Fail,<span style='color:green'>Lift,<span style='color:green'>Lift,<span style='color:green'>Lift,<span style='color:green'>Lift,<span style='color:red'>Fail,<span style='color:green'>Lift,<span style='color:green'>Lift,<span style='color:green'>Lift,<span style='color:red'>Fail,<span style='color:green'>Lift","<span style='color:red'>Fail,<span style='color:green'>Lift,<span style='color:green'>Lift,<span style='color:red'>Fail,<span style='color:green'>Lift,<span style='color:green'>Lift","0,0,1,1,0,0,0,0,0,1,0,1","0,0,1,1,1,1,0,1,1,1,0,1","0,1,1,0,1,1",10,20,20,"","","","","","",NA,NA,"",NA,NA,NA,NA,NA,NA,NA,NA,NA,NA,NA,NA,NA,NA,NA,NA,NA,NA,NA,NA,NA,NA,NA,NA,NA,NA,NA,NA,NA,NA,NA,NA,NA,NA,NA,NA,NA,NA,NA,"",NA,NA,NA,NA,NA,NA,NA,NA,2025-11-21 02:13:49
"","https://psyc-201.github.io/xiang2023/exp/index1.html?PROLIFIC_PID=REDACTED&STUDY_ID=691f8ca61c6b4dcbb0aeb5f4&SESSION_ID=691fc7bce524825be65c1ef8","fullscreen",1,4212,"0.0-1.0","L9lzJsdZuiSESgJ1Te2RrA/lPCslSuI6g/bHAoFcdoTtE/KmzcOUt0LkoLSmiVCtfVWFnpXY1iE4L5d3mJtoNtevISZdacDcjuGlCSw+e2x2vaHU3P+mAd+gR/WRfxDPUV1Qrq+bcH0peoRnUdG4n9LSCGznidhKvWEGOePo+QipFgoa3Ra3jrhiK14tJaxJ93oUyovWuRRkK8/3IHp7P/Y1yckF0j3xsC/niyjE2U89DROVjjX7CxZCZnqCp8jR45ecrypZ9t9B9kL2jLIRtHVu0bNHrjroLN8CyidmFUNQ1Z3Qn6BTmegq0ajHT2hLq/uSZzkX7utavye8sM5eMg==","691f8ca61c6b4dcbb0aeb5f4","691fc7bce524825be65c1ef8","index1","<span style='color:red'>Fail,<span style='color:red'>Fail,<span style='color:green'>Lift,<span style='color:green'>Lift,<span style='color:red'>Fail,<span style='color:red'>Fail,<span style='color:red'>Fail,<span style='color:red'>Fail,<span style='color:red'>Fail,<span style='color:green'>Lift,<span style='color:red'>Fail,<span style='color:green'>Lift","<span style='color:red'>Fail,<span style='color:red'>Fail,<span style='color:green'>Lift,<span style='color:green'>Lift,<span style='color:green'>Lift,<span style='color:green'>Lift,<span style='color:red'>Fail,<span style='color:green'>Lift,<span style='color:green'>Lift,<span style='color:green'>Lift,<span style='color:red'>Fail,<span style='color:green'>Lift","<span style='color:red'>Fail,<span style='color:green'>Lift,<span style='color:green'>Lift,<span style='color:red'>Fail,<span style='color:green'>Lift,<span style='color:green'>Lift","0,0,1,1,0,0,0,0,0,1,0,1","0,0,1,1,1,1,0,1,1,1,0,1","0,1,1,0,1,1",10,20,20,"true","","","","","",NA,NA,"",NA,NA,NA,NA,NA,NA,NA,NA,NA,NA,NA,NA,NA,NA,NA,NA,NA,NA,NA,NA,NA,NA,NA,NA,NA,NA,NA,NA,NA,NA,NA,NA,NA,NA,NA,NA,NA,NA,NA,"",NA,NA,NA,NA,NA,NA,NA,NA,2025-11-21 02:13:49
"265938.60000002384","https://psyc-201.github.io/xiang2023/exp/index1.html?PROLIFIC_PID=REDACTED&STUDY_ID=691f8ca61c6b4dcbb0aeb5f4&SESSION_ID=691fc7bce524825be65c1ef8","instructions",2,270151,"0.0-2.0","L9lzJsdZuiSESgJ1Te2RrA/lPCslSuI6g/bHAoFcdoTtE/KmzcOUt0LkoLSmiVCtfVWFnpXY1iE4L5d3mJtoNtevISZdacDcjuGlCSw+e2x2vaHU3P+mAd+gR/WRfxDPUV1Qrq+bcH0peoRnUdG4n9LSCGznidhKvWEGOePo+QipFgoa3Ra3jrhiK14tJaxJ93oUyovWuRRkK8/3IHp7P/Y1yckF0j3xsC/niyjE2U89DROVjjX7CxZCZnqCp8jR45ecrypZ9t9B9kL2jLIRtHVu0bNHrjroLN8CyidmFUNQ1Z3Qn6BTmegq0ajHT2hLq/uSZzkX7utavye8sM5eMg==","691f8ca61c6b4dcbb0aeb5f4","691fc7bce524825be65c1ef8","index1","<span style='color:red'>Fail,<span style='color:red'>Fail,<span style='color:green'>Lift,<span style='color:green'>Lift,<span style='color:red'>Fail,<span style='color:red'>Fail,<span style='color:red'>Fail,<span style='color:red'>Fail,<span style='color:red'>Fail,<span style='color:green'>Lift,<span style='color:red'>Fail,<span style='color:green'>Lift","<span style='color:red'>Fail,<span style='color:red'>Fail,<span style='color:green'>Lift,<span style='color:green'>Lift,<span style='color:green'>Lift,<span style='color:green'>Lift,<span style='color:red'>Fail,<span style='color:green'>Lift,<span style='color:green'>Lift,<span style='color:green'>Lift,<span style='color:red'>Fail,<span style='color:green'>Lift","<span style='color:red'>Fail,<span style='color:green'>Lift,<span style='color:green'>Lift,<span style='color:red'>Fail,<span style='color:green'>Lift,<span style='color:green'>Lift","0,0,1,1,0,0,0,0,0,1,0,1","0,0,1,1,1,1,0,1,1,1,0,1","0,1,1,0,1,1",10,20,20,"","[{""page_index"":0,""viewing_time"":41126.300000071526},{""page_index"":1,""viewing_time"":25276.100000023842},{""page_index"":2,""viewing_time"":12155.899999976158},{""page_index"":3,""viewing_time"":140076.19999992847},{""page_index"":4,""viewing_time"":12117.900000095367},{""page_index"":5,""viewing_time"":18870.099999904633},{""page_index"":6,""viewing_time"":16315.900000095367}]","","","","",NA,NA,"",NA,NA,NA,NA,NA,NA,NA,NA,NA,NA,NA,NA,NA,NA,NA,NA,NA,NA,NA,NA,NA,NA,NA,NA,NA,NA,NA,NA,NA,NA,NA,NA,NA,NA,NA,NA,NA,NA,NA,"",NA,NA,NA,NA,NA,NA,NA,NA,2025-11-21 02:13:49
"null","https://psyc-201.github.io/xiang2023/exp/index1.html?PROLIFIC_PID=REDACTED&STUDY_ID=691f8ca61c6b4dcbb0aeb5f4&SESSION_ID=691fc7bce524825be65c1ef8","html-keyboard-response",3,271156,"0.0-3.0","L9lzJsdZuiSESgJ1Te2RrA/lPCslSuI6g/bHAoFcdoTtE/KmzcOUt0LkoLSmiVCtfVWFnpXY1iE4L5d3mJtoNtevISZdacDcjuGlCSw+e2x2vaHU3P+mAd+gR/WRfxDPUV1Qrq+bcH0peoRnUdG4n9LSCGznidhKvWEGOePo+QipFgoa3Ra3jrhiK14tJaxJ93oUyovWuRRkK8/3IHp7P/Y1yckF0j3xsC/niyjE2U89DROVjjX7CxZCZnqCp8jR45ecrypZ9t9B9kL2jLIRtHVu0bNHrjroLN8CyidmFUNQ1Z3Qn6BTmegq0ajHT2hLq/uSZzkX7utavye8sM5eMg==","691f8ca61c6b4dcbb0aeb5f4","691fc7bce524825be65c1ef8","index1","<span style='color:red'>Fail,<span style='color:red'>Fail,<span style='color:green'>Lift,<span style='color:green'>Lift,<span style='color:red'>Fail,<span style='color:red'>Fail,<span style='color:red'>Fail,<span style='color:red'>Fail,<span style='color:red'>Fail,<span style='color:green'>Lift,<span style='color:red'>Fail,<span style='color:green'>Lift","<span style='color:red'>Fail,<span style='color:red'>Fail,<span style='color:green'>Lift,<span style='color:green'>Lift,<span style='color:green'>Lift,<span style='color:green'>Lift,<span style='color:red'>Fail,<span style='color:green'>Lift,<span style='color:green'>Lift,<span style='color:green'>Lift,<span style='color:red'>Fail,<span style='color:green'>Lift","<span style='color:red'>Fail,<span style='color:green'>Lift,<span style='color:green'>Lift,<span style='color:red'>Fail,<span style='color:green'>Lift,<span style='color:green'>Lift","0,0,1,1,0,0,0,0,0,1,0,1","0,0,1,1,1,1,0,1,1,1,0,1","0,1,1,0,1,1",10,20,20,"",""," ","null","","",NA,NA,"",NA,NA,NA,NA,NA,NA,NA,NA,NA,NA,NA,NA,NA,NA,NA,NA,NA,NA,NA,NA,NA,NA,NA,NA,NA,NA,NA,NA,NA,NA,NA,NA,NA,NA,NA,NA,NA,NA,NA,"",NA,NA,NA,NA,NA,NA,NA,NA,2025-11-21 02:13:49
"63345.299999952316","https://psyc-201.github.io/xiang2023/exp/index1.html?PROLIFIC_PID=REDACTED&STUDY_ID=691f8ca61c6b4dcbb0aeb5f4&SESSION_ID=691fc7bce524825be65c1ef8","survey-multi-choice",4,334503,"0.0-4.0","L9lzJsdZuiSESgJ1Te2RrA/lPCslSuI6g/bHAoFcdoTtE/KmzcOUt0LkoLSmiVCtfVWFnpXY1iE4L5d3mJtoNtevISZdacDcjuGlCSw+e2x2vaHU3P+mAd+gR/WRfxDPUV1Qrq+bcH0peoRnUdG4n9LSCGznidhKvWEGOePo+QipFgoa3Ra3jrhiK14tJaxJ93oUyovWuRRkK8/3IHp7P/Y1yckF0j3xsC/niyjE2U89DROVjjX7CxZCZnqCp8jR45ecrypZ9t9B9kL2jLIRtHVu0bNHrjroLN8CyidmFUNQ1Z3Qn6BTmegq0ajHT2hLq/uSZzkX7utavye8sM5eMg==","691f8ca61c6b4dcbb0aeb5f4","691fc7bce524825be65c1ef8","index1","<span style='color:red'>Fail,<span style='color:red'>Fail,<span style='color:green'>Lift,<span style='color:green'>Lift,<span style='color:red'>Fail,<span style='color:red'>Fail,<span style='color:red'>Fail,<span style='color:red'>Fail,<span style='color:red'>Fail,<span style='color:green'>Lift,<span style='color:red'>Fail,<span style='color:green'>Lift","<span style='color:red'>Fail,<span style='color:red'>Fail,<span style='color:green'>Lift,<span style='color:green'>Lift,<span style='color:green'>Lift,<span style='color:green'>Lift,<span style='color:red'>Fail,<span style='color:green'>Lift,<span style='color:green'>Lift,<span style='color:green'>Lift,<span style='color:red'>Fail,<span style='color:green'>Lift","<span style='color:red'>Fail,<span style='color:green'>Lift,<span style='color:green'>Lift,<span style='color:red'>Fail,<span style='color:green'>Lift,<span style='color:green'>Lift","0,0,1,1,0,0,0,0,0,1,0,1","0,0,1,1,1,1,0,1,1,1,0,1","0,1,1,0,1,1",10,20,20,"","","","","{""Q0"":""It consists of multiple contests, each contest with one round."",""Q1"":""Contestants are always the same across contests."",""Q2"":""The box weight always stays the same (equivalent to strength of 5)."",""Q3"":""Each will get $20."",""Q4"":""How close my guesses are to the actual outcome.""}","[0,1,2,3,4]",NA,NA,"",NA,NA,NA,NA,NA,NA,NA,NA,NA,NA,NA,NA,NA,NA,NA,NA,NA,NA,NA,NA,NA,NA,NA,NA,NA,NA,NA,NA,NA,NA,NA,NA,NA,NA,NA,NA,NA,NA,NA,"",NA,NA,NA,NA,NA,NA,NA,NA,2025-11-21 02:13:49
"3148.0999999046326","https://psyc-201.github.io/xiang2023/exp/index1.html?PROLIFIC_PID=REDACTED&STUDY_ID=691f8ca61c6b4dcbb0aeb5f4&SESSION_ID=691fc7bce524825be65c1ef8","html-button-response",5,337652,"0.0-5.0-1.0","L9lzJsdZuiSESgJ1Te2RrA/lPCslSuI6g/bHAoFcdoTtE/KmzcOUt0LkoLSmiVCtfVWFnpXY1iE4L5d3mJtoNtevISZdacDcjuGlCSw+e2x2vaHU3P+mAd+gR/WRfxDPUV1Qrq+bcH0peoRnUdG4n9LSCGznidhKvWEGOePo+QipFgoa3Ra3jrhiK14tJaxJ93oUyovWuRRkK8/3IHp7P/Y1yckF0j3xsC/niyjE2U89DROVjjX7CxZCZnqCp8jR45ecrypZ9t9B9kL2jLIRtHVu0bNHrjroLN8CyidmFUNQ1Z3Qn6BTmegq0ajHT2hLq/uSZzkX7utavye8sM5eMg==","691f8ca61c6b4dcbb0aeb5f4","691fc7bce524825be65c1ef8","index1","<span style='color:red'>Fail,<span style='color:red'>Fail,<span style='color:green'>Lift,<span style='color:green'>Lift,<span style='color:red'>Fail,<span style='color:red'>Fail,<span style='color:red'>Fail,<span style='color:red'>Fail,<span style='color:red'>Fail,<span style='color:green'>Lift,<span style='color:red'>Fail,<span style='color:green'>Lift","<span style='color:red'>Fail,<span style='color:red'>Fail,<span style='color:green'>Lift,<span style='color:green'>Lift,<span style='color:green'>Lift,<span style='color:green'>Lift,<span style='color:red'>Fail,<span style='color:green'>Lift,<span style='color:green'>Lift,<span style='color:green'>Lift,<span style='color:red'>Fail,<span style='color:green'>Lift","<span style='color:red'>Fail,<span style='color:green'>Lift,<span style='color:green'>Lift,<span style='color:red'>Fail,<span style='color:green'>Lift,<span style='color:green'>Lift","0,0,1,1,0,0,0,0,0,1,0,1","0,0,1,1,1,1,0,1,1,1,0,1","0,1,1,0,1,1",10,20,20,"","","<p> Oops! You did not pass the comprehension check. <b>Please note that you have only 1 attempt(s) left.</b> </p>","","","",1,NA,"",NA,NA,NA,NA,NA,NA,NA,NA,NA,NA,NA,NA,NA,NA,NA,NA,NA,NA,NA,NA,NA,NA,NA,NA,NA,NA,NA,NA,NA,NA,NA,NA,NA,NA,NA,NA,NA,NA,NA,"",NA,NA,NA,NA,NA,NA,NA,NA,2025-11-21 02:13:49
"81377.79999995232","https://psyc-201.github.io/xiang2023/exp/index1.html?PROLIFIC_PID=REDACTED&STUDY_ID=691f8ca61c6b4dcbb0aeb5f4&SESSION_ID=691fc7bce524825be65c1ef8","instructions",6,419030,"0.0-6.0-0.0","L9lzJsdZuiSESgJ1Te2RrA/lPCslSuI6g/bHAoFcdoTtE/KmzcOUt0LkoLSmiVCtfVWFnpXY1iE4L5d3mJtoNtevISZdacDcjuGlCSw+e2x2vaHU3P+mAd+gR/WRfxDPUV1Qrq+bcH0peoRnUdG4n9LSCGznidhKvWEGOePo+QipFgoa3Ra3jrhiK14tJaxJ93oUyovWuRRkK8/3IHp7P/Y1yckF0j3xsC/niyjE2U89DROVjjX7CxZCZnqCp8jR45ecrypZ9t9B9kL2jLIRtHVu0bNHrjroLN8CyidmFUNQ1Z3Qn6BTmegq0ajHT2hLq/uSZzkX7utavye8sM5eMg==","691f8ca61c6b4dcbb0aeb5f4","691fc7bce524825be65c1ef8","index1","<span style='color:red'>Fail,<span style='color:red'>Fail,<span style='color:green'>Lift,<span style='color:green'>Lift,<span style='color:red'>Fail,<span style='color:red'>Fail,<span style='color:red'>Fail,<span style='color:red'>Fail,<span style='color:red'>Fail,<span style='color:green'>Lift,<span style='color:red'>Fail,<span style='color:green'>Lift","<span style='color:red'>Fail,<span style='color:red'>Fail,<span style='color:green'>Lift,<span style='color:green'>Lift,<span style='color:green'>Lift,<span style='color:green'>Lift,<span style='color:red'>Fail,<span style='color:green'>Lift,<span style='color:green'>Lift,<span style='color:green'>Lift,<span style='color:red'>Fail,<span style='color:green'>Lift","<span style='color:red'>Fail,<span style='color:green'>Lift,<span style='color:green'>Lift,<span style='color:red'>Fail,<span style='color:green'>Lift,<span style='color:green'>Lift","0,0,1,1,0,0,0,0,0,1,0,1","0,0,1,1,1,1,0,1,1,1,0,1","0,1,1,0,1,1",10,20,20,"","[{""page_index"":0,""viewing_time"":27663.399999976158},{""page_index"":1,""viewing_time"":9507.800000071526},{""page_index"":2,""viewing_time"":10496.099999904633},{""page_index"":3,""viewing_time"":9577.900000095367},{""page_index"":4,""viewing_time"":9182.099999904633},{""page_index"":5,""viewing_time"":13413.900000095367},{""page_index"":6,""viewing_time"":1536.3999999761581}]","","","","",NA,NA,"",NA,NA,NA,NA,NA,NA,NA,NA,NA,NA,NA,NA,NA,NA,NA,NA,NA,NA,NA,NA,NA,NA,NA,NA,NA,NA,NA,NA,NA,NA,NA,NA,NA,NA,NA,NA,NA,NA,NA,"",NA,NA,NA,NA,NA,NA,NA,NA,2025-11-21 02:13:49
"null","https://psyc-201.github.io/xiang2023/exp/index1.html?PROLIFIC_PID=REDACTED&STUDY_ID=691f8ca61c6b4dcbb0aeb5f4&SESSION_ID=691fc7bce524825be65c1ef8","html-keyboard-response",7,420039,"0.0-6.0-1.0","L9lzJsdZuiSESgJ1Te2RrA/lPCslSuI6g/bHAoFcdoTtE/KmzcOUt0LkoLSmiVCtfVWFnpXY1iE4L5d3mJtoNtevISZdacDcjuGlCSw+e2x2vaHU3P+mAd+gR/WRfxDPUV1Qrq+bcH0peoRnUdG4n9LSCGznidhKvWEGOePo+QipFgoa3Ra3jrhiK14tJaxJ93oUyovWuRRkK8/3IHp7P/Y1yckF0j3xsC/niyjE2U89DROVjjX7CxZCZnqCp8jR45ecrypZ9t9B9kL2jLIRtHVu0bNHrjroLN8CyidmFUNQ1Z3Qn6BTmegq0ajHT2hLq/uSZzkX7utavye8sM5eMg==","691f8ca61c6b4dcbb0aeb5f4","691fc7bce524825be65c1ef8","index1","<span style='color:red'>Fail,<span style='color:red'>Fail,<span style='color:green'>Lift,<span style='color:green'>Lift,<span style='color:red'>Fail,<span style='color:red'>Fail,<span style='color:red'>Fail,<span style='color:red'>Fail,<span style='color:red'>Fail,<span style='color:green'>Lift,<span style='color:red'>Fail,<span style='color:green'>Lift","<span style='color:red'>Fail,<span style='color:red'>Fail,<span style='color:green'>Lift,<span style='color:green'>Lift,<span style='color:green'>Lift,<span style='color:green'>Lift,<span style='color:red'>Fail,<span style='color:green'>Lift,<span style='color:green'>Lift,<span style='color:green'>Lift,<span style='color:red'>Fail,<span style='color:green'>Lift","<span style='color:red'>Fail,<span style='color:green'>Lift,<span style='color:green'>Lift,<span style='color:red'>Fail,<span style='color:green'>Lift,<span style='color:green'>Lift","0,0,1,1,0,0,0,0,0,1,0,1","0,0,1,1,1,1,0,1,1,1,0,1","0,1,1,0,1,1",10,20,20,"",""," ","null","","",NA,NA,"",NA,NA,NA,NA,NA,NA,NA,NA,NA,NA,NA,NA,NA,NA,NA,NA,NA,NA,NA,NA,NA,NA,NA,NA,NA,NA,NA,NA,NA,NA,NA,NA,NA,NA,NA,NA,NA,NA,NA,"",NA,NA,NA,NA,NA,NA,NA,NA,2025-11-21 02:13:49
"33038.10000002384","https://psyc-201.github.io/xiang2023/exp/index1.html?PROLIFIC_PID=REDACTED&STUDY_ID=691f8ca61c6b4dcbb0aeb5f4&SESSION_ID=691fc7bce524825be65c1ef8","survey-multi-choice",8,453078,"0.0-7.0-0.0","L9lzJsdZuiSESgJ1Te2RrA/lPCslSuI6g/bHAoFcdoTtE/KmzcOUt0LkoLSmiVCtfVWFnpXY1iE4L5d3mJtoNtevISZdacDcjuGlCSw+e2x2vaHU3P+mAd+gR/WRfxDPUV1Qrq+bcH0peoRnUdG4n9LSCGznidhKvWEGOePo+QipFgoa3Ra3jrhiK14tJaxJ93oUyovWuRRkK8/3IHp7P/Y1yckF0j3xsC/niyjE2U89DROVjjX7CxZCZnqCp8jR45ecrypZ9t9B9kL2jLIRtHVu0bNHrjroLN8CyidmFUNQ1Z3Qn6BTmegq0ajHT2hLq/uSZzkX7utavye8sM5eMg==","691f8ca61c6b4dcbb0aeb5f4","691fc7bce524825be65c1ef8","index1","<span style='color:red'>Fail,<span style='color:red'>Fail,<span style='color:green'>Lift,<span style='color:green'>Lift,<span style='color:red'>Fail,<span style='color:red'>Fail,<span style='color:red'>Fail,<span style='color:red'>Fail,<span style='color:red'>Fail,<span style='color:green'>Lift,<span style='color:red'>Fail,<span style='color:green'>Lift","<span style='color:red'>Fail,<span style='color:red'>Fail,<span style='color:green'>Lift,<span style='color:green'>Lift,<span style='color:green'>Lift,<span style='color:green'>Lift,<span style='color:red'>Fail,<span style='color:green'>Lift,<span style='color:green'>Lift,<span style='color:green'>Lift,<span style='color:red'>Fail,<span style='color:green'>Lift","<span style='color:red'>Fail,<span style='color:green'>Lift,<span style='color:green'>Lift,<span style='color:red'>Fail,<span style='color:green'>Lift,<span style='color:green'>Lift","0,0,1,1,0,0,0,0,0,1,0,1","0,0,1,1,1,1,0,1,1,1,0,1","0,1,1,0,1,1",10,20,20,"","","","","{""Q0"":""It consists of multiple contests, each contest with three rounds."",""Q1"":""When a new contest begins."",""Q2"":""The box weight always stays the same (equivalent to strength of 5)."",""Q3"":""Each will get $20."",""Q4"":""How close my guesses are to the actual outcome.""}","[0,1,2,3,4]",NA,NA,"",NA,NA,NA,NA,NA,NA,NA,NA,NA,NA,NA,NA,NA,NA,NA,NA,NA,NA,NA,NA,NA,NA,NA,NA,NA,NA,NA,NA,NA,NA,NA,NA,NA,NA,NA,NA,NA,NA,NA,"",NA,NA,NA,NA,NA,NA,NA,NA,2025-11-21 02:13:49
"5941.200000047684","https://psyc-201.github.io/xiang2023/exp/index1.html?PROLIFIC_PID=REDACTED&STUDY_ID=691f8ca61c6b4dcbb0aeb5f4&SESSION_ID=691fc7bce524825be65c1ef8","instructions",9,459022,"0.0-305.0","L9lzJsdZuiSESgJ1Te2RrA/lPCslSuI6g/bHAoFcdoTtE/KmzcOUt0LkoLSmiVCtfVWFnpXY1iE4L5d3mJtoNtevISZdacDcjuGlCSw+e2x2vaHU3P+mAd+gR/WRfxDPUV1Qrq+bcH0peoRnUdG4n9LSCGznidhKvWEGOePo+QipFgoa3Ra3jrhiK14tJaxJ93oUyovWuRRkK8/3IHp7P/Y1yckF0j3xsC/niyjE2U89DROVjjX7CxZCZnqCp8jR45ecrypZ9t9B9kL2jLIRtHVu0bNHrjroLN8CyidmFUNQ1Z3Qn6BTmegq0ajHT2hLq/uSZzkX7utavye8sM5eMg==","691f8ca61c6b4dcbb0aeb5f4","691fc7bce524825be65c1ef8","index1","<span style='color:red'>Fail,<span style='color:red'>Fail,<span style='color:green'>Lift,<span style='color:green'>Lift,<span style='color:red'>Fail,<span style='color:red'>Fail,<span style='color:red'>Fail,<span style='color:red'>Fail,<span style='color:red'>Fail,<span style='color:green'>Lift,<span style='color:red'>Fail,<span style='color:green'>Lift","<span style='color:red'>Fail,<span style='color:red'>Fail,<span style='color:green'>Lift,<span style='color:green'>Lift,<span style='color:green'>Lift,<span style='color:green'>Lift,<span style='color:red'>Fail,<span style='color:green'>Lift,<span style='color:green'>Lift,<span style='color:green'>Lift,<span style='color:red'>Fail,<span style='color:green'>Lift","<span style='color:red'>Fail,<span style='color:green'>Lift,<span style='color:green'>Lift,<span style='color:red'>Fail,<span style='color:green'>Lift,<span style='color:green'>Lift","0,0,1,1,0,0,0,0,0,1,0,1","0,0,1,1,1,1,0,1,1,1,0,1","0,1,1,0,1,1",10,20,20,"","[{""page_index"":0,""viewing_time"":2542.7999999523163},{""page_index"":1,""viewing_time"":3398.3000000715256}]","","","","",NA,NA,"",NA,NA,NA,NA,NA,NA,NA,NA,NA,NA,NA,NA,NA,NA,NA,NA,NA,NA,NA,NA,NA,NA,NA,NA,NA,NA,NA,NA,NA,NA,NA,NA,NA,NA,NA,NA,NA,NA,NA,"",NA,NA,NA,NA,NA,NA,NA,NA,2025-11-21 02:13:49
"null","https://psyc-201.github.io/xiang2023/exp/index1.html?PROLIFIC_PID=REDACTED&STUDY_ID=691f8ca61c6b4dcbb0aeb5f4&SESSION_ID=691fc7bce524825be65c1ef8","html-keyboard-response",10,460032,"0.0-306.0","L9lzJsdZuiSESgJ1Te2RrA/lPCslSuI6g/bHAoFcdoTtE/KmzcOUt0LkoLSmiVCtfVWFnpXY1iE4L5d3mJtoNtevISZdacDcjuGlCSw+e2x2vaHU3P+mAd+gR/WRfxDPUV1Qrq+bcH0peoRnUdG4n9LSCGznidhKvWEGOePo+QipFgoa3Ra3jrhiK14tJaxJ93oUyovWuRRkK8/3IHp7P/Y1yckF0j3xsC/niyjE2U89DROVjjX7CxZCZnqCp8jR45ecrypZ9t9B9kL2jLIRtHVu0bNHrjroLN8CyidmFUNQ1Z3Qn6BTmegq0ajHT2hLq/uSZzkX7utavye8sM5eMg==","691f8ca61c6b4dcbb0aeb5f4","691fc7bce524825be65c1ef8","index1","<span style='color:red'>Fail,<span style='color:red'>Fail,<span style='color:green'>Lift,<span style='color:green'>Lift,<span style='color:red'>Fail,<span style='color:red'>Fail,<span style='color:red'>Fail,<span style='color:red'>Fail,<span style='color:red'>Fail,<span style='color:green'>Lift,<span style='color:red'>Fail,<span style='color:green'>Lift","<span style='color:red'>Fail,<span style='color:red'>Fail,<span style='color:green'>Lift,<span style='color:green'>Lift,<span style='color:green'>Lift,<span style='color:green'>Lift,<span style='color:red'>Fail,<span style='color:green'>Lift,<span style='color:green'>Lift,<span style='color:green'>Lift,<span style='color:red'>Fail,<span style='color:green'>Lift","<span style='color:red'>Fail,<span style='color:green'>Lift,<span style='color:green'>Lift,<span style='color:red'>Fail,<span style='color:green'>Lift,<span style='color:green'>Lift","0,0,1,1,0,0,0,0,0,1,0,1","0,0,1,1,1,1,0,1,1,1,0,1","0,1,1,0,1,1",10,20,20,"",""," ","null","","",NA,1,"",NA,NA,NA,NA,NA,NA,NA,NA,NA,NA,NA,NA,NA,NA,NA,NA,NA,NA,NA,NA,NA,NA,NA,NA,NA,NA,NA,NA,NA,NA,NA,NA,NA,NA,NA,NA,NA,NA,NA,"",NA,NA,NA,NA,NA,NA,NA,NA,2025-11-21 02:13:49
"null","https://psyc-201.github.io/xiang2023/exp/index1.html?PROLIFIC_PID=REDACTED&STUDY_ID=691f8ca61c6b4dcbb0aeb5f4&SESSION_ID=691fc7bce524825be65c1ef8","html-keyboard-response",11,463033,"0.0-307.0","L9lzJsdZuiSESgJ1Te2RrA/lPCslSuI6g/bHAoFcdoTtE/KmzcOUt0LkoLSmiVCtfVWFnpXY1iE4L5d3mJtoNtevISZdacDcjuGlCSw+e2x2vaHU3P+mAd+gR/WRfxDPUV1Qrq+bcH0peoRnUdG4n9LSCGznidhKvWEGOePo+QipFgoa3Ra3jrhiK14tJaxJ93oUyovWuRRkK8/3IHp7P/Y1yckF0j3xsC/niyjE2U89DROVjjX7CxZCZnqCp8jR45ecrypZ9t9B9kL2jLIRtHVu0bNHrjroLN8CyidmFUNQ1Z3Qn6BTmegq0ajHT2hLq/uSZzkX7utavye8sM5eMg==","691f8ca61c6b4dcbb0aeb5f4","691fc7bce524825be65c1ef8","index1","<span style='color:red'>Fail,<span style='color:red'>Fail,<span style='color:green'>Lift,<span style='color:green'>Lift,<span style='color:red'>Fail,<span style='color:red'>Fail,<span style='color:red'>Fail,<span style='color:red'>Fail,<span style='color:red'>Fail,<span style='color:green'>Lift,<span style='color:red'>Fail,<span style='color:green'>Lift","<span style='color:red'>Fail,<span style='color:red'>Fail,<span style='color:green'>Lift,<span style='color:green'>Lift,<span style='color:green'>Lift,<span style='color:green'>Lift,<span style='color:red'>Fail,<span style='color:green'>Lift,<span style='color:green'>Lift,<span style='color:green'>Lift,<span style='color:red'>Fail,<span style='color:green'>Lift","<span style='color:red'>Fail,<span style='color:green'>Lift,<span style='color:green'>Lift,<span style='color:red'>Fail,<span style='color:green'>Lift,<span style='color:green'>Lift","0,0,1,1,0,0,0,0,0,1,0,1","0,0,1,1,1,1,0,1,1,1,0,1","0,1,1,0,1,1",10,20,20,"","","<p style='font-size:30px'><b> New Contest! </b></p>","null","","",NA,1,"",NA,NA,NA,NA,NA,NA,NA,NA,NA,NA,NA,NA,NA,NA,NA,NA,NA,NA,NA,NA,NA,NA,NA,NA,NA,NA,NA,NA,NA,NA,NA,NA,NA,NA,NA,NA,NA,NA,NA,"",NA,NA,NA,NA,NA,NA,NA,NA,2025-11-21 02:13:49
"38905.700000047684","https://psyc-201.github.io/xiang2023/exp/index1.html?PROLIFIC_PID=REDACTED&STUDY_ID=691f8ca61c6b4dcbb0aeb5f4&SESSION_ID=691fc7bce524825be65c1ef8","survey-html-form",12,501940,"0.0-308.0","L9lzJsdZuiSESgJ1Te2RrA/lPCslSuI6g/bHAoFcdoTtE/KmzcOUt0LkoLSmiVCtfVWFnpXY1iE4L5d3mJtoNtevISZdacDcjuGlCSw+e2x2vaHU3P+mAd+gR/WRfxDPUV1Qrq+bcH0peoRnUdG4n9LSCGznidhKvWEGOePo+QipFgoa3Ra3jrhiK14tJaxJ93oUyovWuRRkK8/3IHp7P/Y1yckF0j3xsC/niyjE2U89DROVjjX7CxZCZnqCp8jR45ecrypZ9t9B9kL2jLIRtHVu0bNHrjroLN8CyidmFUNQ1Z3Qn6BTmegq0ajHT2hLq/uSZzkX7utavye8sM5eMg==","691f8ca61c6b4dcbb0aeb5f4","691fc7bce524825be65c1ef8","index1","<span style='color:red'>Fail,<span style='color:red'>Fail,<span style='color:green'>Lift,<span style='color:green'>Lift,<span style='color:red'>Fail,<span style='color:red'>Fail,<span style='color:red'>Fail,<span style='color:red'>Fail,<span style='color:red'>Fail,<span style='color:green'>Lift,<span style='color:red'>Fail,<span style='color:green'>Lift","<span style='color:red'>Fail,<span style='color:red'>Fail,<span style='color:green'>Lift,<span style='color:green'>Lift,<span style='color:green'>Lift,<span style='color:green'>Lift,<span style='color:red'>Fail,<span style='color:green'>Lift,<span style='color:green'>Lift,<span style='color:green'>Lift,<span style='color:red'>Fail,<span style='color:green'>Lift","<span style='color:red'>Fail,<span style='color:green'>Lift,<span style='color:green'>Lift,<span style='color:red'>Fail,<span style='color:green'>Lift,<span style='color:green'>Lift","0,0,1,1,0,0,0,0,0,1,0,1","0,0,1,1,1,1,0,1,1,1,0,1","0,1,1,0,1,1",10,20,20,"","","","","{""box1"":""2"",""box2"":""5"",""box4"":""100""}","",NA,1,"round1_outcome",1,1,1,2,5,NA,100,0,1,10,2,5,NA,100,0,1,10,NA,NA,NA,NA,NA,NA,NA,NA,NA,NA,NA,NA,NA,NA,NA,NA,NA,NA,NA,NA,NA,NA,"",NA,NA,NA,NA,NA,NA,NA,NA,2025-11-21 02:13:49
"17534.700000047684","https://psyc-201.github.io/xiang2023/exp/index1.html?PROLIFIC_PID=REDACTED&STUDY_ID=691f8ca61c6b4dcbb0aeb5f4&SESSION_ID=691fc7bce524825be65c1ef8","survey-html-form",13,519476,"0.0-309.0","L9lzJsdZuiSESgJ1Te2RrA/lPCslSuI6g/bHAoFcdoTtE/KmzcOUt0LkoLSmiVCtfVWFnpXY1iE4L5d3mJtoNtevISZdacDcjuGlCSw+e2x2vaHU3P+mAd+gR/WRfxDPUV1Qrq+bcH0peoRnUdG4n9LSCGznidhKvWEGOePo+QipFgoa3Ra3jrhiK14tJaxJ93oUyovWuRRkK8/3IHp7P/Y1yckF0j3xsC/niyjE2U89DROVjjX7CxZCZnqCp8jR45ecrypZ9t9B9kL2jLIRtHVu0bNHrjroLN8CyidmFUNQ1Z3Qn6BTmegq0ajHT2hLq/uSZzkX7utavye8sM5eMg==","691f8ca61c6b4dcbb0aeb5f4","691fc7bce524825be65c1ef8","index1","<span style='color:red'>Fail,<span style='color:red'>Fail,<span style='color:green'>Lift,<span style='color:green'>Lift,<span style='color:red'>Fail,<span style='color:red'>Fail,<span style='color:red'>Fail,<span style='color:red'>Fail,<span style='color:red'>Fail,<span style='color:green'>Lift,<span style='color:red'>Fail,<span style='color:green'>Lift","<span style='color:red'>Fail,<span style='color:red'>Fail,<span style='color:green'>Lift,<span style='color:green'>Lift,<span style='color:green'>Lift,<span style='color:green'>Lift,<span style='color:red'>Fail,<span style='color:green'>Lift,<span style='color:green'>Lift,<span style='color:green'>Lift,<span style='color:red'>Fail,<span style='color:green'>Lift","<span style='color:red'>Fail,<span style='color:green'>Lift,<span style='color:green'>Lift,<span style='color:red'>Fail,<span style='color:green'>Lift,<span style='color:green'>Lift","0,0,1,1,0,0,0,0,0,1,0,1","0,0,1,1,1,1,0,1,1,1,0,1","0,1,1,0,1,1",10,20,20,"","","","","{""box1"":""50"",""box2"":""50""}","",NA,1,"round2_ready",2,1,2,NA,NA,NA,NA,NA,NA,NA,NA,NA,NA,NA,NA,NA,NA,50,50,50,50,NA,NA,NA,NA,NA,NA,NA,NA,NA,NA,NA,NA,NA,NA,NA,NA,NA,NA,"",NA,NA,NA,NA,NA,NA,NA,NA,2025-11-21 02:13:49
"20120.400000095367","https://psyc-201.github.io/xiang2023/exp/index1.html?PROLIFIC_PID=REDACTED&STUDY_ID=691f8ca61c6b4dcbb0aeb5f4&SESSION_ID=691fc7bce524825be65c1ef8","survey-html-form",14,539598,"0.0-310.0","L9lzJsdZuiSESgJ1Te2RrA/lPCslSuI6g/bHAoFcdoTtE/KmzcOUt0LkoLSmiVCtfVWFnpXY1iE4L5d3mJtoNtevISZdacDcjuGlCSw+e2x2vaHU3P+mAd+gR/WRfxDPUV1Qrq+bcH0peoRnUdG4n9LSCGznidhKvWEGOePo+QipFgoa3Ra3jrhiK14tJaxJ93oUyovWuRRkK8/3IHp7P/Y1yckF0j3xsC/niyjE2U89DROVjjX7CxZCZnqCp8jR45ecrypZ9t9B9kL2jLIRtHVu0bNHrjroLN8CyidmFUNQ1Z3Qn6BTmegq0ajHT2hLq/uSZzkX7utavye8sM5eMg==","691f8ca61c6b4dcbb0aeb5f4","691fc7bce524825be65c1ef8","index1","<span style='color:red'>Fail,<span style='color:red'>Fail,<span style='color:green'>Lift,<span style='color:green'>Lift,<span style='color:red'>Fail,<span style='color:red'>Fail,<span style='color:red'>Fail,<span style='color:red'>Fail,<span style='color:red'>Fail,<span style='color:green'>Lift,<span style='color:red'>Fail,<span style='color:green'>Lift","<span style='color:red'>Fail,<span style='color:red'>Fail,<span style='color:green'>Lift,<span style='color:green'>Lift,<span style='color:green'>Lift,<span style='color:green'>Lift,<span style='color:red'>Fail,<span style='color:green'>Lift,<span style='color:green'>Lift,<span style='color:green'>Lift,<span style='color:red'>Fail,<span style='color:green'>Lift","<span style='color:red'>Fail,<span style='color:green'>Lift,<span style='color:green'>Lift,<span style='color:red'>Fail,<span style='color:green'>Lift,<span style='color:green'>Lift","0,0,1,1,0,0,0,0,0,1,0,1","0,0,1,1,1,1,0,1,1,1,0,1","0,1,1,0,1,1",10,20,20,"","","","","{""box1"":""10"",""box2"":""5"",""box3"":""50"",""box4"":""100""}","",NA,1,"round2_outcome",3,1,2,10,5,50,100,1,1,20,NA,NA,NA,NA,NA,NA,NA,NA,NA,NA,NA,10,5,50,100,1,1,20,NA,NA,NA,NA,NA,NA,NA,NA,NA,NA,NA,"",NA,NA,NA,NA,NA,NA,NA,NA,2025-11-21 02:13:49
"4701.199999928474","https://psyc-201.github.io/xiang2023/exp/index1.html?PROLIFIC_PID=REDACTED&STUDY_ID=691f8ca61c6b4dcbb0aeb5f4&SESSION_ID=691fc7bce524825be65c1ef8","survey-html-form",15,544300,"0.0-311.0","L9lzJsdZuiSESgJ1Te2RrA/lPCslSuI6g/bHAoFcdoTtE/KmzcOUt0LkoLSmiVCtfVWFnpXY1iE4L5d3mJtoNtevISZdacDcjuGlCSw+e2x2vaHU3P+mAd+gR/WRfxDPUV1Qrq+bcH0peoRnUdG4n9LSCGznidhKvWEGOePo+QipFgoa3Ra3jrhiK14tJaxJ93oUyovWuRRkK8/3IHp7P/Y1yckF0j3xsC/niyjE2U89DROVjjX7CxZCZnqCp8jR45ecrypZ9t9B9kL2jLIRtHVu0bNHrjroLN8CyidmFUNQ1Z3Qn6BTmegq0ajHT2hLq/uSZzkX7utavye8sM5eMg==","691f8ca61c6b4dcbb0aeb5f4","691fc7bce524825be65c1ef8","index1","<span style='color:red'>Fail,<span style='color:red'>Fail,<span style='color:green'>Lift,<span style='color:green'>Lift,<span style='color:red'>Fail,<span style='color:red'>Fail,<span style='color:red'>Fail,<span style='color:red'>Fail,<span style='color:red'>Fail,<span style='color:green'>Lift,<span style='color:red'>Fail,<span style='color:green'>Lift","<span style='color:red'>Fail,<span style='color:red'>Fail,<span style='color:green'>Lift,<span style='color:green'>Lift,<span style='color:green'>Lift,<span style='color:green'>Lift,<span style='color:red'>Fail,<span style='color:green'>Lift,<span style='color:green'>Lift,<span style='color:green'>Lift,<span style='color:red'>Fail,<span style='color:green'>Lift","<span style='color:red'>Fail,<span style='color:green'>Lift,<span style='color:green'>Lift,<span style='color:red'>Fail,<span style='color:green'>Lift,<span style='color:green'>Lift","0,0,1,1,0,0,0,0,0,1,0,1","0,0,1,1,1,1,0,1,1,1,0,1","0,1,1,0,1,1",10,20,20,"","","","","{""box1"":""100""}","",NA,1,"round3_ready",4,1,3,NA,NA,NA,NA,NA,NA,NA,NA,NA,NA,NA,NA,NA,NA,100,100,NA,NA,NA,NA,NA,NA,NA,NA,NA,100,100,NA,NA,NA,NA,NA,NA,NA,NA,NA,"",NA,NA,NA,NA,NA,NA,NA,NA,2025-11-21 02:13:49
"16967.199999928474","https://psyc-201.github.io/xiang2023/exp/index1.html?PROLIFIC_PID=REDACTED&STUDY_ID=691f8ca61c6b4dcbb0aeb5f4&SESSION_ID=691fc7bce524825be65c1ef8","survey-html-form",16,561267,"0.0-312.0-0.0","L9lzJsdZuiSESgJ1Te2RrA/lPCslSuI6g/bHAoFcdoTtE/KmzcOUt0LkoLSmiVCtfVWFnpXY1iE4L5d3mJtoNtevISZdacDcjuGlCSw+e2x2vaHU3P+mAd+gR/WRfxDPUV1Qrq+bcH0peoRnUdG4n9LSCGznidhKvWEGOePo+QipFgoa3Ra3jrhiK14tJaxJ93oUyovWuRRkK8/3IHp7P/Y1yckF0j3xsC/niyjE2U89DROVjjX7CxZCZnqCp8jR45ecrypZ9t9B9kL2jLIRtHVu0bNHrjroLN8CyidmFUNQ1Z3Qn6BTmegq0ajHT2hLq/uSZzkX7utavye8sM5eMg==","691f8ca61c6b4dcbb0aeb5f4","691fc7bce524825be65c1ef8","index1","<span style='color:red'>Fail,<span style='color:red'>Fail,<span style='color:green'>Lift,<span style='color:green'>Lift,<span style='color:red'>Fail,<span style='color:red'>Fail,<span style='color:red'>Fail,<span style='color:red'>Fail,<span style='color:red'>Fail,<span style='color:green'>Lift,<span style='color:red'>Fail,<span style='color:green'>Lift","<span style='color:red'>Fail,<span style='color:red'>Fail,<span style='color:green'>Lift,<span style='color:green'>Lift,<span style='color:green'>Lift,<span style='color:green'>Lift,<span style='color:red'>Fail,<span style='color:green'>Lift,<span style='color:green'>Lift,<span style='color:green'>Lift,<span style='color:red'>Fail,<span style='color:green'>Lift","<span style='color:red'>Fail,<span style='color:green'>Lift,<span style='color:green'>Lift,<span style='color:red'>Fail,<span style='color:green'>Lift,<span style='color:green'>Lift","0,0,1,1,0,0,0,0,0,1,0,1","0,0,1,1,1,1,0,1,1,1,0,1","0,1,1,0,1,1",10,20,20,"","","","","{""box1"":""10"",""box2"":""5"",""box3"":""50"",""box4"":""100""}","",NA,2,"round3_lift",5,1,3,10,5,50,100,1,1,20,NA,NA,NA,NA,NA,NA,NA,NA,NA,NA,NA,NA,NA,NA,NA,NA,NA,NA,NA,NA,10,5,50,100,1,1,20,NA,NA,"",NA,NA,NA,NA,NA,NA,NA,NA,2025-11-21 02:13:49
"null","https://psyc-201.github.io/xiang2023/exp/index1.html?PROLIFIC_PID=REDACTED&STUDY_ID=691f8ca61c6b4dcbb0aeb5f4&SESSION_ID=691fc7bce524825be65c1ef8","html-keyboard-response",17,564269,"0.0-316.0","L9lzJsdZuiSESgJ1Te2RrA/lPCslSuI6g/bHAoFcdoTtE/KmzcOUt0LkoLSmiVCtfVWFnpXY1iE4L5d3mJtoNtevISZdacDcjuGlCSw+e2x2vaHU3P+mAd+gR/WRfxDPUV1Qrq+bcH0peoRnUdG4n9LSCGznidhKvWEGOePo+QipFgoa3Ra3jrhiK14tJaxJ93oUyovWuRRkK8/3IHp7P/Y1yckF0j3xsC/niyjE2U89DROVjjX7CxZCZnqCp8jR45ecrypZ9t9B9kL2jLIRtHVu0bNHrjroLN8CyidmFUNQ1Z3Qn6BTmegq0ajHT2hLq/uSZzkX7utavye8sM5eMg==","691f8ca61c6b4dcbb0aeb5f4","691fc7bce524825be65c1ef8","index1","<span style='color:red'>Fail,<span style='color:red'>Fail,<span style='color:green'>Lift,<span style='color:green'>Lift,<span style='color:red'>Fail,<span style='color:red'>Fail,<span style='color:red'>Fail,<span style='color:red'>Fail,<span style='color:red'>Fail,<span style='color:green'>Lift,<span style='color:red'>Fail,<span style='color:green'>Lift","<span style='color:red'>Fail,<span style='color:red'>Fail,<span style='color:green'>Lift,<span style='color:green'>Lift,<span style='color:green'>Lift,<span style='color:green'>Lift,<span style='color:red'>Fail,<span style='color:green'>Lift,<span style='color:green'>Lift,<span style='color:green'>Lift,<span style='color:red'>Fail,<span style='color:green'>Lift","<span style='color:red'>Fail,<span style='color:green'>Lift,<span style='color:green'>Lift,<span style='color:red'>Fail,<span style='color:green'>Lift,<span style='color:green'>Lift","0,0,1,1,0,0,0,0,0,1,0,1","0,0,1,1,1,1,0,1,1,1,0,1","0,1,1,0,1,1",10,20,20,"","","<p style='font-size:30px'><b> New Contest! </b></p>","null","","",NA,2,"",NA,NA,NA,NA,NA,NA,NA,NA,NA,NA,NA,NA,NA,NA,NA,NA,NA,NA,NA,NA,NA,NA,NA,NA,NA,NA,NA,NA,NA,NA,NA,NA,NA,NA,NA,NA,NA,NA,NA,"",NA,NA,NA,NA,NA,NA,NA,NA,2025-11-21 02:13:49
"7019.400000095367","https://psyc-201.github.io/xiang2023/exp/index1.html?PROLIFIC_PID=REDACTED&STUDY_ID=691f8ca61c6b4dcbb0aeb5f4&SESSION_ID=691fc7bce524825be65c1ef8","survey-html-form",18,571289,"0.0-317.0","L9lzJsdZuiSESgJ1Te2RrA/lPCslSuI6g/bHAoFcdoTtE/KmzcOUt0LkoLSmiVCtfVWFnpXY1iE4L5d3mJtoNtevISZdacDcjuGlCSw+e2x2vaHU3P+mAd+gR/WRfxDPUV1Qrq+bcH0peoRnUdG4n9LSCGznidhKvWEGOePo+QipFgoa3Ra3jrhiK14tJaxJ93oUyovWuRRkK8/3IHp7P/Y1yckF0j3xsC/niyjE2U89DROVjjX7CxZCZnqCp8jR45ecrypZ9t9B9kL2jLIRtHVu0bNHrjroLN8CyidmFUNQ1Z3Qn6BTmegq0ajHT2hLq/uSZzkX7utavye8sM5eMg==","691f8ca61c6b4dcbb0aeb5f4","691fc7bce524825be65c1ef8","index1","<span style='color:red'>Fail,<span style='color:red'>Fail,<span style='color:green'>Lift,<span style='color:green'>Lift,<span style='color:red'>Fail,<span style='color:red'>Fail,<span style='color:red'>Fail,<span style='color:red'>Fail,<span style='color:red'>Fail,<span style='color:green'>Lift,<span style='color:red'>Fail,<span style='color:green'>Lift","<span style='color:red'>Fail,<span style='color:red'>Fail,<span style='color:green'>Lift,<span style='color:green'>Lift,<span style='color:green'>Lift,<span style='color:green'>Lift,<span style='color:red'>Fail,<span style='color:green'>Lift,<span style='color:green'>Lift,<span style='color:green'>Lift,<span style='color:red'>Fail,<span style='color:green'>Lift","<span style='color:red'>Fail,<span style='color:green'>Lift,<span style='color:green'>Lift,<span style='color:red'>Fail,<span style='color:green'>Lift,<span style='color:green'>Lift","0,0,1,1,0,0,0,0,0,1,0,1","0,0,1,1,1,1,0,1,1,1,0,1","0,1,1,0,1,1",10,20,20,"","","","","{""box1"":""2"",""box2"":""2""}","",NA,2,"round1_outcome",1,2,1,2,2,NA,NA,0,0,10,2,2,NA,NA,0,0,10,NA,NA,NA,NA,NA,NA,NA,NA,NA,NA,NA,NA,NA,NA,NA,NA,NA,NA,NA,NA,NA,NA,"",NA,NA,NA,NA,NA,NA,NA,NA,2025-11-21 02:13:49
"5761.800000071526","https://psyc-201.github.io/xiang2023/exp/index1.html?PROLIFIC_PID=REDACTED&STUDY_ID=691f8ca61c6b4dcbb0aeb5f4&SESSION_ID=691fc7bce524825be65c1ef8","survey-html-form",19,577052,"0.0-318.0","L9lzJsdZuiSESgJ1Te2RrA/lPCslSuI6g/bHAoFcdoTtE/KmzcOUt0LkoLSmiVCtfVWFnpXY1iE4L5d3mJtoNtevISZdacDcjuGlCSw+e2x2vaHU3P+mAd+gR/WRfxDPUV1Qrq+bcH0peoRnUdG4n9LSCGznidhKvWEGOePo+QipFgoa3Ra3jrhiK14tJaxJ93oUyovWuRRkK8/3IHp7P/Y1yckF0j3xsC/niyjE2U89DROVjjX7CxZCZnqCp8jR45ecrypZ9t9B9kL2jLIRtHVu0bNHrjroLN8CyidmFUNQ1Z3Qn6BTmegq0ajHT2hLq/uSZzkX7utavye8sM5eMg==","691f8ca61c6b4dcbb0aeb5f4","691fc7bce524825be65c1ef8","index1","<span style='color:red'>Fail,<span style='color:red'>Fail,<span style='color:green'>Lift,<span style='color:green'>Lift,<span style='color:red'>Fail,<span style='color:red'>Fail,<span style='color:red'>Fail,<span style='color:red'>Fail,<span style='color:red'>Fail,<span style='color:green'>Lift,<span style='color:red'>Fail,<span style='color:green'>Lift","<span style='color:red'>Fail,<span style='color:red'>Fail,<span style='color:green'>Lift,<span style='color:green'>Lift,<span style='color:green'>Lift,<span style='color:green'>Lift,<span style='color:red'>Fail,<span style='color:green'>Lift,<span style='color:green'>Lift,<span style='color:green'>Lift,<span style='color:red'>Fail,<span style='color:green'>Lift","<span style='color:red'>Fail,<span style='color:green'>Lift,<span style='color:green'>Lift,<span style='color:red'>Fail,<span style='color:green'>Lift,<span style='color:green'>Lift","0,0,1,1,0,0,0,0,0,1,0,1","0,0,1,1,1,1,0,1,1,1,0,1","0,1,1,0,1,1",10,20,20,"","","","","{""box1"":""50"",""box2"":""50""}","",NA,2,"round2_ready",2,2,2,NA,NA,NA,NA,NA,NA,NA,NA,NA,NA,NA,NA,NA,NA,50,50,50,50,NA,NA,NA,NA,NA,NA,NA,NA,NA,NA,NA,NA,NA,NA,NA,NA,NA,NA,"",NA,NA,NA,NA,NA,NA,NA,NA,2025-11-21 02:13:49
"13522.700000047684","https://psyc-201.github.io/xiang2023/exp/index1.html?PROLIFIC_PID=REDACTED&STUDY_ID=691f8ca61c6b4dcbb0aeb5f4&SESSION_ID=691fc7bce524825be65c1ef8","survey-html-form",20,590576,"0.0-319.0","L9lzJsdZuiSESgJ1Te2RrA/lPCslSuI6g/bHAoFcdoTtE/KmzcOUt0LkoLSmiVCtfVWFnpXY1iE4L5d3mJtoNtevISZdacDcjuGlCSw+e2x2vaHU3P+mAd+gR/WRfxDPUV1Qrq+bcH0peoRnUdG4n9LSCGznidhKvWEGOePo+QipFgoa3Ra3jrhiK14tJaxJ93oUyovWuRRkK8/3IHp7P/Y1yckF0j3xsC/niyjE2U89DROVjjX7CxZCZnqCp8jR45ecrypZ9t9B9kL2jLIRtHVu0bNHrjroLN8CyidmFUNQ1Z3Qn6BTmegq0ajHT2hLq/uSZzkX7utavye8sM5eMg==","691f8ca61c6b4dcbb0aeb5f4","691fc7bce524825be65c1ef8","index1","<span style='color:red'>Fail,<span style='color:red'>Fail,<span style='color:green'>Lift,<span style='color:green'>Lift,<span style='color:red'>Fail,<span style='color:red'>Fail,<span style='color:red'>Fail,<span style='color:red'>Fail,<span style='color:red'>Fail,<span style='color:green'>Lift,<span style='color:red'>Fail,<span style='color:green'>Lift","<span style='color:red'>Fail,<span style='color:red'>Fail,<span style='color:green'>Lift,<span style='color:green'>Lift,<span style='color:green'>Lift,<span style='color:green'>Lift,<span style='color:red'>Fail,<span style='color:green'>Lift,<span style='color:green'>Lift,<span style='color:green'>Lift,<span style='color:red'>Fail,<span style='color:green'>Lift","<span style='color:red'>Fail,<span style='color:green'>Lift,<span style='color:green'>Lift,<span style='color:red'>Fail,<span style='color:green'>Lift,<span style='color:green'>Lift","0,0,1,1,0,0,0,0,0,1,0,1","0,0,1,1,1,1,0,1,1,1,0,1","0,1,1,0,1,1",10,20,20,"","","","","{""box1"":""1"",""box2"":""10"",""box4"":""50""}","",NA,2,"round2_outcome",3,2,2,1,10,NA,50,0,1,20,NA,NA,NA,NA,NA,NA,NA,NA,NA,NA,NA,1,10,NA,50,0,1,20,NA,NA,NA,NA,NA,NA,NA,NA,NA,NA,NA,"",NA,NA,NA,NA,NA,NA,NA,NA,2025-11-21 02:13:49
"3927","https://psyc-201.github.io/xiang2023/exp/index1.html?PROLIFIC_PID=REDACTED&STUDY_ID=691f8ca61c6b4dcbb0aeb5f4&SESSION_ID=691fc7bce524825be65c1ef8","survey-html-form",21,594504,"0.0-320.0","L9lzJsdZuiSESgJ1Te2RrA/lPCslSuI6g/bHAoFcdoTtE/KmzcOUt0LkoLSmiVCtfVWFnpXY1iE4L5d3mJtoNtevISZdacDcjuGlCSw+e2x2vaHU3P+mAd+gR/WRfxDPUV1Qrq+bcH0peoRnUdG4n9LSCGznidhKvWEGOePo+QipFgoa3Ra3jrhiK14tJaxJ93oUyovWuRRkK8/3IHp7P/Y1yckF0j3xsC/niyjE2U89DROVjjX7CxZCZnqCp8jR45ecrypZ9t9B9kL2jLIRtHVu0bNHrjroLN8CyidmFUNQ1Z3Qn6BTmegq0ajHT2hLq/uSZzkX7utavye8sM5eMg==","691f8ca61c6b4dcbb0aeb5f4","691fc7bce524825be65c1ef8","index1","<span style='color:red'>Fail,<span style='color:red'>Fail,<span style='color:green'>Lift,<span style='color:green'>Lift,<span style='color:red'>Fail,<span style='color:red'>Fail,<span style='color:red'>Fail,<span style='color:red'>Fail,<span style='color:red'>Fail,<span style='color:green'>Lift,<span style='color:red'>Fail,<span style='color:green'>Lift","<span style='color:red'>Fail,<span style='color:red'>Fail,<span style='color:green'>Lift,<span style='color:green'>Lift,<span style='color:green'>Lift,<span style='color:green'>Lift,<span style='color:red'>Fail,<span style='color:green'>Lift,<span style='color:green'>Lift,<span style='color:green'>Lift,<span style='color:red'>Fail,<span style='color:green'>Lift","<span style='color:red'>Fail,<span style='color:green'>Lift,<span style='color:green'>Lift,<span style='color:red'>Fail,<span style='color:green'>Lift,<span style='color:green'>Lift","0,0,1,1,0,0,0,0,0,1,0,1","0,0,1,1,1,1,0,1,1,1,0,1","0,1,1,0,1,1",10,20,20,"","","","","{""box1"":""50""}","",NA,2,"round3_ready",4,2,3,NA,NA,NA,NA,NA,NA,NA,NA,NA,NA,NA,NA,NA,NA,50,50,NA,NA,NA,NA,NA,NA,NA,NA,NA,50,50,NA,NA,NA,NA,NA,NA,NA,NA,NA,"",NA,NA,NA,NA,NA,NA,NA,NA,2025-11-21 02:13:49
"18777","https://psyc-201.github.io/xiang2023/exp/index1.html?PROLIFIC_PID=REDACTED&STUDY_ID=691f8ca61c6b4dcbb0aeb5f4&SESSION_ID=691fc7bce524825be65c1ef8","survey-html-form",22,613282,"0.0-322.0-0.0","L9lzJsdZuiSESgJ1Te2RrA/lPCslSuI6g/bHAoFcdoTtE/KmzcOUt0LkoLSmiVCtfVWFnpXY1iE4L5d3mJtoNtevISZdacDcjuGlCSw+e2x2vaHU3P+mAd+gR/WRfxDPUV1Qrq+bcH0peoRnUdG4n9LSCGznidhKvWEGOePo+QipFgoa3Ra3jrhiK14tJaxJ93oUyovWuRRkK8/3IHp7P/Y1yckF0j3xsC/niyjE2U89DROVjjX7CxZCZnqCp8jR45ecrypZ9t9B9kL2jLIRtHVu0bNHrjroLN8CyidmFUNQ1Z3Qn6BTmegq0ajHT2hLq/uSZzkX7utavye8sM5eMg==","691f8ca61c6b4dcbb0aeb5f4","691fc7bce524825be65c1ef8","index1","<span style='color:red'>Fail,<span style='color:red'>Fail,<span style='color:green'>Lift,<span style='color:green'>Lift,<span style='color:red'>Fail,<span style='color:red'>Fail,<span style='color:red'>Fail,<span style='color:red'>Fail,<span style='color:red'>Fail,<span style='color:green'>Lift,<span style='color:red'>Fail,<span style='color:green'>Lift","<span style='color:red'>Fail,<span style='color:red'>Fail,<span style='color:green'>Lift,<span style='color:green'>Lift,<span style='color:green'>Lift,<span style='color:green'>Lift,<span style='color:red'>Fail,<span style='color:green'>Lift,<span style='color:green'>Lift,<span style='color:green'>Lift,<span style='color:red'>Fail,<span style='color:green'>Lift","<span style='color:red'>Fail,<span style='color:green'>Lift,<span style='color:green'>Lift,<span style='color:red'>Fail,<span style='color:green'>Lift,<span style='color:green'>Lift","0,0,1,1,0,0,0,0,0,1,0,1","0,0,1,1,1,1,0,1,1,1,0,1","0,1,1,0,1,1",10,20,20,"","","","","{""box1"":""1"",""box2"":""5"",""box3"":""999"",""box4"":""999""}","",NA,3,"round3_fail",5,2,3,1,5,NA,NA,0,0,20,NA,NA,NA,NA,NA,NA,NA,NA,NA,NA,NA,NA,NA,NA,NA,NA,NA,NA,NA,NA,1,5,NA,NA,0,0,20,1,1,"",NA,NA,NA,NA,NA,NA,NA,NA,2025-11-21 02:13:49
"null","https://psyc-201.github.io/xiang2023/exp/index1.html?PROLIFIC_PID=REDACTED&STUDY_ID=691f8ca61c6b4dcbb0aeb5f4&SESSION_ID=691fc7bce524825be65c1ef8","html-keyboard-response",23,616288,"0.0-325.0","L9lzJsdZuiSESgJ1Te2RrA/lPCslSuI6g/bHAoFcdoTtE/KmzcOUt0LkoLSmiVCtfVWFnpXY1iE4L5d3mJtoNtevISZdacDcjuGlCSw+e2x2vaHU3P+mAd+gR/WRfxDPUV1Qrq+bcH0peoRnUdG4n9LSCGznidhKvWEGOePo+QipFgoa3Ra3jrhiK14tJaxJ93oUyovWuRRkK8/3IHp7P/Y1yckF0j3xsC/niyjE2U89DROVjjX7CxZCZnqCp8jR45ecrypZ9t9B9kL2jLIRtHVu0bNHrjroLN8CyidmFUNQ1Z3Qn6BTmegq0ajHT2hLq/uSZzkX7utavye8sM5eMg==","691f8ca61c6b4dcbb0aeb5f4","691fc7bce524825be65c1ef8","index1","<span style='color:red'>Fail,<span style='color:red'>Fail,<span style='color:green'>Lift,<span style='color:green'>Lift,<span style='color:red'>Fail,<span style='color:red'>Fail,<span style='color:red'>Fail,<span style='color:red'>Fail,<span style='color:red'>Fail,<span style='color:green'>Lift,<span style='color:red'>Fail,<span style='color:green'>Lift","<span style='color:red'>Fail,<span style='color:red'>Fail,<span style='color:green'>Lift,<span style='color:green'>Lift,<span style='color:green'>Lift,<span style='color:green'>Lift,<span style='color:red'>Fail,<span style='color:green'>Lift,<span style='color:green'>Lift,<span style='color:green'>Lift,<span style='color:red'>Fail,<span style='color:green'>Lift","<span style='color:red'>Fail,<span style='color:green'>Lift,<span style='color:green'>Lift,<span style='color:red'>Fail,<span style='color:green'>Lift,<span style='color:green'>Lift","0,0,1,1,0,0,0,0,0,1,0,1","0,0,1,1,1,1,0,1,1,1,0,1","0,1,1,0,1,1",10,20,20,"","","<p style='font-size:30px'><b> New Contest! </b></p>","null","","",NA,3,"",NA,NA,NA,NA,NA,NA,NA,NA,NA,NA,NA,NA,NA,NA,NA,NA,NA,NA,NA,NA,NA,NA,NA,NA,NA,NA,NA,NA,NA,NA,NA,NA,NA,NA,NA,NA,NA,NA,NA,"",NA,NA,NA,NA,NA,NA,NA,NA,2025-11-21 02:13:49
"7682.800000071526","https://psyc-201.github.io/xiang2023/exp/index1.html?PROLIFIC_PID=REDACTED&STUDY_ID=691f8ca61c6b4dcbb0aeb5f4&SESSION_ID=691fc7bce524825be65c1ef8","survey-html-form",24,623972,"0.0-326.0","L9lzJsdZuiSESgJ1Te2RrA/lPCslSuI6g/bHAoFcdoTtE/KmzcOUt0LkoLSmiVCtfVWFnpXY1iE4L5d3mJtoNtevISZdacDcjuGlCSw+e2x2vaHU3P+mAd+gR/WRfxDPUV1Qrq+bcH0peoRnUdG4n9LSCGznidhKvWEGOePo+QipFgoa3Ra3jrhiK14tJaxJ93oUyovWuRRkK8/3IHp7P/Y1yckF0j3xsC/niyjE2U89DROVjjX7CxZCZnqCp8jR45ecrypZ9t9B9kL2jLIRtHVu0bNHrjroLN8CyidmFUNQ1Z3Qn6BTmegq0ajHT2hLq/uSZzkX7utavye8sM5eMg==","691f8ca61c6b4dcbb0aeb5f4","691fc7bce524825be65c1ef8","index1","<span style='color:red'>Fail,<span style='color:red'>Fail,<span style='color:green'>Lift,<span style='color:green'>Lift,<span style='color:red'>Fail,<span style='color:red'>Fail,<span style='color:red'>Fail,<span style='color:red'>Fail,<span style='color:red'>Fail,<span style='color:green'>Lift,<span style='color:red'>Fail,<span style='color:green'>Lift","<span style='color:red'>Fail,<span style='color:red'>Fail,<span style='color:green'>Lift,<span style='color:green'>Lift,<span style='color:green'>Lift,<span style='color:green'>Lift,<span style='color:red'>Fail,<span style='color:green'>Lift,<span style='color:green'>Lift,<span style='color:green'>Lift,<span style='color:red'>Fail,<span style='color:green'>Lift","<span style='color:red'>Fail,<span style='color:green'>Lift,<span style='color:green'>Lift,<span style='color:red'>Fail,<span style='color:green'>Lift,<span style='color:green'>Lift","0,0,1,1,0,0,0,0,0,1,0,1","0,0,1,1,1,1,0,1,1,1,0,1","0,1,1,0,1,1",10,20,20,"","","","","{""box1"":""2"",""box2"":""5"",""box4"":""100""}","",NA,3,"round1_outcome",1,3,1,2,5,NA,100,0,1,10,2,5,NA,100,0,1,10,NA,NA,NA,NA,NA,NA,NA,NA,NA,NA,NA,NA,NA,NA,NA,NA,NA,NA,NA,NA,NA,NA,"",NA,NA,NA,NA,NA,NA,NA,NA,2025-11-21 02:13:49
"4257.700000047684","https://psyc-201.github.io/xiang2023/exp/index1.html?PROLIFIC_PID=REDACTED&STUDY_ID=691f8ca61c6b4dcbb0aeb5f4&SESSION_ID=691fc7bce524825be65c1ef8","survey-html-form",25,628230,"0.0-327.0","L9lzJsdZuiSESgJ1Te2RrA/lPCslSuI6g/bHAoFcdoTtE/KmzcOUt0LkoLSmiVCtfVWFnpXY1iE4L5d3mJtoNtevISZdacDcjuGlCSw+e2x2vaHU3P+mAd+gR/WRfxDPUV1Qrq+bcH0peoRnUdG4n9LSCGznidhKvWEGOePo+QipFgoa3Ra3jrhiK14tJaxJ93oUyovWuRRkK8/3IHp7P/Y1yckF0j3xsC/niyjE2U89DROVjjX7CxZCZnqCp8jR45ecrypZ9t9B9kL2jLIRtHVu0bNHrjroLN8CyidmFUNQ1Z3Qn6BTmegq0ajHT2hLq/uSZzkX7utavye8sM5eMg==","691f8ca61c6b4dcbb0aeb5f4","691fc7bce524825be65c1ef8","index1","<span style='color:red'>Fail,<span style='color:red'>Fail,<span style='color:green'>Lift,<span style='color:green'>Lift,<span style='color:red'>Fail,<span style='color:red'>Fail,<span style='color:red'>Fail,<span style='color:red'>Fail,<span style='color:red'>Fail,<span style='color:green'>Lift,<span style='color:red'>Fail,<span style='color:green'>Lift","<span style='color:red'>Fail,<span style='color:red'>Fail,<span style='color:green'>Lift,<span style='color:green'>Lift,<span style='color:green'>Lift,<span style='color:green'>Lift,<span style='color:red'>Fail,<span style='color:green'>Lift,<span style='color:green'>Lift,<span style='color:green'>Lift,<span style='color:red'>Fail,<span style='color:green'>Lift","<span style='color:red'>Fail,<span style='color:green'>Lift,<span style='color:green'>Lift,<span style='color:red'>Fail,<span style='color:green'>Lift,<span style='color:green'>Lift","0,0,1,1,0,0,0,0,0,1,0,1","0,0,1,1,1,1,0,1,1,1,0,1","0,1,1,0,1,1",10,20,20,"","","","","{""box1"":""50"",""box2"":""50""}","",NA,3,"round2_ready",2,3,2,NA,NA,NA,NA,NA,NA,NA,NA,NA,NA,NA,NA,NA,NA,50,50,50,50,NA,NA,NA,NA,NA,NA,NA,NA,NA,NA,NA,NA,NA,NA,NA,NA,NA,NA,"",NA,NA,NA,NA,NA,NA,NA,NA,2025-11-21 02:13:49
"6146.5","https://psyc-201.github.io/xiang2023/exp/index1.html?PROLIFIC_PID=REDACTED&STUDY_ID=691f8ca61c6b4dcbb0aeb5f4&SESSION_ID=691fc7bce524825be65c1ef8","survey-html-form",26,634378,"0.0-328.0","L9lzJsdZuiSESgJ1Te2RrA/lPCslSuI6g/bHAoFcdoTtE/KmzcOUt0LkoLSmiVCtfVWFnpXY1iE4L5d3mJtoNtevISZdacDcjuGlCSw+e2x2vaHU3P+mAd+gR/WRfxDPUV1Qrq+bcH0peoRnUdG4n9LSCGznidhKvWEGOePo+QipFgoa3Ra3jrhiK14tJaxJ93oUyovWuRRkK8/3IHp7P/Y1yckF0j3xsC/niyjE2U89DROVjjX7CxZCZnqCp8jR45ecrypZ9t9B9kL2jLIRtHVu0bNHrjroLN8CyidmFUNQ1Z3Qn6BTmegq0ajHT2hLq/uSZzkX7utavye8sM5eMg==","691f8ca61c6b4dcbb0aeb5f4","691fc7bce524825be65c1ef8","index1","<span style='color:red'>Fail,<span style='color:red'>Fail,<span style='color:green'>Lift,<span style='color:green'>Lift,<span style='color:red'>Fail,<span style='color:red'>Fail,<span style='color:red'>Fail,<span style='color:red'>Fail,<span style='color:red'>Fail,<span style='color:green'>Lift,<span style='color:red'>Fail,<span style='color:green'>Lift","<span style='color:red'>Fail,<span style='color:red'>Fail,<span style='color:green'>Lift,<span style='color:green'>Lift,<span style='color:green'>Lift,<span style='color:green'>Lift,<span style='color:red'>Fail,<span style='color:green'>Lift,<span style='color:green'>Lift,<span style='color:green'>Lift,<span style='color:red'>Fail,<span style='color:green'>Lift","<span style='color:red'>Fail,<span style='color:green'>Lift,<span style='color:green'>Lift,<span style='color:red'>Fail,<span style='color:green'>Lift,<span style='color:green'>Lift","0,0,1,1,0,0,0,0,0,1,0,1","0,0,1,1,1,1,0,1,1,1,0,1","0,1,1,0,1,1",10,20,20,"","","","","{""box1"":""1"",""box2"":""5"",""box4"":""100""}","",NA,3,"round2_outcome",3,3,2,1,5,NA,100,0,1,20,NA,NA,NA,NA,NA,NA,NA,NA,NA,NA,NA,1,5,NA,100,0,1,20,NA,NA,NA,NA,NA,NA,NA,NA,NA,NA,NA,"",NA,NA,NA,NA,NA,NA,NA,NA,2025-11-21 02:13:49
"2641.600000023842","https://psyc-201.github.io/xiang2023/exp/index1.html?PROLIFIC_PID=REDACTED&STUDY_ID=691f8ca61c6b4dcbb0aeb5f4&SESSION_ID=691fc7bce524825be65c1ef8","survey-html-form",27,637020,"0.0-329.0","L9lzJsdZuiSESgJ1Te2RrA/lPCslSuI6g/bHAoFcdoTtE/KmzcOUt0LkoLSmiVCtfVWFnpXY1iE4L5d3mJtoNtevISZdacDcjuGlCSw+e2x2vaHU3P+mAd+gR/WRfxDPUV1Qrq+bcH0peoRnUdG4n9LSCGznidhKvWEGOePo+QipFgoa3Ra3jrhiK14tJaxJ93oUyovWuRRkK8/3IHp7P/Y1yckF0j3xsC/niyjE2U89DROVjjX7CxZCZnqCp8jR45ecrypZ9t9B9kL2jLIRtHVu0bNHrjroLN8CyidmFUNQ1Z3Qn6BTmegq0ajHT2hLq/uSZzkX7utavye8sM5eMg==","691f8ca61c6b4dcbb0aeb5f4","691fc7bce524825be65c1ef8","index1","<span style='color:red'>Fail,<span style='color:red'>Fail,<span style='color:green'>Lift,<span style='color:green'>Lift,<span style='color:red'>Fail,<span style='color:red'>Fail,<span style='color:red'>Fail,<span style='color:red'>Fail,<span style='color:red'>Fail,<span style='color:green'>Lift,<span style='color:red'>Fail,<span style='color:green'>Lift","<span style='color:red'>Fail,<span style='color:red'>Fail,<span style='color:green'>Lift,<span style='color:green'>Lift,<span style='color:green'>Lift,<span style='color:green'>Lift,<span style='color:red'>Fail,<span style='color:green'>Lift,<span style='color:green'>Lift,<span style='color:green'>Lift,<span style='color:red'>Fail,<span style='color:green'>Lift","<span style='color:red'>Fail,<span style='color:green'>Lift,<span style='color:green'>Lift,<span style='color:red'>Fail,<span style='color:green'>Lift,<span style='color:green'>Lift","0,0,1,1,0,0,0,0,0,1,0,1","0,0,1,1,1,1,0,1,1,1,0,1","0,1,1,0,1,1",10,20,20,"","","","","{""box1"":""0""}","",NA,3,"round3_ready",4,3,3,NA,NA,NA,NA,NA,NA,NA,NA,NA,NA,NA,NA,NA,NA,0,0,NA,NA,NA,NA,NA,NA,NA,NA,NA,0,0,NA,NA,NA,NA,NA,NA,NA,NA,NA,"",NA,NA,NA,NA,NA,NA,NA,NA,2025-11-21 02:13:49
"8511","https://psyc-201.github.io/xiang2023/exp/index1.html?PROLIFIC_PID=REDACTED&STUDY_ID=691f8ca61c6b4dcbb0aeb5f4&SESSION_ID=691fc7bce524825be65c1ef8","survey-html-form",28,645532,"0.0-330.0-0.0","L9lzJsdZuiSESgJ1Te2RrA/lPCslSuI6g/bHAoFcdoTtE/KmzcOUt0LkoLSmiVCtfVWFnpXY1iE4L5d3mJtoNtevISZdacDcjuGlCSw+e2x2vaHU3P+mAd+gR/WRfxDPUV1Qrq+bcH0peoRnUdG4n9LSCGznidhKvWEGOePo+QipFgoa3Ra3jrhiK14tJaxJ93oUyovWuRRkK8/3IHp7P/Y1yckF0j3xsC/niyjE2U89DROVjjX7CxZCZnqCp8jR45ecrypZ9t9B9kL2jLIRtHVu0bNHrjroLN8CyidmFUNQ1Z3Qn6BTmegq0ajHT2hLq/uSZzkX7utavye8sM5eMg==","691f8ca61c6b4dcbb0aeb5f4","691fc7bce524825be65c1ef8","index1","<span style='color:red'>Fail,<span style='color:red'>Fail,<span style='color:green'>Lift,<span style='color:green'>Lift,<span style='color:red'>Fail,<span style='color:red'>Fail,<span style='color:red'>Fail,<span style='color:red'>Fail,<span style='color:red'>Fail,<span style='color:green'>Lift,<span style='color:red'>Fail,<span style='color:green'>Lift","<span style='color:red'>Fail,<span style='color:red'>Fail,<span style='color:green'>Lift,<span style='color:green'>Lift,<span style='color:green'>Lift,<span style='color:green'>Lift,<span style='color:red'>Fail,<span style='color:green'>Lift,<span style='color:green'>Lift,<span style='color:green'>Lift,<span style='color:red'>Fail,<span style='color:green'>Lift","<span style='color:red'>Fail,<span style='color:green'>Lift,<span style='color:green'>Lift,<span style='color:red'>Fail,<span style='color:green'>Lift,<span style='color:green'>Lift","0,0,1,1,0,0,0,0,0,1,0,1","0,0,1,1,1,1,0,1,1,1,0,1","0,1,1,0,1,1",10,20,20,"","","","","{""box1"":""5"",""box2"":""5"",""box3"":""100"",""box4"":""100""}","",NA,4,"round3_lift",5,3,3,5,5,100,100,1,1,20,NA,NA,NA,NA,NA,NA,NA,NA,NA,NA,NA,NA,NA,NA,NA,NA,NA,NA,NA,NA,5,5,100,100,1,1,20,NA,NA,"",NA,NA,NA,NA,NA,NA,NA,NA,2025-11-21 02:13:49
"null","https://psyc-201.github.io/xiang2023/exp/index1.html?PROLIFIC_PID=REDACTED&STUDY_ID=691f8ca61c6b4dcbb0aeb5f4&SESSION_ID=691fc7bce524825be65c1ef8","html-keyboard-response",29,648544,"0.0-334.0","L9lzJsdZuiSESgJ1Te2RrA/lPCslSuI6g/bHAoFcdoTtE/KmzcOUt0LkoLSmiVCtfVWFnpXY1iE4L5d3mJtoNtevISZdacDcjuGlCSw+e2x2vaHU3P+mAd+gR/WRfxDPUV1Qrq+bcH0peoRnUdG4n9LSCGznidhKvWEGOePo+QipFgoa3Ra3jrhiK14tJaxJ93oUyovWuRRkK8/3IHp7P/Y1yckF0j3xsC/niyjE2U89DROVjjX7CxZCZnqCp8jR45ecrypZ9t9B9kL2jLIRtHVu0bNHrjroLN8CyidmFUNQ1Z3Qn6BTmegq0ajHT2hLq/uSZzkX7utavye8sM5eMg==","691f8ca61c6b4dcbb0aeb5f4","691fc7bce524825be65c1ef8","index1","<span style='color:red'>Fail,<span style='color:red'>Fail,<span style='color:green'>Lift,<span style='color:green'>Lift,<span style='color:red'>Fail,<span style='color:red'>Fail,<span style='color:red'>Fail,<span style='color:red'>Fail,<span style='color:red'>Fail,<span style='color:green'>Lift,<span style='color:red'>Fail,<span style='color:green'>Lift","<span style='color:red'>Fail,<span style='color:red'>Fail,<span style='color:green'>Lift,<span style='color:green'>Lift,<span style='color:green'>Lift,<span style='color:green'>Lift,<span style='color:red'>Fail,<span style='color:green'>Lift,<span style='color:green'>Lift,<span style='color:green'>Lift,<span style='color:red'>Fail,<span style='color:green'>Lift","<span style='color:red'>Fail,<span style='color:green'>Lift,<span style='color:green'>Lift,<span style='color:red'>Fail,<span style='color:green'>Lift,<span style='color:green'>Lift","0,0,1,1,0,0,0,0,0,1,0,1","0,0,1,1,1,1,0,1,1,1,0,1","0,1,1,0,1,1",10,20,20,"","","<p style='font-size:30px'><b> New Contest! </b></p>","null","","",NA,4,"",NA,NA,NA,NA,NA,NA,NA,NA,NA,NA,NA,NA,NA,NA,NA,NA,NA,NA,NA,NA,NA,NA,NA,NA,NA,NA,NA,NA,NA,NA,NA,NA,NA,NA,NA,NA,NA,NA,NA,"",NA,NA,NA,NA,NA,NA,NA,NA,2025-11-21 02:13:49
"5200.399999976158","https://psyc-201.github.io/xiang2023/exp/index1.html?PROLIFIC_PID=REDACTED&STUDY_ID=691f8ca61c6b4dcbb0aeb5f4&SESSION_ID=691fc7bce524825be65c1ef8","survey-html-form",30,653746,"0.0-335.0","L9lzJsdZuiSESgJ1Te2RrA/lPCslSuI6g/bHAoFcdoTtE/KmzcOUt0LkoLSmiVCtfVWFnpXY1iE4L5d3mJtoNtevISZdacDcjuGlCSw+e2x2vaHU3P+mAd+gR/WRfxDPUV1Qrq+bcH0peoRnUdG4n9LSCGznidhKvWEGOePo+QipFgoa3Ra3jrhiK14tJaxJ93oUyovWuRRkK8/3IHp7P/Y1yckF0j3xsC/niyjE2U89DROVjjX7CxZCZnqCp8jR45ecrypZ9t9B9kL2jLIRtHVu0bNHrjroLN8CyidmFUNQ1Z3Qn6BTmegq0ajHT2hLq/uSZzkX7utavye8sM5eMg==","691f8ca61c6b4dcbb0aeb5f4","691fc7bce524825be65c1ef8","index1","<span style='color:red'>Fail,<span style='color:red'>Fail,<span style='color:green'>Lift,<span style='color:green'>Lift,<span style='color:red'>Fail,<span style='color:red'>Fail,<span style='color:red'>Fail,<span style='color:red'>Fail,<span style='color:red'>Fail,<span style='color:green'>Lift,<span style='color:red'>Fail,<span style='color:green'>Lift","<span style='color:red'>Fail,<span style='color:red'>Fail,<span style='color:green'>Lift,<span style='color:green'>Lift,<span style='color:green'>Lift,<span style='color:green'>Lift,<span style='color:red'>Fail,<span style='color:green'>Lift,<span style='color:green'>Lift,<span style='color:green'>Lift,<span style='color:red'>Fail,<span style='color:green'>Lift","<span style='color:red'>Fail,<span style='color:green'>Lift,<span style='color:green'>Lift,<span style='color:red'>Fail,<span style='color:green'>Lift,<span style='color:green'>Lift","0,0,1,1,0,0,0,0,0,1,0,1","0,0,1,1,1,1,0,1,1,1,0,1","0,1,1,0,1,1",10,20,20,"","","","","{""box1"":""5"",""box2"":""5"",""box3"":""100"",""box4"":""100""}","",NA,4,"round1_outcome",1,4,1,5,5,100,100,1,1,10,5,5,100,100,1,1,10,NA,NA,NA,NA,NA,NA,NA,NA,NA,NA,NA,NA,NA,NA,NA,NA,NA,NA,NA,NA,NA,NA,"",NA,NA,NA,NA,NA,NA,NA,NA,2025-11-21 02:13:49
"5599.200000047684","https://psyc-201.github.io/xiang2023/exp/index1.html?PROLIFIC_PID=REDACTED&STUDY_ID=691f8ca61c6b4dcbb0aeb5f4&SESSION_ID=691fc7bce524825be65c1ef8","survey-html-form",31,659346,"0.0-336.0","L9lzJsdZuiSESgJ1Te2RrA/lPCslSuI6g/bHAoFcdoTtE/KmzcOUt0LkoLSmiVCtfVWFnpXY1iE4L5d3mJtoNtevISZdacDcjuGlCSw+e2x2vaHU3P+mAd+gR/WRfxDPUV1Qrq+bcH0peoRnUdG4n9LSCGznidhKvWEGOePo+QipFgoa3Ra3jrhiK14tJaxJ93oUyovWuRRkK8/3IHp7P/Y1yckF0j3xsC/niyjE2U89DROVjjX7CxZCZnqCp8jR45ecrypZ9t9B9kL2jLIRtHVu0bNHrjroLN8CyidmFUNQ1Z3Qn6BTmegq0ajHT2hLq/uSZzkX7utavye8sM5eMg==","691f8ca61c6b4dcbb0aeb5f4","691fc7bce524825be65c1ef8","index1","<span style='color:red'>Fail,<span style='color:red'>Fail,<span style='color:green'>Lift,<span style='color:green'>Lift,<span style='color:red'>Fail,<span style='color:red'>Fail,<span style='color:red'>Fail,<span style='color:red'>Fail,<span style='color:red'>Fail,<span style='color:green'>Lift,<span style='color:red'>Fail,<span style='color:green'>Lift","<span style='color:red'>Fail,<span style='color:red'>Fail,<span style='color:green'>Lift,<span style='color:green'>Lift,<span style='color:green'>Lift,<span style='color:green'>Lift,<span style='color:red'>Fail,<span style='color:green'>Lift,<span style='color:green'>Lift,<span style='color:green'>Lift,<span style='color:red'>Fail,<span style='color:green'>Lift","<span style='color:red'>Fail,<span style='color:green'>Lift,<span style='color:green'>Lift,<span style='color:red'>Fail,<span style='color:green'>Lift,<span style='color:green'>Lift","0,0,1,1,0,0,0,0,0,1,0,1","0,0,1,1,1,1,0,1,1,1,0,1","0,1,1,0,1,1",10,20,20,"","","","","{""box1"":""50"",""box2"":""50""}","",NA,4,"round2_ready",2,4,2,NA,NA,NA,NA,NA,NA,NA,NA,NA,NA,NA,NA,NA,NA,50,50,50,50,NA,NA,NA,NA,NA,NA,NA,NA,NA,NA,NA,NA,NA,NA,NA,NA,NA,NA,"",NA,NA,NA,NA,NA,NA,NA,NA,2025-11-21 02:13:49
"8033.100000023842","https://psyc-201.github.io/xiang2023/exp/index1.html?PROLIFIC_PID=REDACTED&STUDY_ID=691f8ca61c6b4dcbb0aeb5f4&SESSION_ID=691fc7bce524825be65c1ef8","survey-html-form",32,667380,"0.0-337.0","L9lzJsdZuiSESgJ1Te2RrA/lPCslSuI6g/bHAoFcdoTtE/KmzcOUt0LkoLSmiVCtfVWFnpXY1iE4L5d3mJtoNtevISZdacDcjuGlCSw+e2x2vaHU3P+mAd+gR/WRfxDPUV1Qrq+bcH0peoRnUdG4n9LSCGznidhKvWEGOePo+QipFgoa3Ra3jrhiK14tJaxJ93oUyovWuRRkK8/3IHp7P/Y1yckF0j3xsC/niyjE2U89DROVjjX7CxZCZnqCp8jR45ecrypZ9t9B9kL2jLIRtHVu0bNHrjroLN8CyidmFUNQ1Z3Qn6BTmegq0ajHT2hLq/uSZzkX7utavye8sM5eMg==","691f8ca61c6b4dcbb0aeb5f4","691fc7bce524825be65c1ef8","index1","<span style='color:red'>Fail,<span style='color:red'>Fail,<span style='color:green'>Lift,<span style='color:green'>Lift,<span style='color:red'>Fail,<span style='color:red'>Fail,<span style='color:red'>Fail,<span style='color:red'>Fail,<span style='color:red'>Fail,<span style='color:green'>Lift,<span style='color:red'>Fail,<span style='color:green'>Lift","<span style='color:red'>Fail,<span style='color:red'>Fail,<span style='color:green'>Lift,<span style='color:green'>Lift,<span style='color:green'>Lift,<span style='color:green'>Lift,<span style='color:red'>Fail,<span style='color:green'>Lift,<span style='color:green'>Lift,<span style='color:green'>Lift,<span style='color:red'>Fail,<span style='color:green'>Lift","<span style='color:red'>Fail,<span style='color:green'>Lift,<span style='color:green'>Lift,<span style='color:red'>Fail,<span style='color:green'>Lift,<span style='color:green'>Lift","0,0,1,1,0,0,0,0,0,1,0,1","0,0,1,1,1,1,0,1,1,1,0,1","0,1,1,0,1,1",10,20,20,"","","","","{""box1"":""10"",""box2"":""10"",""box3"":""50"",""box4"":""50""}","",NA,4,"round2_outcome",3,4,2,10,10,50,50,1,1,20,NA,NA,NA,NA,NA,NA,NA,NA,NA,NA,NA,10,10,50,50,1,1,20,NA,NA,NA,NA,NA,NA,NA,NA,NA,NA,NA,"",NA,NA,NA,NA,NA,NA,NA,NA,2025-11-21 02:13:49
"2371.100000023842","https://psyc-201.github.io/xiang2023/exp/index1.html?PROLIFIC_PID=REDACTED&STUDY_ID=691f8ca61c6b4dcbb0aeb5f4&SESSION_ID=691fc7bce524825be65c1ef8","survey-html-form",33,669752,"0.0-338.0","L9lzJsdZuiSESgJ1Te2RrA/lPCslSuI6g/bHAoFcdoTtE/KmzcOUt0LkoLSmiVCtfVWFnpXY1iE4L5d3mJtoNtevISZdacDcjuGlCSw+e2x2vaHU3P+mAd+gR/WRfxDPUV1Qrq+bcH0peoRnUdG4n9LSCGznidhKvWEGOePo+QipFgoa3Ra3jrhiK14tJaxJ93oUyovWuRRkK8/3IHp7P/Y1yckF0j3xsC/niyjE2U89DROVjjX7CxZCZnqCp8jR45ecrypZ9t9B9kL2jLIRtHVu0bNHrjroLN8CyidmFUNQ1Z3Qn6BTmegq0ajHT2hLq/uSZzkX7utavye8sM5eMg==","691f8ca61c6b4dcbb0aeb5f4","691fc7bce524825be65c1ef8","index1","<span style='color:red'>Fail,<span style='color:red'>Fail,<span style='color:green'>Lift,<span style='color:green'>Lift,<span style='color:red'>Fail,<span style='color:red'>Fail,<span style='color:red'>Fail,<span style='color:red'>Fail,<span style='color:red'>Fail,<span style='color:green'>Lift,<span style='color:red'>Fail,<span style='color:green'>Lift","<span style='color:red'>Fail,<span style='color:red'>Fail,<span style='color:green'>Lift,<span style='color:green'>Lift,<span style='color:green'>Lift,<span style='color:green'>Lift,<span style='color:red'>Fail,<span style='color:green'>Lift,<span style='color:green'>Lift,<span style='color:green'>Lift,<span style='color:red'>Fail,<span style='color:green'>Lift","<span style='color:red'>Fail,<span style='color:green'>Lift,<span style='color:green'>Lift,<span style='color:red'>Fail,<span style='color:green'>Lift,<span style='color:green'>Lift","0,0,1,1,0,0,0,0,0,1,0,1","0,0,1,1,1,1,0,1,1,1,0,1","0,1,1,0,1,1",10,20,20,"","","","","{""box1"":""100""}","",NA,4,"round3_ready",4,4,3,NA,NA,NA,NA,NA,NA,NA,NA,NA,NA,NA,NA,NA,NA,100,100,NA,NA,NA,NA,NA,NA,NA,NA,NA,100,100,NA,NA,NA,NA,NA,NA,NA,NA,NA,"",NA,NA,NA,NA,NA,NA,NA,NA,2025-11-21 02:13:49
"7667.300000071526","https://psyc-201.github.io/xiang2023/exp/index1.html?PROLIFIC_PID=REDACTED&STUDY_ID=691f8ca61c6b4dcbb0aeb5f4&SESSION_ID=691fc7bce524825be65c1ef8","survey-html-form",34,677420,"0.0-339.0-0.0","L9lzJsdZuiSESgJ1Te2RrA/lPCslSuI6g/bHAoFcdoTtE/KmzcOUt0LkoLSmiVCtfVWFnpXY1iE4L5d3mJtoNtevISZdacDcjuGlCSw+e2x2vaHU3P+mAd+gR/WRfxDPUV1Qrq+bcH0peoRnUdG4n9LSCGznidhKvWEGOePo+QipFgoa3Ra3jrhiK14tJaxJ93oUyovWuRRkK8/3IHp7P/Y1yckF0j3xsC/niyjE2U89DROVjjX7CxZCZnqCp8jR45ecrypZ9t9B9kL2jLIRtHVu0bNHrjroLN8CyidmFUNQ1Z3Qn6BTmegq0ajHT2hLq/uSZzkX7utavye8sM5eMg==","691f8ca61c6b4dcbb0aeb5f4","691fc7bce524825be65c1ef8","index1","<span style='color:red'>Fail,<span style='color:red'>Fail,<span style='color:green'>Lift,<span style='color:green'>Lift,<span style='color:red'>Fail,<span style='color:red'>Fail,<span style='color:red'>Fail,<span style='color:red'>Fail,<span style='color:red'>Fail,<span style='color:green'>Lift,<span style='color:red'>Fail,<span style='color:green'>Lift","<span style='color:red'>Fail,<span style='color:red'>Fail,<span style='color:green'>Lift,<span style='color:green'>Lift,<span style='color:green'>Lift,<span style='color:green'>Lift,<span style='color:red'>Fail,<span style='color:green'>Lift,<span style='color:green'>Lift,<span style='color:green'>Lift,<span style='color:red'>Fail,<span style='color:green'>Lift","<span style='color:red'>Fail,<span style='color:green'>Lift,<span style='color:green'>Lift,<span style='color:red'>Fail,<span style='color:green'>Lift,<span style='color:green'>Lift","0,0,1,1,0,0,0,0,0,1,0,1","0,0,1,1,1,1,0,1,1,1,0,1","0,1,1,0,1,1",10,20,20,"","","","","{""box1"":""10"",""box2"":""10"",""box3"":""50"",""box4"":""50""}","",NA,5,"round3_lift",5,4,3,10,10,50,50,1,1,20,NA,NA,NA,NA,NA,NA,NA,NA,NA,NA,NA,NA,NA,NA,NA,NA,NA,NA,NA,NA,10,10,50,50,1,1,20,NA,NA,"",NA,NA,NA,NA,NA,NA,NA,NA,2025-11-21 02:13:49
"null","https://psyc-201.github.io/xiang2023/exp/index1.html?PROLIFIC_PID=REDACTED&STUDY_ID=691f8ca61c6b4dcbb0aeb5f4&SESSION_ID=691fc7bce524825be65c1ef8","html-keyboard-response",35,680424,"0.0-343.0","L9lzJsdZuiSESgJ1Te2RrA/lPCslSuI6g/bHAoFcdoTtE/KmzcOUt0LkoLSmiVCtfVWFnpXY1iE4L5d3mJtoNtevISZdacDcjuGlCSw+e2x2vaHU3P+mAd+gR/WRfxDPUV1Qrq+bcH0peoRnUdG4n9LSCGznidhKvWEGOePo+QipFgoa3Ra3jrhiK14tJaxJ93oUyovWuRRkK8/3IHp7P/Y1yckF0j3xsC/niyjE2U89DROVjjX7CxZCZnqCp8jR45ecrypZ9t9B9kL2jLIRtHVu0bNHrjroLN8CyidmFUNQ1Z3Qn6BTmegq0ajHT2hLq/uSZzkX7utavye8sM5eMg==","691f8ca61c6b4dcbb0aeb5f4","691fc7bce524825be65c1ef8","index1","<span style='color:red'>Fail,<span style='color:red'>Fail,<span style='color:green'>Lift,<span style='color:green'>Lift,<span style='color:red'>Fail,<span style='color:red'>Fail,<span style='color:red'>Fail,<span style='color:red'>Fail,<span style='color:red'>Fail,<span style='color:green'>Lift,<span style='color:red'>Fail,<span style='color:green'>Lift","<span style='color:red'>Fail,<span style='color:red'>Fail,<span style='color:green'>Lift,<span style='color:green'>Lift,<span style='color:green'>Lift,<span style='color:green'>Lift,<span style='color:red'>Fail,<span style='color:green'>Lift,<span style='color:green'>Lift,<span style='color:green'>Lift,<span style='color:red'>Fail,<span style='color:green'>Lift","<span style='color:red'>Fail,<span style='color:green'>Lift,<span style='color:green'>Lift,<span style='color:red'>Fail,<span style='color:green'>Lift,<span style='color:green'>Lift","0,0,1,1,0,0,0,0,0,1,0,1","0,0,1,1,1,1,0,1,1,1,0,1","0,1,1,0,1,1",10,20,20,"","","<p style='font-size:30px'><b> New Contest! </b></p>","null","","",NA,5,"",NA,NA,NA,NA,NA,NA,NA,NA,NA,NA,NA,NA,NA,NA,NA,NA,NA,NA,NA,NA,NA,NA,NA,NA,NA,NA,NA,NA,NA,NA,NA,NA,NA,NA,NA,NA,NA,NA,NA,"",NA,NA,NA,NA,NA,NA,NA,NA,2025-11-21 02:13:49
"2738.7000000476837","https://psyc-201.github.io/xiang2023/exp/index1.html?PROLIFIC_PID=REDACTED&STUDY_ID=691f8ca61c6b4dcbb0aeb5f4&SESSION_ID=691fc7bce524825be65c1ef8","survey-html-form",36,683164,"0.0-344.0","L9lzJsdZuiSESgJ1Te2RrA/lPCslSuI6g/bHAoFcdoTtE/KmzcOUt0LkoLSmiVCtfVWFnpXY1iE4L5d3mJtoNtevISZdacDcjuGlCSw+e2x2vaHU3P+mAd+gR/WRfxDPUV1Qrq+bcH0peoRnUdG4n9LSCGznidhKvWEGOePo+QipFgoa3Ra3jrhiK14tJaxJ93oUyovWuRRkK8/3IHp7P/Y1yckF0j3xsC/niyjE2U89DROVjjX7CxZCZnqCp8jR45ecrypZ9t9B9kL2jLIRtHVu0bNHrjroLN8CyidmFUNQ1Z3Qn6BTmegq0ajHT2hLq/uSZzkX7utavye8sM5eMg==","691f8ca61c6b4dcbb0aeb5f4","691fc7bce524825be65c1ef8","index1","<span style='color:red'>Fail,<span style='color:red'>Fail,<span style='color:green'>Lift,<span style='color:green'>Lift,<span style='color:red'>Fail,<span style='color:red'>Fail,<span style='color:red'>Fail,<span style='color:red'>Fail,<span style='color:red'>Fail,<span style='color:green'>Lift,<span style='color:red'>Fail,<span style='color:green'>Lift","<span style='color:red'>Fail,<span style='color:red'>Fail,<span style='color:green'>Lift,<span style='color:green'>Lift,<span style='color:green'>Lift,<span style='color:green'>Lift,<span style='color:red'>Fail,<span style='color:green'>Lift,<span style='color:green'>Lift,<span style='color:green'>Lift,<span style='color:red'>Fail,<span style='color:green'>Lift","<span style='color:red'>Fail,<span style='color:green'>Lift,<span style='color:green'>Lift,<span style='color:red'>Fail,<span style='color:green'>Lift,<span style='color:green'>Lift","0,0,1,1,0,0,0,0,0,1,0,1","0,0,1,1,1,1,0,1,1,1,0,1","0,1,1,0,1,1",10,20,20,"","","","","{""box1"":""1"",""box2"":""1""}","",NA,5,"round1_outcome",1,5,1,1,1,NA,NA,0,0,10,1,1,NA,NA,0,0,10,NA,NA,NA,NA,NA,NA,NA,NA,NA,NA,NA,NA,NA,NA,NA,NA,NA,NA,NA,NA,NA,NA,"",NA,NA,NA,NA,NA,NA,NA,NA,2025-11-21 02:13:49
"3625","https://psyc-201.github.io/xiang2023/exp/index1.html?PROLIFIC_PID=REDACTED&STUDY_ID=691f8ca61c6b4dcbb0aeb5f4&SESSION_ID=691fc7bce524825be65c1ef8","survey-html-form",37,686790,"0.0-345.0","L9lzJsdZuiSESgJ1Te2RrA/lPCslSuI6g/bHAoFcdoTtE/KmzcOUt0LkoLSmiVCtfVWFnpXY1iE4L5d3mJtoNtevISZdacDcjuGlCSw+e2x2vaHU3P+mAd+gR/WRfxDPUV1Qrq+bcH0peoRnUdG4n9LSCGznidhKvWEGOePo+QipFgoa3Ra3jrhiK14tJaxJ93oUyovWuRRkK8/3IHp7P/Y1yckF0j3xsC/niyjE2U89DROVjjX7CxZCZnqCp8jR45ecrypZ9t9B9kL2jLIRtHVu0bNHrjroLN8CyidmFUNQ1Z3Qn6BTmegq0ajHT2hLq/uSZzkX7utavye8sM5eMg==","691f8ca61c6b4dcbb0aeb5f4","691fc7bce524825be65c1ef8","index1","<span style='color:red'>Fail,<span style='color:red'>Fail,<span style='color:green'>Lift,<span style='color:green'>Lift,<span style='color:red'>Fail,<span style='color:red'>Fail,<span style='color:red'>Fail,<span style='color:red'>Fail,<span style='color:red'>Fail,<span style='color:green'>Lift,<span style='color:red'>Fail,<span style='color:green'>Lift","<span style='color:red'>Fail,<span style='color:red'>Fail,<span style='color:green'>Lift,<span style='color:green'>Lift,<span style='color:green'>Lift,<span style='color:green'>Lift,<span style='color:red'>Fail,<span style='color:green'>Lift,<span style='color:green'>Lift,<span style='color:green'>Lift,<span style='color:red'>Fail,<span style='color:green'>Lift","<span style='color:red'>Fail,<span style='color:green'>Lift,<span style='color:green'>Lift,<span style='color:red'>Fail,<span style='color:green'>Lift,<span style='color:green'>Lift","0,0,1,1,0,0,0,0,0,1,0,1","0,0,1,1,1,1,0,1,1,1,0,1","0,1,1,0,1,1",10,20,20,"","","","","{""box1"":""50"",""box2"":""50""}","",NA,5,"round2_ready",2,5,2,NA,NA,NA,NA,NA,NA,NA,NA,NA,NA,NA,NA,NA,NA,50,50,50,50,NA,NA,NA,NA,NA,NA,NA,NA,NA,NA,NA,NA,NA,NA,NA,NA,NA,NA,"",NA,NA,NA,NA,NA,NA,NA,NA,2025-11-21 02:13:49
"2429.6999999284744","https://psyc-201.github.io/xiang2023/exp/index1.html?PROLIFIC_PID=REDACTED&STUDY_ID=691f8ca61c6b4dcbb0aeb5f4&SESSION_ID=691fc7bce524825be65c1ef8","survey-html-form",38,689220,"0.0-346.0","L9lzJsdZuiSESgJ1Te2RrA/lPCslSuI6g/bHAoFcdoTtE/KmzcOUt0LkoLSmiVCtfVWFnpXY1iE4L5d3mJtoNtevISZdacDcjuGlCSw+e2x2vaHU3P+mAd+gR/WRfxDPUV1Qrq+bcH0peoRnUdG4n9LSCGznidhKvWEGOePo+QipFgoa3Ra3jrhiK14tJaxJ93oUyovWuRRkK8/3IHp7P/Y1yckF0j3xsC/niyjE2U89DROVjjX7CxZCZnqCp8jR45ecrypZ9t9B9kL2jLIRtHVu0bNHrjroLN8CyidmFUNQ1Z3Qn6BTmegq0ajHT2hLq/uSZzkX7utavye8sM5eMg==","691f8ca61c6b4dcbb0aeb5f4","691fc7bce524825be65c1ef8","index1","<span style='color:red'>Fail,<span style='color:red'>Fail,<span style='color:green'>Lift,<span style='color:green'>Lift,<span style='color:red'>Fail,<span style='color:red'>Fail,<span style='color:red'>Fail,<span style='color:red'>Fail,<span style='color:red'>Fail,<span style='color:green'>Lift,<span style='color:red'>Fail,<span style='color:green'>Lift","<span style='color:red'>Fail,<span style='color:red'>Fail,<span style='color:green'>Lift,<span style='color:green'>Lift,<span style='color:green'>Lift,<span style='color:green'>Lift,<span style='color:red'>Fail,<span style='color:green'>Lift,<span style='color:green'>Lift,<span style='color:green'>Lift,<span style='color:red'>Fail,<span style='color:green'>Lift","<span style='color:red'>Fail,<span style='color:green'>Lift,<span style='color:green'>Lift,<span style='color:red'>Fail,<span style='color:green'>Lift,<span style='color:green'>Lift","0,0,1,1,0,0,0,0,0,1,0,1","0,0,1,1,1,1,0,1,1,1,0,1","0,1,1,0,1,1",10,20,20,"","","","","{""box1"":""1"",""box2"":""1""}","",NA,5,"round2_outcome",3,5,2,1,1,NA,NA,0,0,20,NA,NA,NA,NA,NA,NA,NA,NA,NA,NA,NA,1,1,NA,NA,0,0,20,NA,NA,NA,NA,NA,NA,NA,NA,NA,NA,NA,"",NA,NA,NA,NA,NA,NA,NA,NA,2025-11-21 02:13:49
"1969.3999999761581","https://psyc-201.github.io/xiang2023/exp/index1.html?PROLIFIC_PID=REDACTED&STUDY_ID=691f8ca61c6b4dcbb0aeb5f4&SESSION_ID=691fc7bce524825be65c1ef8","survey-html-form",39,691190,"0.0-347.0","L9lzJsdZuiSESgJ1Te2RrA/lPCslSuI6g/bHAoFcdoTtE/KmzcOUt0LkoLSmiVCtfVWFnpXY1iE4L5d3mJtoNtevISZdacDcjuGlCSw+e2x2vaHU3P+mAd+gR/WRfxDPUV1Qrq+bcH0peoRnUdG4n9LSCGznidhKvWEGOePo+QipFgoa3Ra3jrhiK14tJaxJ93oUyovWuRRkK8/3IHp7P/Y1yckF0j3xsC/niyjE2U89DROVjjX7CxZCZnqCp8jR45ecrypZ9t9B9kL2jLIRtHVu0bNHrjroLN8CyidmFUNQ1Z3Qn6BTmegq0ajHT2hLq/uSZzkX7utavye8sM5eMg==","691f8ca61c6b4dcbb0aeb5f4","691fc7bce524825be65c1ef8","index1","<span style='color:red'>Fail,<span style='color:red'>Fail,<span style='color:green'>Lift,<span style='color:green'>Lift,<span style='color:red'>Fail,<span style='color:red'>Fail,<span style='color:red'>Fail,<span style='color:red'>Fail,<span style='color:red'>Fail,<span style='color:green'>Lift,<span style='color:red'>Fail,<span style='color:green'>Lift","<span style='color:red'>Fail,<span style='color:red'>Fail,<span style='color:green'>Lift,<span style='color:green'>Lift,<span style='color:green'>Lift,<span style='color:green'>Lift,<span style='color:red'>Fail,<span style='color:green'>Lift,<span style='color:green'>Lift,<span style='color:green'>Lift,<span style='color:red'>Fail,<span style='color:green'>Lift","<span style='color:red'>Fail,<span style='color:green'>Lift,<span style='color:green'>Lift,<span style='color:red'>Fail,<span style='color:green'>Lift,<span style='color:green'>Lift","0,0,1,1,0,0,0,0,0,1,0,1","0,0,1,1,1,1,0,1,1,1,0,1","0,1,1,0,1,1",10,20,20,"","","","","{""box1"":""0""}","",NA,5,"round3_ready",4,5,3,NA,NA,NA,NA,NA,NA,NA,NA,NA,NA,NA,NA,NA,NA,0,0,NA,NA,NA,NA,NA,NA,NA,NA,NA,0,0,NA,NA,NA,NA,NA,NA,NA,NA,NA,"",NA,NA,NA,NA,NA,NA,NA,NA,2025-11-21 02:13:49
"12708.900000095367","https://psyc-201.github.io/xiang2023/exp/index1.html?PROLIFIC_PID=REDACTED&STUDY_ID=691f8ca61c6b4dcbb0aeb5f4&SESSION_ID=691fc7bce524825be65c1ef8","survey-html-form",40,703900,"0.0-349.0-0.0","L9lzJsdZuiSESgJ1Te2RrA/lPCslSuI6g/bHAoFcdoTtE/KmzcOUt0LkoLSmiVCtfVWFnpXY1iE4L5d3mJtoNtevISZdacDcjuGlCSw+e2x2vaHU3P+mAd+gR/WRfxDPUV1Qrq+bcH0peoRnUdG4n9LSCGznidhKvWEGOePo+QipFgoa3Ra3jrhiK14tJaxJ93oUyovWuRRkK8/3IHp7P/Y1yckF0j3xsC/niyjE2U89DROVjjX7CxZCZnqCp8jR45ecrypZ9t9B9kL2jLIRtHVu0bNHrjroLN8CyidmFUNQ1Z3Qn6BTmegq0ajHT2hLq/uSZzkX7utavye8sM5eMg==","691f8ca61c6b4dcbb0aeb5f4","691fc7bce524825be65c1ef8","index1","<span style='color:red'>Fail,<span style='color:red'>Fail,<span style='color:green'>Lift,<span style='color:green'>Lift,<span style='color:red'>Fail,<span style='color:red'>Fail,<span style='color:red'>Fail,<span style='color:red'>Fail,<span style='color:red'>Fail,<span style='color:green'>Lift,<span style='color:red'>Fail,<span style='color:green'>Lift","<span style='color:red'>Fail,<span style='color:red'>Fail,<span style='color:green'>Lift,<span style='color:green'>Lift,<span style='color:green'>Lift,<span style='color:green'>Lift,<span style='color:red'>Fail,<span style='color:green'>Lift,<span style='color:green'>Lift,<span style='color:green'>Lift,<span style='color:red'>Fail,<span style='color:green'>Lift","<span style='color:red'>Fail,<span style='color:green'>Lift,<span style='color:green'>Lift,<span style='color:red'>Fail,<span style='color:green'>Lift,<span style='color:green'>Lift","0,0,1,1,0,0,0,0,0,1,0,1","0,0,1,1,1,1,0,1,1,1,0,1","0,1,1,0,1,1",10,20,20,"","","","","{""box1"":""1"",""box2"":""1"",""box3"":""999"",""box4"":""999""}","",NA,6,"round3_fail",5,5,3,1,1,NA,NA,0,0,20,NA,NA,NA,NA,NA,NA,NA,NA,NA,NA,NA,NA,NA,NA,NA,NA,NA,NA,NA,NA,1,1,NA,NA,0,0,20,1,1,"",NA,NA,NA,NA,NA,NA,NA,NA,2025-11-21 02:13:49
"null","https://psyc-201.github.io/xiang2023/exp/index1.html?PROLIFIC_PID=REDACTED&STUDY_ID=691f8ca61c6b4dcbb0aeb5f4&SESSION_ID=691fc7bce524825be65c1ef8","html-keyboard-response",41,706913,"0.0-352.0","L9lzJsdZuiSESgJ1Te2RrA/lPCslSuI6g/bHAoFcdoTtE/KmzcOUt0LkoLSmiVCtfVWFnpXY1iE4L5d3mJtoNtevISZdacDcjuGlCSw+e2x2vaHU3P+mAd+gR/WRfxDPUV1Qrq+bcH0peoRnUdG4n9LSCGznidhKvWEGOePo+QipFgoa3Ra3jrhiK14tJaxJ93oUyovWuRRkK8/3IHp7P/Y1yckF0j3xsC/niyjE2U89DROVjjX7CxZCZnqCp8jR45ecrypZ9t9B9kL2jLIRtHVu0bNHrjroLN8CyidmFUNQ1Z3Qn6BTmegq0ajHT2hLq/uSZzkX7utavye8sM5eMg==","691f8ca61c6b4dcbb0aeb5f4","691fc7bce524825be65c1ef8","index1","<span style='color:red'>Fail,<span style='color:red'>Fail,<span style='color:green'>Lift,<span style='color:green'>Lift,<span style='color:red'>Fail,<span style='color:red'>Fail,<span style='color:red'>Fail,<span style='color:red'>Fail,<span style='color:red'>Fail,<span style='color:green'>Lift,<span style='color:red'>Fail,<span style='color:green'>Lift","<span style='color:red'>Fail,<span style='color:red'>Fail,<span style='color:green'>Lift,<span style='color:green'>Lift,<span style='color:green'>Lift,<span style='color:green'>Lift,<span style='color:red'>Fail,<span style='color:green'>Lift,<span style='color:green'>Lift,<span style='color:green'>Lift,<span style='color:red'>Fail,<span style='color:green'>Lift","<span style='color:red'>Fail,<span style='color:green'>Lift,<span style='color:green'>Lift,<span style='color:red'>Fail,<span style='color:green'>Lift,<span style='color:green'>Lift","0,0,1,1,0,0,0,0,0,1,0,1","0,0,1,1,1,1,0,1,1,1,0,1","0,1,1,0,1,1",10,20,20,"","","<p style='font-size:30px'><b> New Contest! </b></p>","null","","",NA,6,"",NA,NA,NA,NA,NA,NA,NA,NA,NA,NA,NA,NA,NA,NA,NA,NA,NA,NA,NA,NA,NA,NA,NA,NA,NA,NA,NA,NA,NA,NA,NA,NA,NA,NA,NA,NA,NA,NA,NA,"",NA,NA,NA,NA,NA,NA,NA,NA,2025-11-21 02:13:49
"15384.199999928474","https://psyc-201.github.io/xiang2023/exp/index1.html?PROLIFIC_PID=REDACTED&STUDY_ID=691f8ca61c6b4dcbb0aeb5f4&SESSION_ID=691fc7bce524825be65c1ef8","survey-html-form",42,722298,"0.0-353.0","L9lzJsdZuiSESgJ1Te2RrA/lPCslSuI6g/bHAoFcdoTtE/KmzcOUt0LkoLSmiVCtfVWFnpXY1iE4L5d3mJtoNtevISZdacDcjuGlCSw+e2x2vaHU3P+mAd+gR/WRfxDPUV1Qrq+bcH0peoRnUdG4n9LSCGznidhKvWEGOePo+QipFgoa3Ra3jrhiK14tJaxJ93oUyovWuRRkK8/3IHp7P/Y1yckF0j3xsC/niyjE2U89DROVjjX7CxZCZnqCp8jR45ecrypZ9t9B9kL2jLIRtHVu0bNHrjroLN8CyidmFUNQ1Z3Qn6BTmegq0ajHT2hLq/uSZzkX7utavye8sM5eMg==","691f8ca61c6b4dcbb0aeb5f4","691fc7bce524825be65c1ef8","index1","<span style='color:red'>Fail,<span style='color:red'>Fail,<span style='color:green'>Lift,<span style='color:green'>Lift,<span style='color:red'>Fail,<span style='color:red'>Fail,<span style='color:red'>Fail,<span style='color:red'>Fail,<span style='color:red'>Fail,<span style='color:green'>Lift,<span style='color:red'>Fail,<span style='color:green'>Lift","<span style='color:red'>Fail,<span style='color:red'>Fail,<span style='color:green'>Lift,<span style='color:green'>Lift,<span style='color:green'>Lift,<span style='color:green'>Lift,<span style='color:red'>Fail,<span style='color:green'>Lift,<span style='color:green'>Lift,<span style='color:green'>Lift,<span style='color:red'>Fail,<span style='color:green'>Lift","<span style='color:red'>Fail,<span style='color:green'>Lift,<span style='color:green'>Lift,<span style='color:red'>Fail,<span style='color:green'>Lift,<span style='color:green'>Lift","0,0,1,1,0,0,0,0,0,1,0,1","0,0,1,1,1,1,0,1,1,1,0,1","0,1,1,0,1,1",10,20,20,"","","","","{""box1"":""1"",""box2"":""1""}","",NA,6,"round1_outcome",1,6,1,1,1,NA,NA,0,0,10,1,1,NA,NA,0,0,10,NA,NA,NA,NA,NA,NA,NA,NA,NA,NA,NA,NA,NA,NA,NA,NA,NA,NA,NA,NA,NA,NA,"",NA,NA,NA,NA,NA,NA,NA,NA,2025-11-21 02:13:49
"2961.2999999523163","https://psyc-201.github.io/xiang2023/exp/index1.html?PROLIFIC_PID=REDACTED&STUDY_ID=691f8ca61c6b4dcbb0aeb5f4&SESSION_ID=691fc7bce524825be65c1ef8","survey-html-form",43,725260,"0.0-354.0","L9lzJsdZuiSESgJ1Te2RrA/lPCslSuI6g/bHAoFcdoTtE/KmzcOUt0LkoLSmiVCtfVWFnpXY1iE4L5d3mJtoNtevISZdacDcjuGlCSw+e2x2vaHU3P+mAd+gR/WRfxDPUV1Qrq+bcH0peoRnUdG4n9LSCGznidhKvWEGOePo+QipFgoa3Ra3jrhiK14tJaxJ93oUyovWuRRkK8/3IHp7P/Y1yckF0j3xsC/niyjE2U89DROVjjX7CxZCZnqCp8jR45ecrypZ9t9B9kL2jLIRtHVu0bNHrjroLN8CyidmFUNQ1Z3Qn6BTmegq0ajHT2hLq/uSZzkX7utavye8sM5eMg==","691f8ca61c6b4dcbb0aeb5f4","691fc7bce524825be65c1ef8","index1","<span style='color:red'>Fail,<span style='color:red'>Fail,<span style='color:green'>Lift,<span style='color:green'>Lift,<span style='color:red'>Fail,<span style='color:red'>Fail,<span style='color:red'>Fail,<span style='color:red'>Fail,<span style='color:red'>Fail,<span style='color:green'>Lift,<span style='color:red'>Fail,<span style='color:green'>Lift","<span style='color:red'>Fail,<span style='color:red'>Fail,<span style='color:green'>Lift,<span style='color:green'>Lift,<span style='color:green'>Lift,<span style='color:green'>Lift,<span style='color:red'>Fail,<span style='color:green'>Lift,<span style='color:green'>Lift,<span style='color:green'>Lift,<span style='color:red'>Fail,<span style='color:green'>Lift","<span style='color:red'>Fail,<span style='color:green'>Lift,<span style='color:green'>Lift,<span style='color:red'>Fail,<span style='color:green'>Lift,<span style='color:green'>Lift","0,0,1,1,0,0,0,0,0,1,0,1","0,0,1,1,1,1,0,1,1,1,0,1","0,1,1,0,1,1",10,20,20,"","","","","{""box1"":""50"",""box2"":""50""}","",NA,6,"round2_ready",2,6,2,NA,NA,NA,NA,NA,NA,NA,NA,NA,NA,NA,NA,NA,NA,50,50,50,50,NA,NA,NA,NA,NA,NA,NA,NA,NA,NA,NA,NA,NA,NA,NA,NA,NA,NA,"",NA,NA,NA,NA,NA,NA,NA,NA,2025-11-21 02:13:49
"6198.100000023842","https://psyc-201.github.io/xiang2023/exp/index1.html?PROLIFIC_PID=REDACTED&STUDY_ID=691f8ca61c6b4dcbb0aeb5f4&SESSION_ID=691fc7bce524825be65c1ef8","survey-html-form",44,731460,"0.0-355.0","L9lzJsdZuiSESgJ1Te2RrA/lPCslSuI6g/bHAoFcdoTtE/KmzcOUt0LkoLSmiVCtfVWFnpXY1iE4L5d3mJtoNtevISZdacDcjuGlCSw+e2x2vaHU3P+mAd+gR/WRfxDPUV1Qrq+bcH0peoRnUdG4n9LSCGznidhKvWEGOePo+QipFgoa3Ra3jrhiK14tJaxJ93oUyovWuRRkK8/3IHp7P/Y1yckF0j3xsC/niyjE2U89DROVjjX7CxZCZnqCp8jR45ecrypZ9t9B9kL2jLIRtHVu0bNHrjroLN8CyidmFUNQ1Z3Qn6BTmegq0ajHT2hLq/uSZzkX7utavye8sM5eMg==","691f8ca61c6b4dcbb0aeb5f4","691fc7bce524825be65c1ef8","index1","<span style='color:red'>Fail,<span style='color:red'>Fail,<span style='color:green'>Lift,<span style='color:green'>Lift,<span style='color:red'>Fail,<span style='color:red'>Fail,<span style='color:red'>Fail,<span style='color:red'>Fail,<span style='color:red'>Fail,<span style='color:green'>Lift,<span style='color:red'>Fail,<span style='color:green'>Lift","<span style='color:red'>Fail,<span style='color:red'>Fail,<span style='color:green'>Lift,<span style='color:green'>Lift,<span style='color:green'>Lift,<span style='color:green'>Lift,<span style='color:red'>Fail,<span style='color:green'>Lift,<span style='color:green'>Lift,<span style='color:green'>Lift,<span style='color:red'>Fail,<span style='color:green'>Lift","<span style='color:red'>Fail,<span style='color:green'>Lift,<span style='color:green'>Lift,<span style='color:red'>Fail,<span style='color:green'>Lift,<span style='color:green'>Lift","0,0,1,1,0,0,0,0,0,1,0,1","0,0,1,1,1,1,0,1,1,1,0,1","0,1,1,0,1,1",10,20,20,"","","","","{""box1"":""10"",""box2"":""10"",""box3"":""50"",""box4"":""50""}","",NA,6,"round2_outcome",3,6,2,10,10,50,50,1,1,20,NA,NA,NA,NA,NA,NA,NA,NA,NA,NA,NA,10,10,50,50,1,1,20,NA,NA,NA,NA,NA,NA,NA,NA,NA,NA,NA,"",NA,NA,NA,NA,NA,NA,NA,NA,2025-11-21 02:13:49
"1909.6000000238419","https://psyc-201.github.io/xiang2023/exp/index1.html?PROLIFIC_PID=REDACTED&STUDY_ID=691f8ca61c6b4dcbb0aeb5f4&SESSION_ID=691fc7bce524825be65c1ef8","survey-html-form",45,733370,"0.0-356.0","L9lzJsdZuiSESgJ1Te2RrA/lPCslSuI6g/bHAoFcdoTtE/KmzcOUt0LkoLSmiVCtfVWFnpXY1iE4L5d3mJtoNtevISZdacDcjuGlCSw+e2x2vaHU3P+mAd+gR/WRfxDPUV1Qrq+bcH0peoRnUdG4n9LSCGznidhKvWEGOePo+QipFgoa3Ra3jrhiK14tJaxJ93oUyovWuRRkK8/3IHp7P/Y1yckF0j3xsC/niyjE2U89DROVjjX7CxZCZnqCp8jR45ecrypZ9t9B9kL2jLIRtHVu0bNHrjroLN8CyidmFUNQ1Z3Qn6BTmegq0ajHT2hLq/uSZzkX7utavye8sM5eMg==","691f8ca61c6b4dcbb0aeb5f4","691fc7bce524825be65c1ef8","index1","<span style='color:red'>Fail,<span style='color:red'>Fail,<span style='color:green'>Lift,<span style='color:green'>Lift,<span style='color:red'>Fail,<span style='color:red'>Fail,<span style='color:red'>Fail,<span style='color:red'>Fail,<span style='color:red'>Fail,<span style='color:green'>Lift,<span style='color:red'>Fail,<span style='color:green'>Lift","<span style='color:red'>Fail,<span style='color:red'>Fail,<span style='color:green'>Lift,<span style='color:green'>Lift,<span style='color:green'>Lift,<span style='color:green'>Lift,<span style='color:red'>Fail,<span style='color:green'>Lift,<span style='color:green'>Lift,<span style='color:green'>Lift,<span style='color:red'>Fail,<span style='color:green'>Lift","<span style='color:red'>Fail,<span style='color:green'>Lift,<span style='color:green'>Lift,<span style='color:red'>Fail,<span style='color:green'>Lift,<span style='color:green'>Lift","0,0,1,1,0,0,0,0,0,1,0,1","0,0,1,1,1,1,0,1,1,1,0,1","0,1,1,0,1,1",10,20,20,"","","","","{""box1"":""100""}","",NA,6,"round3_ready",4,6,3,NA,NA,NA,NA,NA,NA,NA,NA,NA,NA,NA,NA,NA,NA,100,100,NA,NA,NA,NA,NA,NA,NA,NA,NA,100,100,NA,NA,NA,NA,NA,NA,NA,NA,NA,"",NA,NA,NA,NA,NA,NA,NA,NA,2025-11-21 02:13:49
"9086.899999976158","https://psyc-201.github.io/xiang2023/exp/index1.html?PROLIFIC_PID=REDACTED&STUDY_ID=691f8ca61c6b4dcbb0aeb5f4&SESSION_ID=691fc7bce524825be65c1ef8","survey-html-form",46,742458,"0.0-357.0-0.0","L9lzJsdZuiSESgJ1Te2RrA/lPCslSuI6g/bHAoFcdoTtE/KmzcOUt0LkoLSmiVCtfVWFnpXY1iE4L5d3mJtoNtevISZdacDcjuGlCSw+e2x2vaHU3P+mAd+gR/WRfxDPUV1Qrq+bcH0peoRnUdG4n9LSCGznidhKvWEGOePo+QipFgoa3Ra3jrhiK14tJaxJ93oUyovWuRRkK8/3IHp7P/Y1yckF0j3xsC/niyjE2U89DROVjjX7CxZCZnqCp8jR45ecrypZ9t9B9kL2jLIRtHVu0bNHrjroLN8CyidmFUNQ1Z3Qn6BTmegq0ajHT2hLq/uSZzkX7utavye8sM5eMg==","691f8ca61c6b4dcbb0aeb5f4","691fc7bce524825be65c1ef8","index1","<span style='color:red'>Fail,<span style='color:red'>Fail,<span style='color:green'>Lift,<span style='color:green'>Lift,<span style='color:red'>Fail,<span style='color:red'>Fail,<span style='color:red'>Fail,<span style='color:red'>Fail,<span style='color:red'>Fail,<span style='color:green'>Lift,<span style='color:red'>Fail,<span style='color:green'>Lift","<span style='color:red'>Fail,<span style='color:red'>Fail,<span style='color:green'>Lift,<span style='color:green'>Lift,<span style='color:green'>Lift,<span style='color:green'>Lift,<span style='color:red'>Fail,<span style='color:green'>Lift,<span style='color:green'>Lift,<span style='color:green'>Lift,<span style='color:red'>Fail,<span style='color:green'>Lift","<span style='color:red'>Fail,<span style='color:green'>Lift,<span style='color:green'>Lift,<span style='color:red'>Fail,<span style='color:green'>Lift,<span style='color:green'>Lift","0,0,1,1,0,0,0,0,0,1,0,1","0,0,1,1,1,1,0,1,1,1,0,1","0,1,1,0,1,1",10,20,20,"","","","","{""box1"":""10"",""box2"":""10"",""box3"":""50"",""box4"":""50""}","",NA,6,"round3_lift",5,6,3,10,10,50,50,1,1,20,NA,NA,NA,NA,NA,NA,NA,NA,NA,NA,NA,NA,NA,NA,NA,NA,NA,NA,NA,NA,10,10,50,50,1,1,20,NA,NA,"",NA,NA,NA,NA,NA,NA,NA,NA,2025-11-21 02:13:49
"36828","https://psyc-201.github.io/xiang2023/exp/index1.html?PROLIFIC_PID=REDACTED&STUDY_ID=691f8ca61c6b4dcbb0aeb5f4&SESSION_ID=691fc7bce524825be65c1ef8","survey-text",47,779288,"0.0-361.0","L9lzJsdZuiSESgJ1Te2RrA/lPCslSuI6g/bHAoFcdoTtE/KmzcOUt0LkoLSmiVCtfVWFnpXY1iE4L5d3mJtoNtevISZdacDcjuGlCSw+e2x2vaHU3P+mAd+gR/WRfxDPUV1Qrq+bcH0peoRnUdG4n9LSCGznidhKvWEGOePo+QipFgoa3Ra3jrhiK14tJaxJ93oUyovWuRRkK8/3IHp7P/Y1yckF0j3xsC/niyjE2U89DROVjjX7CxZCZnqCp8jR45ecrypZ9t9B9kL2jLIRtHVu0bNHrjroLN8CyidmFUNQ1Z3Qn6BTmegq0ajHT2hLq/uSZzkX7utavye8sM5eMg==","691f8ca61c6b4dcbb0aeb5f4","691fc7bce524825be65c1ef8","index1","<span style='color:red'>Fail,<span style='color:red'>Fail,<span style='color:green'>Lift,<span style='color:green'>Lift,<span style='color:red'>Fail,<span style='color:red'>Fail,<span style='color:red'>Fail,<span style='color:red'>Fail,<span style='color:red'>Fail,<span style='color:green'>Lift,<span style='color:red'>Fail,<span style='color:green'>Lift","<span style='color:red'>Fail,<span style='color:red'>Fail,<span style='color:green'>Lift,<span style='color:green'>Lift,<span style='color:green'>Lift,<span style='color:green'>Lift,<span style='color:red'>Fail,<span style='color:green'>Lift,<span style='color:green'>Lift,<span style='color:green'>Lift,<span style='color:red'>Fail,<span style='color:green'>Lift","<span style='color:red'>Fail,<span style='color:green'>Lift,<span style='color:green'>Lift,<span style='color:red'>Fail,<span style='color:green'>Lift,<span style='color:green'>Lift","0,0,1,1,0,0,0,0,0,1,0,1","0,0,1,1,1,1,0,1,1,1,0,1","0,1,1,0,1,1",10,20,20,"","","","","{""Q0"":""I made guesses on whether or not 2 people could individually lift their boxes based off their strength and how much money was in the box. And then whether both the people can lift the box together or not.""}","",NA,NA,"",NA,NA,NA,NA,NA,NA,NA,NA,NA,NA,NA,NA,NA,NA,NA,NA,NA,NA,NA,NA,NA,NA,NA,NA,NA,NA,NA,NA,NA,NA,NA,NA,NA,NA,NA,NA,NA,NA,NA,"",NA,NA,NA,NA,NA,NA,NA,NA,2025-11-21 02:13:49
"11473.100000023842","https://psyc-201.github.io/xiang2023/exp/index1.html?PROLIFIC_PID=REDACTED&STUDY_ID=691f8ca61c6b4dcbb0aeb5f4&SESSION_ID=691fc7bce524825be65c1ef8","survey-text",48,790762,"0.0-362.0","L9lzJsdZuiSESgJ1Te2RrA/lPCslSuI6g/bHAoFcdoTtE/KmzcOUt0LkoLSmiVCtfVWFnpXY1iE4L5d3mJtoNtevISZdacDcjuGlCSw+e2x2vaHU3P+mAd+gR/WRfxDPUV1Qrq+bcH0peoRnUdG4n9LSCGznidhKvWEGOePo+QipFgoa3Ra3jrhiK14tJaxJ93oUyovWuRRkK8/3IHp7P/Y1yckF0j3xsC/niyjE2U89DROVjjX7CxZCZnqCp8jR45ecrypZ9t9B9kL2jLIRtHVu0bNHrjroLN8CyidmFUNQ1Z3Qn6BTmegq0ajHT2hLq/uSZzkX7utavye8sM5eMg==","691f8ca61c6b4dcbb0aeb5f4","691fc7bce524825be65c1ef8","index1","<span style='color:red'>Fail,<span style='color:red'>Fail,<span style='color:green'>Lift,<span style='color:green'>Lift,<span style='color:red'>Fail,<span style='color:red'>Fail,<span style='color:red'>Fail,<span style='color:red'>Fail,<span style='color:red'>Fail,<span style='color:green'>Lift,<span style='color:red'>Fail,<span style='color:green'>Lift","<span style='color:red'>Fail,<span style='color:red'>Fail,<span style='color:green'>Lift,<span style='color:green'>Lift,<span style='color:green'>Lift,<span style='color:green'>Lift,<span style='color:red'>Fail,<span style='color:green'>Lift,<span style='color:green'>Lift,<span style='color:green'>Lift,<span style='color:red'>Fail,<span style='color:green'>Lift","<span style='color:red'>Fail,<span style='color:green'>Lift,<span style='color:green'>Lift,<span style='color:red'>Fail,<span style='color:green'>Lift,<span style='color:green'>Lift","0,0,1,1,0,0,0,0,0,1,0,1","0,0,1,1,1,1,0,1,1,1,0,1","0,1,1,0,1,1",10,20,20,"","","","","{""Q0"":""Felt like a long survey for the base pay.""}","",NA,NA,"",NA,NA,NA,NA,NA,NA,NA,NA,NA,NA,NA,NA,NA,NA,NA,NA,NA,NA,NA,NA,NA,NA,NA,NA,NA,NA,NA,NA,NA,NA,NA,NA,NA,NA,NA,NA,NA,NA,NA,"[{""event"":""fullscreenenter"",""trial"":1,""time"":3231},{""event"":""blur"",""trial"":2,""time"":157340},{""event"":""focus"",""trial"":2,""time"":193869},{""event"":""blur"",""trial"":6,""time"":342902},{""event"":""focus"",""trial"":6,""time"":365194},{""event"":""blur"",""trial"":11,""time"":461359},{""event"":""focus"",""trial"":12,""time"":479468}]",6,3,NA,100,1,1,NA,NA,2025-11-21 02:13:49
"3614.5","https://psyc-201.github.io/xiang2023/exp/index1.html?PROLIFIC_PID=REDACTED&STUDY_ID=691f8ca61c6b4dcbb0aeb5f4&SESSION_ID=691fc7bce524825be65c1ef8","html-button-response",49,794378,"0.0-363.0","L9lzJsdZuiSESgJ1Te2RrA/lPCslSuI6g/bHAoFcdoTtE/KmzcOUt0LkoLSmiVCtfVWFnpXY1iE4L5d3mJtoNtevISZdacDcjuGlCSw+e2x2vaHU3P+mAd+gR/WRfxDPUV1Qrq+bcH0peoRnUdG4n9LSCGznidhKvWEGOePo+QipFgoa3Ra3jrhiK14tJaxJ93oUyovWuRRkK8/3IHp7P/Y1yckF0j3xsC/niyjE2U89DROVjjX7CxZCZnqCp8jR45ecrypZ9t9B9kL2jLIRtHVu0bNHrjroLN8CyidmFUNQ1Z3Qn6BTmegq0ajHT2hLq/uSZzkX7utavye8sM5eMg==","691f8ca61c6b4dcbb0aeb5f4","691fc7bce524825be65c1ef8","index1","<span style='color:red'>Fail,<span style='color:red'>Fail,<span style='color:green'>Lift,<span style='color:green'>Lift,<span style='color:red'>Fail,<span style='color:red'>Fail,<span style='color:red'>Fail,<span style='color:red'>Fail,<span style='color:red'>Fail,<span style='color:green'>Lift,<span style='color:red'>Fail,<span style='color:green'>Lift","<span style='color:red'>Fail,<span style='color:red'>Fail,<span style='color:green'>Lift,<span style='color:green'>Lift,<span style='color:green'>Lift,<span style='color:green'>Lift,<span style='color:red'>Fail,<span style='color:green'>Lift,<span style='color:green'>Lift,<span style='color:green'>Lift,<span style='color:red'>Fail,<span style='color:green'>Lift","<span style='color:red'>Fail,<span style='color:green'>Lift,<span style='color:green'>Lift,<span style='color:red'>Fail,<span style='color:green'>Lift,<span style='color:green'>Lift","0,0,1,1,0,0,0,0,0,1,0,1","0,0,1,1,1,1,0,1,1,1,0,1","0,1,1,0,1,1",10,20,20,"","","<p> We randomly picked <b>Contest 6, Round 3</b> to calculate your bonus. </p><p> The outcome of Contestant K and L on that round is <span style='color:green'>Lift</span>. </p><p> The probability you entered was 100. </p><p><b> You won a bonus of $1.00!</b></p><p> IMPORTANT: Please click 'Next' to complete the game. </p>","","","",0,NA,"",NA,NA,NA,NA,NA,NA,NA,NA,NA,NA,NA,NA,NA,NA,NA,NA,NA,NA,NA,NA,NA,NA,NA,NA,NA,NA,NA,NA,NA,NA,NA,NA,NA,NA,NA,NA,NA,NA,NA,"",NA,NA,NA,NA,NA,NA,2,1,2025-11-21 02:13:49
