"rt","url","trial_type","trial_index","time_elapsed","internal_node_id","encryptedProlificId","studyId","sessionId","expIndex","round1_outcomes","round2_outcomes","round3_outcomes","round1_o","round2_o","round3_o","round1_reward","round2_reward","round3_reward","success","view_history","stimulus","key_press","responses","question_order","button_pressed","j","Stage","stage","contest","round","strength_a","strength_b","effort_a","effort_b","outcome_a","outcome_b","reward","r1_strength_a","r1_strength_b","r1_effort_a","r1_effort_b","r1_outcome_a","r1_outcome_b","r1_reward","probability_a","probability_b","r2_prob_a","r2_prob_b","r2_strength_a","r2_strength_b","r2_effort_a","r2_effort_b","r2_outcome_a","r2_outcome_b","r2_reward","r3_prob_a","r3_prob_b","r3_strength_a","r3_strength_b","r3_effort_a","r3_effort_b","r3_outcome_a","r3_outcome_b","r3_reward","attention_check","count","screen","pick_contest","pick_round","pick_side","trial_probability","trial_outcome","bonus","attention_sum","attention","datapipe_meta.attributes.date_modified"
"27940.100000023842","https://psyc-201.github.io/xiang2023/exp/index1.html?PROLIFIC_PID=REDACTED&STUDY_ID=691f8ca61c6b4dcbb0aeb5f4&SESSION_ID=691fc22d9a314db2176a42dc","external-html",0,28238,"0.0-0.0","b2sRMBjYfhnM7h8uCAnGQyCGGQwEcvr7omltKmhqikjVCWLXYbroZcLJNvzCKD5jCbrhjXLXb1e3CMpmlRmYFNFWLmxwIEhmGj69g1HkttcXHeNh1Fhs/5PuFAH3I8hG4s11ZcvQqFXax4ZF1pMs+ZNkkn50NrZQi3QMVTiB7/Iur5TTENXQsBcTaw6tkDxr3LR9WG1j0bZh112vz8GMnBGEGlVhEaDCHv2mbBltfLj/yC7H1c6ppb3uPq6kVpq370sAHEq3/JyL9tLMQ5c/zbPaqxhIHumUlRMWfIxah9e+rOKyMTwS7qKgKSvtErUIrZul+fJw6iFAApH03v/noQ==","691f8ca61c6b4dcbb0aeb5f4","691fc22d9a314db2176a42dc","index1","<span style='color:red'>Fail,<span style='color:red'>Fail,<span style='color:green'>Lift,<span style='color:green'>Lift,<span style='color:red'>Fail,<span style='color:red'>Fail,<span style='color:red'>Fail,<span style='color:red'>Fail,<span style='color:red'>Fail,<span style='color:green'>Lift,<span style='color:green'>Lift,<span style='color:red'>Fail","<span style='color:red'>Fail,<span style='color:red'>Fail,<span style='color:green'>Lift,<span style='color:green'>Lift,<span style='color:green'>Lift,<span style='color:green'>Lift,<span style='color:red'>Fail,<span style='color:green'>Lift,<span style='color:green'>Lift,<span style='color:green'>Lift,<span style='color:green'>Lift,<span style='color:red'>Fail","<span style='color:red'>Fail,<span style='color:green'>Lift,<span style='color:green'>Lift,<span style='color:red'>Fail,<span style='color:green'>Lift,<span style='color:green'>Lift","0,0,1,1,0,0,0,0,0,1,1,0","0,0,1,1,1,1,0,1,1,1,1,0","0,1,1,0,1,1",10,20,20,"","","","","","",NA,NA,"",NA,NA,NA,NA,NA,NA,NA,NA,NA,NA,NA,NA,NA,NA,NA,NA,NA,NA,NA,NA,NA,NA,NA,NA,NA,NA,NA,NA,NA,NA,NA,NA,NA,NA,NA,NA,NA,NA,NA,"",NA,NA,NA,NA,NA,NA,NA,NA,2025-11-21 01:50:38
"","https://psyc-201.github.io/xiang2023/exp/index1.html?PROLIFIC_PID=REDACTED&STUDY_ID=691f8ca61c6b4dcbb0aeb5f4&SESSION_ID=691fc22d9a314db2176a42dc","fullscreen",1,32497,"0.0-1.0","b2sRMBjYfhnM7h8uCAnGQyCGGQwEcvr7omltKmhqikjVCWLXYbroZcLJNvzCKD5jCbrhjXLXb1e3CMpmlRmYFNFWLmxwIEhmGj69g1HkttcXHeNh1Fhs/5PuFAH3I8hG4s11ZcvQqFXax4ZF1pMs+ZNkkn50NrZQi3QMVTiB7/Iur5TTENXQsBcTaw6tkDxr3LR9WG1j0bZh112vz8GMnBGEGlVhEaDCHv2mbBltfLj/yC7H1c6ppb3uPq6kVpq370sAHEq3/JyL9tLMQ5c/zbPaqxhIHumUlRMWfIxah9e+rOKyMTwS7qKgKSvtErUIrZul+fJw6iFAApH03v/noQ==","691f8ca61c6b4dcbb0aeb5f4","691fc22d9a314db2176a42dc","index1","<span style='color:red'>Fail,<span style='color:red'>Fail,<span style='color:green'>Lift,<span style='color:green'>Lift,<span style='color:red'>Fail,<span style='color:red'>Fail,<span style='color:red'>Fail,<span style='color:red'>Fail,<span style='color:red'>Fail,<span style='color:green'>Lift,<span style='color:green'>Lift,<span style='color:red'>Fail","<span style='color:red'>Fail,<span style='color:red'>Fail,<span style='color:green'>Lift,<span style='color:green'>Lift,<span style='color:green'>Lift,<span style='color:green'>Lift,<span style='color:red'>Fail,<span style='color:green'>Lift,<span style='color:green'>Lift,<span style='color:green'>Lift,<span style='color:green'>Lift,<span style='color:red'>Fail","<span style='color:red'>Fail,<span style='color:green'>Lift,<span style='color:green'>Lift,<span style='color:red'>Fail,<span style='color:green'>Lift,<span style='color:green'>Lift","0,0,1,1,0,0,0,0,0,1,1,0","0,0,1,1,1,1,0,1,1,1,1,0","0,1,1,0,1,1",10,20,20,"true","","","","","",NA,NA,"",NA,NA,NA,NA,NA,NA,NA,NA,NA,NA,NA,NA,NA,NA,NA,NA,NA,NA,NA,NA,NA,NA,NA,NA,NA,NA,NA,NA,NA,NA,NA,NA,NA,NA,NA,NA,NA,NA,NA,"",NA,NA,NA,NA,NA,NA,NA,NA,2025-11-21 01:50:38
"130206","https://psyc-201.github.io/xiang2023/exp/index1.html?PROLIFIC_PID=REDACTED&STUDY_ID=691f8ca61c6b4dcbb0aeb5f4&SESSION_ID=691fc22d9a314db2176a42dc","instructions",2,162705,"0.0-2.0","b2sRMBjYfhnM7h8uCAnGQyCGGQwEcvr7omltKmhqikjVCWLXYbroZcLJNvzCKD5jCbrhjXLXb1e3CMpmlRmYFNFWLmxwIEhmGj69g1HkttcXHeNh1Fhs/5PuFAH3I8hG4s11ZcvQqFXax4ZF1pMs+ZNkkn50NrZQi3QMVTiB7/Iur5TTENXQsBcTaw6tkDxr3LR9WG1j0bZh112vz8GMnBGEGlVhEaDCHv2mbBltfLj/yC7H1c6ppb3uPq6kVpq370sAHEq3/JyL9tLMQ5c/zbPaqxhIHumUlRMWfIxah9e+rOKyMTwS7qKgKSvtErUIrZul+fJw6iFAApH03v/noQ==","691f8ca61c6b4dcbb0aeb5f4","691fc22d9a314db2176a42dc","index1","<span style='color:red'>Fail,<span style='color:red'>Fail,<span style='color:green'>Lift,<span style='color:green'>Lift,<span style='color:red'>Fail,<span style='color:red'>Fail,<span style='color:red'>Fail,<span style='color:red'>Fail,<span style='color:red'>Fail,<span style='color:green'>Lift,<span style='color:green'>Lift,<span style='color:red'>Fail","<span style='color:red'>Fail,<span style='color:red'>Fail,<span style='color:green'>Lift,<span style='color:green'>Lift,<span style='color:green'>Lift,<span style='color:green'>Lift,<span style='color:red'>Fail,<span style='color:green'>Lift,<span style='color:green'>Lift,<span style='color:green'>Lift,<span style='color:green'>Lift,<span style='color:red'>Fail","<span style='color:red'>Fail,<span style='color:green'>Lift,<span style='color:green'>Lift,<span style='color:red'>Fail,<span style='color:green'>Lift,<span style='color:green'>Lift","0,0,1,1,0,0,0,0,0,1,1,0","0,0,1,1,1,1,0,1,1,1,1,0","0,1,1,0,1,1",10,20,20,"","[{""page_index"":0,""viewing_time"":15516.200000047684},{""page_index"":1,""viewing_time"":24143.799999952316},{""page_index"":2,""viewing_time"":16485.800000071526},{""page_index"":3,""viewing_time"":18577.799999952316},{""page_index"":4,""viewing_time"":9980.100000023842},{""page_index"":5,""viewing_time"":17331.399999976158},{""page_index"":6,""viewing_time"":28170.300000071526}]","","","","",NA,NA,"",NA,NA,NA,NA,NA,NA,NA,NA,NA,NA,NA,NA,NA,NA,NA,NA,NA,NA,NA,NA,NA,NA,NA,NA,NA,NA,NA,NA,NA,NA,NA,NA,NA,NA,NA,NA,NA,NA,NA,"",NA,NA,NA,NA,NA,NA,NA,NA,2025-11-21 01:50:38
"null","https://psyc-201.github.io/xiang2023/exp/index1.html?PROLIFIC_PID=REDACTED&STUDY_ID=691f8ca61c6b4dcbb0aeb5f4&SESSION_ID=691fc22d9a314db2176a42dc","html-keyboard-response",3,163714,"0.0-3.0","b2sRMBjYfhnM7h8uCAnGQyCGGQwEcvr7omltKmhqikjVCWLXYbroZcLJNvzCKD5jCbrhjXLXb1e3CMpmlRmYFNFWLmxwIEhmGj69g1HkttcXHeNh1Fhs/5PuFAH3I8hG4s11ZcvQqFXax4ZF1pMs+ZNkkn50NrZQi3QMVTiB7/Iur5TTENXQsBcTaw6tkDxr3LR9WG1j0bZh112vz8GMnBGEGlVhEaDCHv2mbBltfLj/yC7H1c6ppb3uPq6kVpq370sAHEq3/JyL9tLMQ5c/zbPaqxhIHumUlRMWfIxah9e+rOKyMTwS7qKgKSvtErUIrZul+fJw6iFAApH03v/noQ==","691f8ca61c6b4dcbb0aeb5f4","691fc22d9a314db2176a42dc","index1","<span style='color:red'>Fail,<span style='color:red'>Fail,<span style='color:green'>Lift,<span style='color:green'>Lift,<span style='color:red'>Fail,<span style='color:red'>Fail,<span style='color:red'>Fail,<span style='color:red'>Fail,<span style='color:red'>Fail,<span style='color:green'>Lift,<span style='color:green'>Lift,<span style='color:red'>Fail","<span style='color:red'>Fail,<span style='color:red'>Fail,<span style='color:green'>Lift,<span style='color:green'>Lift,<span style='color:green'>Lift,<span style='color:green'>Lift,<span style='color:red'>Fail,<span style='color:green'>Lift,<span style='color:green'>Lift,<span style='color:green'>Lift,<span style='color:green'>Lift,<span style='color:red'>Fail","<span style='color:red'>Fail,<span style='color:green'>Lift,<span style='color:green'>Lift,<span style='color:red'>Fail,<span style='color:green'>Lift,<span style='color:green'>Lift","0,0,1,1,0,0,0,0,0,1,1,0","0,0,1,1,1,1,0,1,1,1,1,0","0,1,1,0,1,1",10,20,20,"",""," ","null","","",NA,NA,"",NA,NA,NA,NA,NA,NA,NA,NA,NA,NA,NA,NA,NA,NA,NA,NA,NA,NA,NA,NA,NA,NA,NA,NA,NA,NA,NA,NA,NA,NA,NA,NA,NA,NA,NA,NA,NA,NA,NA,"",NA,NA,NA,NA,NA,NA,NA,NA,2025-11-21 01:50:38
"37880.39999997616","https://psyc-201.github.io/xiang2023/exp/index1.html?PROLIFIC_PID=REDACTED&STUDY_ID=691f8ca61c6b4dcbb0aeb5f4&SESSION_ID=691fc22d9a314db2176a42dc","survey-multi-choice",4,201598,"0.0-4.0","b2sRMBjYfhnM7h8uCAnGQyCGGQwEcvr7omltKmhqikjVCWLXYbroZcLJNvzCKD5jCbrhjXLXb1e3CMpmlRmYFNFWLmxwIEhmGj69g1HkttcXHeNh1Fhs/5PuFAH3I8hG4s11ZcvQqFXax4ZF1pMs+ZNkkn50NrZQi3QMVTiB7/Iur5TTENXQsBcTaw6tkDxr3LR9WG1j0bZh112vz8GMnBGEGlVhEaDCHv2mbBltfLj/yC7H1c6ppb3uPq6kVpq370sAHEq3/JyL9tLMQ5c/zbPaqxhIHumUlRMWfIxah9e+rOKyMTwS7qKgKSvtErUIrZul+fJw6iFAApH03v/noQ==","691f8ca61c6b4dcbb0aeb5f4","691fc22d9a314db2176a42dc","index1","<span style='color:red'>Fail,<span style='color:red'>Fail,<span style='color:green'>Lift,<span style='color:green'>Lift,<span style='color:red'>Fail,<span style='color:red'>Fail,<span style='color:red'>Fail,<span style='color:red'>Fail,<span style='color:red'>Fail,<span style='color:green'>Lift,<span style='color:green'>Lift,<span style='color:red'>Fail","<span style='color:red'>Fail,<span style='color:red'>Fail,<span style='color:green'>Lift,<span style='color:green'>Lift,<span style='color:green'>Lift,<span style='color:green'>Lift,<span style='color:red'>Fail,<span style='color:green'>Lift,<span style='color:green'>Lift,<span style='color:green'>Lift,<span style='color:green'>Lift,<span style='color:red'>Fail","<span style='color:red'>Fail,<span style='color:green'>Lift,<span style='color:green'>Lift,<span style='color:red'>Fail,<span style='color:green'>Lift,<span style='color:green'>Lift","0,0,1,1,0,0,0,0,0,1,1,0","0,0,1,1,1,1,0,1,1,1,1,0","0,1,1,0,1,1",10,20,20,"","","","","{""Q0"":""It consists of multiple contests, each contest with three rounds."",""Q1"":""Contestants are always the same across contests."",""Q2"":""The box weight always stays the same (equivalent to strength of 5)."",""Q3"":""Each will get $20."",""Q4"":""How close my guesses are to the actual outcome.""}","[0,1,2,3,4]",NA,NA,"",NA,NA,NA,NA,NA,NA,NA,NA,NA,NA,NA,NA,NA,NA,NA,NA,NA,NA,NA,NA,NA,NA,NA,NA,NA,NA,NA,NA,NA,NA,NA,NA,NA,NA,NA,NA,NA,NA,NA,"",NA,NA,NA,NA,NA,NA,NA,NA,2025-11-21 01:50:38
"4490.300000071526","https://psyc-201.github.io/xiang2023/exp/index1.html?PROLIFIC_PID=REDACTED&STUDY_ID=691f8ca61c6b4dcbb0aeb5f4&SESSION_ID=691fc22d9a314db2176a42dc","html-button-response",5,206091,"0.0-5.0-1.0","b2sRMBjYfhnM7h8uCAnGQyCGGQwEcvr7omltKmhqikjVCWLXYbroZcLJNvzCKD5jCbrhjXLXb1e3CMpmlRmYFNFWLmxwIEhmGj69g1HkttcXHeNh1Fhs/5PuFAH3I8hG4s11ZcvQqFXax4ZF1pMs+ZNkkn50NrZQi3QMVTiB7/Iur5TTENXQsBcTaw6tkDxr3LR9WG1j0bZh112vz8GMnBGEGlVhEaDCHv2mbBltfLj/yC7H1c6ppb3uPq6kVpq370sAHEq3/JyL9tLMQ5c/zbPaqxhIHumUlRMWfIxah9e+rOKyMTwS7qKgKSvtErUIrZul+fJw6iFAApH03v/noQ==","691f8ca61c6b4dcbb0aeb5f4","691fc22d9a314db2176a42dc","index1","<span style='color:red'>Fail,<span style='color:red'>Fail,<span style='color:green'>Lift,<span style='color:green'>Lift,<span style='color:red'>Fail,<span style='color:red'>Fail,<span style='color:red'>Fail,<span style='color:red'>Fail,<span style='color:red'>Fail,<span style='color:green'>Lift,<span style='color:green'>Lift,<span style='color:red'>Fail","<span style='color:red'>Fail,<span style='color:red'>Fail,<span style='color:green'>Lift,<span style='color:green'>Lift,<span style='color:green'>Lift,<span style='color:green'>Lift,<span style='color:red'>Fail,<span style='color:green'>Lift,<span style='color:green'>Lift,<span style='color:green'>Lift,<span style='color:green'>Lift,<span style='color:red'>Fail","<span style='color:red'>Fail,<span style='color:green'>Lift,<span style='color:green'>Lift,<span style='color:red'>Fail,<span style='color:green'>Lift,<span style='color:green'>Lift","0,0,1,1,0,0,0,0,0,1,1,0","0,0,1,1,1,1,0,1,1,1,1,0","0,1,1,0,1,1",10,20,20,"","","<p> Oops! You did not pass the comprehension check. <b>Please note that you have only 1 attempt(s) left.</b> </p>","","","",1,NA,"",NA,NA,NA,NA,NA,NA,NA,NA,NA,NA,NA,NA,NA,NA,NA,NA,NA,NA,NA,NA,NA,NA,NA,NA,NA,NA,NA,NA,NA,NA,NA,NA,NA,NA,NA,NA,NA,NA,NA,"",NA,NA,NA,NA,NA,NA,NA,NA,2025-11-21 01:50:38
"72068.70000004768","https://psyc-201.github.io/xiang2023/exp/index1.html?PROLIFIC_PID=REDACTED&STUDY_ID=691f8ca61c6b4dcbb0aeb5f4&SESSION_ID=691fc22d9a314db2176a42dc","instructions",6,278160,"0.0-6.0-0.0","b2sRMBjYfhnM7h8uCAnGQyCGGQwEcvr7omltKmhqikjVCWLXYbroZcLJNvzCKD5jCbrhjXLXb1e3CMpmlRmYFNFWLmxwIEhmGj69g1HkttcXHeNh1Fhs/5PuFAH3I8hG4s11ZcvQqFXax4ZF1pMs+ZNkkn50NrZQi3QMVTiB7/Iur5TTENXQsBcTaw6tkDxr3LR9WG1j0bZh112vz8GMnBGEGlVhEaDCHv2mbBltfLj/yC7H1c6ppb3uPq6kVpq370sAHEq3/JyL9tLMQ5c/zbPaqxhIHumUlRMWfIxah9e+rOKyMTwS7qKgKSvtErUIrZul+fJw6iFAApH03v/noQ==","691f8ca61c6b4dcbb0aeb5f4","691fc22d9a314db2176a42dc","index1","<span style='color:red'>Fail,<span style='color:red'>Fail,<span style='color:green'>Lift,<span style='color:green'>Lift,<span style='color:red'>Fail,<span style='color:red'>Fail,<span style='color:red'>Fail,<span style='color:red'>Fail,<span style='color:red'>Fail,<span style='color:green'>Lift,<span style='color:green'>Lift,<span style='color:red'>Fail","<span style='color:red'>Fail,<span style='color:red'>Fail,<span style='color:green'>Lift,<span style='color:green'>Lift,<span style='color:green'>Lift,<span style='color:green'>Lift,<span style='color:red'>Fail,<span style='color:green'>Lift,<span style='color:green'>Lift,<span style='color:green'>Lift,<span style='color:green'>Lift,<span style='color:red'>Fail","<span style='color:red'>Fail,<span style='color:green'>Lift,<span style='color:green'>Lift,<span style='color:red'>Fail,<span style='color:green'>Lift,<span style='color:green'>Lift","0,0,1,1,0,0,0,0,0,1,1,0","0,0,1,1,1,1,0,1,1,1,1,0","0,1,1,0,1,1",10,20,20,"","[{""page_index"":0,""viewing_time"":25064.399999976158},{""page_index"":1,""viewing_time"":14406.100000023842},{""page_index"":2,""viewing_time"":9148.100000023842},{""page_index"":3,""viewing_time"":6061.700000047684},{""page_index"":4,""viewing_time"":2154.1999999284744},{""page_index"":5,""viewing_time"":3304},{""page_index"":4,""viewing_time"":6641.800000071526},{""page_index"":5,""viewing_time"":3226.2999999523163},{""page_index"":6,""viewing_time"":2061.7999999523163}]","","","","",NA,NA,"",NA,NA,NA,NA,NA,NA,NA,NA,NA,NA,NA,NA,NA,NA,NA,NA,NA,NA,NA,NA,NA,NA,NA,NA,NA,NA,NA,NA,NA,NA,NA,NA,NA,NA,NA,NA,NA,NA,NA,"",NA,NA,NA,NA,NA,NA,NA,NA,2025-11-21 01:50:38
"null","https://psyc-201.github.io/xiang2023/exp/index1.html?PROLIFIC_PID=REDACTED&STUDY_ID=691f8ca61c6b4dcbb0aeb5f4&SESSION_ID=691fc22d9a314db2176a42dc","html-keyboard-response",7,279177,"0.0-6.0-1.0","b2sRMBjYfhnM7h8uCAnGQyCGGQwEcvr7omltKmhqikjVCWLXYbroZcLJNvzCKD5jCbrhjXLXb1e3CMpmlRmYFNFWLmxwIEhmGj69g1HkttcXHeNh1Fhs/5PuFAH3I8hG4s11ZcvQqFXax4ZF1pMs+ZNkkn50NrZQi3QMVTiB7/Iur5TTENXQsBcTaw6tkDxr3LR9WG1j0bZh112vz8GMnBGEGlVhEaDCHv2mbBltfLj/yC7H1c6ppb3uPq6kVpq370sAHEq3/JyL9tLMQ5c/zbPaqxhIHumUlRMWfIxah9e+rOKyMTwS7qKgKSvtErUIrZul+fJw6iFAApH03v/noQ==","691f8ca61c6b4dcbb0aeb5f4","691fc22d9a314db2176a42dc","index1","<span style='color:red'>Fail,<span style='color:red'>Fail,<span style='color:green'>Lift,<span style='color:green'>Lift,<span style='color:red'>Fail,<span style='color:red'>Fail,<span style='color:red'>Fail,<span style='color:red'>Fail,<span style='color:red'>Fail,<span style='color:green'>Lift,<span style='color:green'>Lift,<span style='color:red'>Fail","<span style='color:red'>Fail,<span style='color:red'>Fail,<span style='color:green'>Lift,<span style='color:green'>Lift,<span style='color:green'>Lift,<span style='color:green'>Lift,<span style='color:red'>Fail,<span style='color:green'>Lift,<span style='color:green'>Lift,<span style='color:green'>Lift,<span style='color:green'>Lift,<span style='color:red'>Fail","<span style='color:red'>Fail,<span style='color:green'>Lift,<span style='color:green'>Lift,<span style='color:red'>Fail,<span style='color:green'>Lift,<span style='color:green'>Lift","0,0,1,1,0,0,0,0,0,1,1,0","0,0,1,1,1,1,0,1,1,1,1,0","0,1,1,0,1,1",10,20,20,"",""," ","null","","",NA,NA,"",NA,NA,NA,NA,NA,NA,NA,NA,NA,NA,NA,NA,NA,NA,NA,NA,NA,NA,NA,NA,NA,NA,NA,NA,NA,NA,NA,NA,NA,NA,NA,NA,NA,NA,NA,NA,NA,NA,NA,"",NA,NA,NA,NA,NA,NA,NA,NA,2025-11-21 01:50:38
"38176.700000047684","https://psyc-201.github.io/xiang2023/exp/index1.html?PROLIFIC_PID=REDACTED&STUDY_ID=691f8ca61c6b4dcbb0aeb5f4&SESSION_ID=691fc22d9a314db2176a42dc","survey-multi-choice",8,317356,"0.0-7.0-0.0","b2sRMBjYfhnM7h8uCAnGQyCGGQwEcvr7omltKmhqikjVCWLXYbroZcLJNvzCKD5jCbrhjXLXb1e3CMpmlRmYFNFWLmxwIEhmGj69g1HkttcXHeNh1Fhs/5PuFAH3I8hG4s11ZcvQqFXax4ZF1pMs+ZNkkn50NrZQi3QMVTiB7/Iur5TTENXQsBcTaw6tkDxr3LR9WG1j0bZh112vz8GMnBGEGlVhEaDCHv2mbBltfLj/yC7H1c6ppb3uPq6kVpq370sAHEq3/JyL9tLMQ5c/zbPaqxhIHumUlRMWfIxah9e+rOKyMTwS7qKgKSvtErUIrZul+fJw6iFAApH03v/noQ==","691f8ca61c6b4dcbb0aeb5f4","691fc22d9a314db2176a42dc","index1","<span style='color:red'>Fail,<span style='color:red'>Fail,<span style='color:green'>Lift,<span style='color:green'>Lift,<span style='color:red'>Fail,<span style='color:red'>Fail,<span style='color:red'>Fail,<span style='color:red'>Fail,<span style='color:red'>Fail,<span style='color:green'>Lift,<span style='color:green'>Lift,<span style='color:red'>Fail","<span style='color:red'>Fail,<span style='color:red'>Fail,<span style='color:green'>Lift,<span style='color:green'>Lift,<span style='color:green'>Lift,<span style='color:green'>Lift,<span style='color:red'>Fail,<span style='color:green'>Lift,<span style='color:green'>Lift,<span style='color:green'>Lift,<span style='color:green'>Lift,<span style='color:red'>Fail","<span style='color:red'>Fail,<span style='color:green'>Lift,<span style='color:green'>Lift,<span style='color:red'>Fail,<span style='color:green'>Lift,<span style='color:green'>Lift","0,0,1,1,0,0,0,0,0,1,1,0","0,0,1,1,1,1,0,1,1,1,1,0","0,1,1,0,1,1",10,20,20,"","","","","{""Q0"":""It consists of multiple contests, each contest with three rounds."",""Q1"":""When a new contest begins."",""Q2"":""The box weight always stays the same (equivalent to strength of 5)."",""Q3"":""Each will get $20."",""Q4"":""How close my guesses are to the actual outcome.""}","[0,1,2,3,4]",NA,NA,"",NA,NA,NA,NA,NA,NA,NA,NA,NA,NA,NA,NA,NA,NA,NA,NA,NA,NA,NA,NA,NA,NA,NA,NA,NA,NA,NA,NA,NA,NA,NA,NA,NA,NA,NA,NA,NA,NA,NA,"",NA,NA,NA,NA,NA,NA,NA,NA,2025-11-21 01:50:38
"11357.099999904633","https://psyc-201.github.io/xiang2023/exp/index1.html?PROLIFIC_PID=REDACTED&STUDY_ID=691f8ca61c6b4dcbb0aeb5f4&SESSION_ID=691fc22d9a314db2176a42dc","instructions",9,328719,"0.0-305.0","b2sRMBjYfhnM7h8uCAnGQyCGGQwEcvr7omltKmhqikjVCWLXYbroZcLJNvzCKD5jCbrhjXLXb1e3CMpmlRmYFNFWLmxwIEhmGj69g1HkttcXHeNh1Fhs/5PuFAH3I8hG4s11ZcvQqFXax4ZF1pMs+ZNkkn50NrZQi3QMVTiB7/Iur5TTENXQsBcTaw6tkDxr3LR9WG1j0bZh112vz8GMnBGEGlVhEaDCHv2mbBltfLj/yC7H1c6ppb3uPq6kVpq370sAHEq3/JyL9tLMQ5c/zbPaqxhIHumUlRMWfIxah9e+rOKyMTwS7qKgKSvtErUIrZul+fJw6iFAApH03v/noQ==","691f8ca61c6b4dcbb0aeb5f4","691fc22d9a314db2176a42dc","index1","<span style='color:red'>Fail,<span style='color:red'>Fail,<span style='color:green'>Lift,<span style='color:green'>Lift,<span style='color:red'>Fail,<span style='color:red'>Fail,<span style='color:red'>Fail,<span style='color:red'>Fail,<span style='color:red'>Fail,<span style='color:green'>Lift,<span style='color:green'>Lift,<span style='color:red'>Fail","<span style='color:red'>Fail,<span style='color:red'>Fail,<span style='color:green'>Lift,<span style='color:green'>Lift,<span style='color:green'>Lift,<span style='color:green'>Lift,<span style='color:red'>Fail,<span style='color:green'>Lift,<span style='color:green'>Lift,<span style='color:green'>Lift,<span style='color:green'>Lift,<span style='color:red'>Fail","<span style='color:red'>Fail,<span style='color:green'>Lift,<span style='color:green'>Lift,<span style='color:red'>Fail,<span style='color:green'>Lift,<span style='color:green'>Lift","0,0,1,1,0,0,0,0,0,1,1,0","0,0,1,1,1,1,0,1,1,1,1,0","0,1,1,0,1,1",10,20,20,"","[{""page_index"":0,""viewing_time"":6687.899999976158},{""page_index"":1,""viewing_time"":4668.299999952316}]","","","","",NA,NA,"",NA,NA,NA,NA,NA,NA,NA,NA,NA,NA,NA,NA,NA,NA,NA,NA,NA,NA,NA,NA,NA,NA,NA,NA,NA,NA,NA,NA,NA,NA,NA,NA,NA,NA,NA,NA,NA,NA,NA,"",NA,NA,NA,NA,NA,NA,NA,NA,2025-11-21 01:50:38
"null","https://psyc-201.github.io/xiang2023/exp/index1.html?PROLIFIC_PID=REDACTED&STUDY_ID=691f8ca61c6b4dcbb0aeb5f4&SESSION_ID=691fc22d9a314db2176a42dc","html-keyboard-response",10,329736,"0.0-306.0","b2sRMBjYfhnM7h8uCAnGQyCGGQwEcvr7omltKmhqikjVCWLXYbroZcLJNvzCKD5jCbrhjXLXb1e3CMpmlRmYFNFWLmxwIEhmGj69g1HkttcXHeNh1Fhs/5PuFAH3I8hG4s11ZcvQqFXax4ZF1pMs+ZNkkn50NrZQi3QMVTiB7/Iur5TTENXQsBcTaw6tkDxr3LR9WG1j0bZh112vz8GMnBGEGlVhEaDCHv2mbBltfLj/yC7H1c6ppb3uPq6kVpq370sAHEq3/JyL9tLMQ5c/zbPaqxhIHumUlRMWfIxah9e+rOKyMTwS7qKgKSvtErUIrZul+fJw6iFAApH03v/noQ==","691f8ca61c6b4dcbb0aeb5f4","691fc22d9a314db2176a42dc","index1","<span style='color:red'>Fail,<span style='color:red'>Fail,<span style='color:green'>Lift,<span style='color:green'>Lift,<span style='color:red'>Fail,<span style='color:red'>Fail,<span style='color:red'>Fail,<span style='color:red'>Fail,<span style='color:red'>Fail,<span style='color:green'>Lift,<span style='color:green'>Lift,<span style='color:red'>Fail","<span style='color:red'>Fail,<span style='color:red'>Fail,<span style='color:green'>Lift,<span style='color:green'>Lift,<span style='color:green'>Lift,<span style='color:green'>Lift,<span style='color:red'>Fail,<span style='color:green'>Lift,<span style='color:green'>Lift,<span style='color:green'>Lift,<span style='color:green'>Lift,<span style='color:red'>Fail","<span style='color:red'>Fail,<span style='color:green'>Lift,<span style='color:green'>Lift,<span style='color:red'>Fail,<span style='color:green'>Lift,<span style='color:green'>Lift","0,0,1,1,0,0,0,0,0,1,1,0","0,0,1,1,1,1,0,1,1,1,1,0","0,1,1,0,1,1",10,20,20,"",""," ","null","","",NA,1,"",NA,NA,NA,NA,NA,NA,NA,NA,NA,NA,NA,NA,NA,NA,NA,NA,NA,NA,NA,NA,NA,NA,NA,NA,NA,NA,NA,NA,NA,NA,NA,NA,NA,NA,NA,NA,NA,NA,NA,"",NA,NA,NA,NA,NA,NA,NA,NA,2025-11-21 01:50:38
"null","https://psyc-201.github.io/xiang2023/exp/index1.html?PROLIFIC_PID=REDACTED&STUDY_ID=691f8ca61c6b4dcbb0aeb5f4&SESSION_ID=691fc22d9a314db2176a42dc","html-keyboard-response",11,332742,"0.0-307.0","b2sRMBjYfhnM7h8uCAnGQyCGGQwEcvr7omltKmhqikjVCWLXYbroZcLJNvzCKD5jCbrhjXLXb1e3CMpmlRmYFNFWLmxwIEhmGj69g1HkttcXHeNh1Fhs/5PuFAH3I8hG4s11ZcvQqFXax4ZF1pMs+ZNkkn50NrZQi3QMVTiB7/Iur5TTENXQsBcTaw6tkDxr3LR9WG1j0bZh112vz8GMnBGEGlVhEaDCHv2mbBltfLj/yC7H1c6ppb3uPq6kVpq370sAHEq3/JyL9tLMQ5c/zbPaqxhIHumUlRMWfIxah9e+rOKyMTwS7qKgKSvtErUIrZul+fJw6iFAApH03v/noQ==","691f8ca61c6b4dcbb0aeb5f4","691fc22d9a314db2176a42dc","index1","<span style='color:red'>Fail,<span style='color:red'>Fail,<span style='color:green'>Lift,<span style='color:green'>Lift,<span style='color:red'>Fail,<span style='color:red'>Fail,<span style='color:red'>Fail,<span style='color:red'>Fail,<span style='color:red'>Fail,<span style='color:green'>Lift,<span style='color:green'>Lift,<span style='color:red'>Fail","<span style='color:red'>Fail,<span style='color:red'>Fail,<span style='color:green'>Lift,<span style='color:green'>Lift,<span style='color:green'>Lift,<span style='color:green'>Lift,<span style='color:red'>Fail,<span style='color:green'>Lift,<span style='color:green'>Lift,<span style='color:green'>Lift,<span style='color:green'>Lift,<span style='color:red'>Fail","<span style='color:red'>Fail,<span style='color:green'>Lift,<span style='color:green'>Lift,<span style='color:red'>Fail,<span style='color:green'>Lift,<span style='color:green'>Lift","0,0,1,1,0,0,0,0,0,1,1,0","0,0,1,1,1,1,0,1,1,1,1,0","0,1,1,0,1,1",10,20,20,"","","<p style='font-size:30px'><b> New Contest! </b></p>","null","","",NA,1,"",NA,NA,NA,NA,NA,NA,NA,NA,NA,NA,NA,NA,NA,NA,NA,NA,NA,NA,NA,NA,NA,NA,NA,NA,NA,NA,NA,NA,NA,NA,NA,NA,NA,NA,NA,NA,NA,NA,NA,"",NA,NA,NA,NA,NA,NA,NA,NA,2025-11-21 01:50:38
"36556","https://psyc-201.github.io/xiang2023/exp/index1.html?PROLIFIC_PID=REDACTED&STUDY_ID=691f8ca61c6b4dcbb0aeb5f4&SESSION_ID=691fc22d9a314db2176a42dc","survey-html-form",12,369302,"0.0-308.0","b2sRMBjYfhnM7h8uCAnGQyCGGQwEcvr7omltKmhqikjVCWLXYbroZcLJNvzCKD5jCbrhjXLXb1e3CMpmlRmYFNFWLmxwIEhmGj69g1HkttcXHeNh1Fhs/5PuFAH3I8hG4s11ZcvQqFXax4ZF1pMs+ZNkkn50NrZQi3QMVTiB7/Iur5TTENXQsBcTaw6tkDxr3LR9WG1j0bZh112vz8GMnBGEGlVhEaDCHv2mbBltfLj/yC7H1c6ppb3uPq6kVpq370sAHEq3/JyL9tLMQ5c/zbPaqxhIHumUlRMWfIxah9e+rOKyMTwS7qKgKSvtErUIrZul+fJw6iFAApH03v/noQ==","691f8ca61c6b4dcbb0aeb5f4","691fc22d9a314db2176a42dc","index1","<span style='color:red'>Fail,<span style='color:red'>Fail,<span style='color:green'>Lift,<span style='color:green'>Lift,<span style='color:red'>Fail,<span style='color:red'>Fail,<span style='color:red'>Fail,<span style='color:red'>Fail,<span style='color:red'>Fail,<span style='color:green'>Lift,<span style='color:green'>Lift,<span style='color:red'>Fail","<span style='color:red'>Fail,<span style='color:red'>Fail,<span style='color:green'>Lift,<span style='color:green'>Lift,<span style='color:green'>Lift,<span style='color:green'>Lift,<span style='color:red'>Fail,<span style='color:green'>Lift,<span style='color:green'>Lift,<span style='color:green'>Lift,<span style='color:green'>Lift,<span style='color:red'>Fail","<span style='color:red'>Fail,<span style='color:green'>Lift,<span style='color:green'>Lift,<span style='color:red'>Fail,<span style='color:green'>Lift,<span style='color:green'>Lift","0,0,1,1,0,0,0,0,0,1,1,0","0,0,1,1,1,1,0,1,1,1,1,0","0,1,1,0,1,1",10,20,20,"","","","","{""box1"":""6"",""box2"":""7"",""box3"":""8"",""box4"":""9""}","",NA,1,"round1_outcome",1,1,1,6,7,8,9,1,1,10,6,7,8,9,1,1,10,NA,NA,NA,NA,NA,NA,NA,NA,NA,NA,NA,NA,NA,NA,NA,NA,NA,NA,NA,NA,NA,NA,"",NA,NA,NA,NA,NA,NA,NA,NA,2025-11-21 01:50:38
"22324.299999952316","https://psyc-201.github.io/xiang2023/exp/index1.html?PROLIFIC_PID=REDACTED&STUDY_ID=691f8ca61c6b4dcbb0aeb5f4&SESSION_ID=691fc22d9a314db2176a42dc","survey-html-form",13,391629,"0.0-309.0","b2sRMBjYfhnM7h8uCAnGQyCGGQwEcvr7omltKmhqikjVCWLXYbroZcLJNvzCKD5jCbrhjXLXb1e3CMpmlRmYFNFWLmxwIEhmGj69g1HkttcXHeNh1Fhs/5PuFAH3I8hG4s11ZcvQqFXax4ZF1pMs+ZNkkn50NrZQi3QMVTiB7/Iur5TTENXQsBcTaw6tkDxr3LR9WG1j0bZh112vz8GMnBGEGlVhEaDCHv2mbBltfLj/yC7H1c6ppb3uPq6kVpq370sAHEq3/JyL9tLMQ5c/zbPaqxhIHumUlRMWfIxah9e+rOKyMTwS7qKgKSvtErUIrZul+fJw6iFAApH03v/noQ==","691f8ca61c6b4dcbb0aeb5f4","691fc22d9a314db2176a42dc","index1","<span style='color:red'>Fail,<span style='color:red'>Fail,<span style='color:green'>Lift,<span style='color:green'>Lift,<span style='color:red'>Fail,<span style='color:red'>Fail,<span style='color:red'>Fail,<span style='color:red'>Fail,<span style='color:red'>Fail,<span style='color:green'>Lift,<span style='color:green'>Lift,<span style='color:red'>Fail","<span style='color:red'>Fail,<span style='color:red'>Fail,<span style='color:green'>Lift,<span style='color:green'>Lift,<span style='color:green'>Lift,<span style='color:green'>Lift,<span style='color:red'>Fail,<span style='color:green'>Lift,<span style='color:green'>Lift,<span style='color:green'>Lift,<span style='color:green'>Lift,<span style='color:red'>Fail","<span style='color:red'>Fail,<span style='color:green'>Lift,<span style='color:green'>Lift,<span style='color:red'>Fail,<span style='color:green'>Lift,<span style='color:green'>Lift","0,0,1,1,0,0,0,0,0,1,1,0","0,0,1,1,1,1,0,1,1,1,1,0","0,1,1,0,1,1",10,20,20,"","","","","{""box1"":""100"",""box2"":""100""}","",NA,1,"round2_ready",2,1,2,NA,NA,NA,NA,NA,NA,NA,NA,NA,NA,NA,NA,NA,NA,100,100,100,100,NA,NA,NA,NA,NA,NA,NA,NA,NA,NA,NA,NA,NA,NA,NA,NA,NA,NA,"",NA,NA,NA,NA,NA,NA,NA,NA,2025-11-21 01:50:38
"44628.89999997616","https://psyc-201.github.io/xiang2023/exp/index1.html?PROLIFIC_PID=REDACTED&STUDY_ID=691f8ca61c6b4dcbb0aeb5f4&SESSION_ID=691fc22d9a314db2176a42dc","survey-html-form",14,436261,"0.0-310.0","b2sRMBjYfhnM7h8uCAnGQyCGGQwEcvr7omltKmhqikjVCWLXYbroZcLJNvzCKD5jCbrhjXLXb1e3CMpmlRmYFNFWLmxwIEhmGj69g1HkttcXHeNh1Fhs/5PuFAH3I8hG4s11ZcvQqFXax4ZF1pMs+ZNkkn50NrZQi3QMVTiB7/Iur5TTENXQsBcTaw6tkDxr3LR9WG1j0bZh112vz8GMnBGEGlVhEaDCHv2mbBltfLj/yC7H1c6ppb3uPq6kVpq370sAHEq3/JyL9tLMQ5c/zbPaqxhIHumUlRMWfIxah9e+rOKyMTwS7qKgKSvtErUIrZul+fJw6iFAApH03v/noQ==","691f8ca61c6b4dcbb0aeb5f4","691fc22d9a314db2176a42dc","index1","<span style='color:red'>Fail,<span style='color:red'>Fail,<span style='color:green'>Lift,<span style='color:green'>Lift,<span style='color:red'>Fail,<span style='color:red'>Fail,<span style='color:red'>Fail,<span style='color:red'>Fail,<span style='color:red'>Fail,<span style='color:green'>Lift,<span style='color:green'>Lift,<span style='color:red'>Fail","<span style='color:red'>Fail,<span style='color:red'>Fail,<span style='color:green'>Lift,<span style='color:green'>Lift,<span style='color:green'>Lift,<span style='color:green'>Lift,<span style='color:red'>Fail,<span style='color:green'>Lift,<span style='color:green'>Lift,<span style='color:green'>Lift,<span style='color:green'>Lift,<span style='color:red'>Fail","<span style='color:red'>Fail,<span style='color:green'>Lift,<span style='color:green'>Lift,<span style='color:red'>Fail,<span style='color:green'>Lift,<span style='color:green'>Lift","0,0,1,1,0,0,0,0,0,1,1,0","0,0,1,1,1,1,0,1,1,1,1,0","0,1,1,0,1,1",10,20,20,"","","","","{""box1"":""8"",""box2"":""5"",""box3"":""50"",""box4"":""75""}","",NA,1,"round2_outcome",3,1,2,8,5,50,75,1,1,20,NA,NA,NA,NA,NA,NA,NA,NA,NA,NA,NA,8,5,50,75,1,1,20,NA,NA,NA,NA,NA,NA,NA,NA,NA,NA,NA,"",NA,NA,NA,NA,NA,NA,NA,NA,2025-11-21 01:50:38
"6396.899999976158","https://psyc-201.github.io/xiang2023/exp/index1.html?PROLIFIC_PID=REDACTED&STUDY_ID=691f8ca61c6b4dcbb0aeb5f4&SESSION_ID=691fc22d9a314db2176a42dc","survey-html-form",15,442660,"0.0-311.0","b2sRMBjYfhnM7h8uCAnGQyCGGQwEcvr7omltKmhqikjVCWLXYbroZcLJNvzCKD5jCbrhjXLXb1e3CMpmlRmYFNFWLmxwIEhmGj69g1HkttcXHeNh1Fhs/5PuFAH3I8hG4s11ZcvQqFXax4ZF1pMs+ZNkkn50NrZQi3QMVTiB7/Iur5TTENXQsBcTaw6tkDxr3LR9WG1j0bZh112vz8GMnBGEGlVhEaDCHv2mbBltfLj/yC7H1c6ppb3uPq6kVpq370sAHEq3/JyL9tLMQ5c/zbPaqxhIHumUlRMWfIxah9e+rOKyMTwS7qKgKSvtErUIrZul+fJw6iFAApH03v/noQ==","691f8ca61c6b4dcbb0aeb5f4","691fc22d9a314db2176a42dc","index1","<span style='color:red'>Fail,<span style='color:red'>Fail,<span style='color:green'>Lift,<span style='color:green'>Lift,<span style='color:red'>Fail,<span style='color:red'>Fail,<span style='color:red'>Fail,<span style='color:red'>Fail,<span style='color:red'>Fail,<span style='color:green'>Lift,<span style='color:green'>Lift,<span style='color:red'>Fail","<span style='color:red'>Fail,<span style='color:red'>Fail,<span style='color:green'>Lift,<span style='color:green'>Lift,<span style='color:green'>Lift,<span style='color:green'>Lift,<span style='color:red'>Fail,<span style='color:green'>Lift,<span style='color:green'>Lift,<span style='color:green'>Lift,<span style='color:green'>Lift,<span style='color:red'>Fail","<span style='color:red'>Fail,<span style='color:green'>Lift,<span style='color:green'>Lift,<span style='color:red'>Fail,<span style='color:green'>Lift,<span style='color:green'>Lift","0,0,1,1,0,0,0,0,0,1,1,0","0,0,1,1,1,1,0,1,1,1,1,0","0,1,1,0,1,1",10,20,20,"","","","","{""box1"":""100""}","",NA,1,"round3_ready",4,1,3,NA,NA,NA,NA,NA,NA,NA,NA,NA,NA,NA,NA,NA,NA,100,100,NA,NA,NA,NA,NA,NA,NA,NA,NA,100,100,NA,NA,NA,NA,NA,NA,NA,NA,NA,"",NA,NA,NA,NA,NA,NA,NA,NA,2025-11-21 01:50:38
"18056.700000047684","https://psyc-201.github.io/xiang2023/exp/index1.html?PROLIFIC_PID=REDACTED&STUDY_ID=691f8ca61c6b4dcbb0aeb5f4&SESSION_ID=691fc22d9a314db2176a42dc","survey-html-form",16,460719,"0.0-312.0-0.0","b2sRMBjYfhnM7h8uCAnGQyCGGQwEcvr7omltKmhqikjVCWLXYbroZcLJNvzCKD5jCbrhjXLXb1e3CMpmlRmYFNFWLmxwIEhmGj69g1HkttcXHeNh1Fhs/5PuFAH3I8hG4s11ZcvQqFXax4ZF1pMs+ZNkkn50NrZQi3QMVTiB7/Iur5TTENXQsBcTaw6tkDxr3LR9WG1j0bZh112vz8GMnBGEGlVhEaDCHv2mbBltfLj/yC7H1c6ppb3uPq6kVpq370sAHEq3/JyL9tLMQ5c/zbPaqxhIHumUlRMWfIxah9e+rOKyMTwS7qKgKSvtErUIrZul+fJw6iFAApH03v/noQ==","691f8ca61c6b4dcbb0aeb5f4","691fc22d9a314db2176a42dc","index1","<span style='color:red'>Fail,<span style='color:red'>Fail,<span style='color:green'>Lift,<span style='color:green'>Lift,<span style='color:red'>Fail,<span style='color:red'>Fail,<span style='color:red'>Fail,<span style='color:red'>Fail,<span style='color:red'>Fail,<span style='color:green'>Lift,<span style='color:green'>Lift,<span style='color:red'>Fail","<span style='color:red'>Fail,<span style='color:red'>Fail,<span style='color:green'>Lift,<span style='color:green'>Lift,<span style='color:green'>Lift,<span style='color:green'>Lift,<span style='color:red'>Fail,<span style='color:green'>Lift,<span style='color:green'>Lift,<span style='color:green'>Lift,<span style='color:green'>Lift,<span style='color:red'>Fail","<span style='color:red'>Fail,<span style='color:green'>Lift,<span style='color:green'>Lift,<span style='color:red'>Fail,<span style='color:green'>Lift,<span style='color:green'>Lift","0,0,1,1,0,0,0,0,0,1,1,0","0,0,1,1,1,1,0,1,1,1,1,0","0,1,1,0,1,1",10,20,20,"","","","","{""box1"":""6"",""box2"":""5"",""box3"":""75"",""box4"":""75""}","",NA,2,"round3_lift",5,1,3,6,5,75,75,1,1,20,NA,NA,NA,NA,NA,NA,NA,NA,NA,NA,NA,NA,NA,NA,NA,NA,NA,NA,NA,NA,6,5,75,75,1,1,20,NA,NA,"",NA,NA,NA,NA,NA,NA,NA,NA,2025-11-21 01:50:38
"null","https://psyc-201.github.io/xiang2023/exp/index1.html?PROLIFIC_PID=REDACTED&STUDY_ID=691f8ca61c6b4dcbb0aeb5f4&SESSION_ID=691fc22d9a314db2176a42dc","html-keyboard-response",17,463734,"0.0-316.0","b2sRMBjYfhnM7h8uCAnGQyCGGQwEcvr7omltKmhqikjVCWLXYbroZcLJNvzCKD5jCbrhjXLXb1e3CMpmlRmYFNFWLmxwIEhmGj69g1HkttcXHeNh1Fhs/5PuFAH3I8hG4s11ZcvQqFXax4ZF1pMs+ZNkkn50NrZQi3QMVTiB7/Iur5TTENXQsBcTaw6tkDxr3LR9WG1j0bZh112vz8GMnBGEGlVhEaDCHv2mbBltfLj/yC7H1c6ppb3uPq6kVpq370sAHEq3/JyL9tLMQ5c/zbPaqxhIHumUlRMWfIxah9e+rOKyMTwS7qKgKSvtErUIrZul+fJw6iFAApH03v/noQ==","691f8ca61c6b4dcbb0aeb5f4","691fc22d9a314db2176a42dc","index1","<span style='color:red'>Fail,<span style='color:red'>Fail,<span style='color:green'>Lift,<span style='color:green'>Lift,<span style='color:red'>Fail,<span style='color:red'>Fail,<span style='color:red'>Fail,<span style='color:red'>Fail,<span style='color:red'>Fail,<span style='color:green'>Lift,<span style='color:green'>Lift,<span style='color:red'>Fail","<span style='color:red'>Fail,<span style='color:red'>Fail,<span style='color:green'>Lift,<span style='color:green'>Lift,<span style='color:green'>Lift,<span style='color:green'>Lift,<span style='color:red'>Fail,<span style='color:green'>Lift,<span style='color:green'>Lift,<span style='color:green'>Lift,<span style='color:green'>Lift,<span style='color:red'>Fail","<span style='color:red'>Fail,<span style='color:green'>Lift,<span style='color:green'>Lift,<span style='color:red'>Fail,<span style='color:green'>Lift,<span style='color:green'>Lift","0,0,1,1,0,0,0,0,0,1,1,0","0,0,1,1,1,1,0,1,1,1,1,0","0,1,1,0,1,1",10,20,20,"","","<p style='font-size:30px'><b> New Contest! </b></p>","null","","",NA,2,"",NA,NA,NA,NA,NA,NA,NA,NA,NA,NA,NA,NA,NA,NA,NA,NA,NA,NA,NA,NA,NA,NA,NA,NA,NA,NA,NA,NA,NA,NA,NA,NA,NA,NA,NA,NA,NA,NA,NA,"",NA,NA,NA,NA,NA,NA,NA,NA,2025-11-21 01:50:38
"24835.299999952316","https://psyc-201.github.io/xiang2023/exp/index1.html?PROLIFIC_PID=REDACTED&STUDY_ID=691f8ca61c6b4dcbb0aeb5f4&SESSION_ID=691fc22d9a314db2176a42dc","survey-html-form",18,488572,"0.0-317.0","b2sRMBjYfhnM7h8uCAnGQyCGGQwEcvr7omltKmhqikjVCWLXYbroZcLJNvzCKD5jCbrhjXLXb1e3CMpmlRmYFNFWLmxwIEhmGj69g1HkttcXHeNh1Fhs/5PuFAH3I8hG4s11ZcvQqFXax4ZF1pMs+ZNkkn50NrZQi3QMVTiB7/Iur5TTENXQsBcTaw6tkDxr3LR9WG1j0bZh112vz8GMnBGEGlVhEaDCHv2mbBltfLj/yC7H1c6ppb3uPq6kVpq370sAHEq3/JyL9tLMQ5c/zbPaqxhIHumUlRMWfIxah9e+rOKyMTwS7qKgKSvtErUIrZul+fJw6iFAApH03v/noQ==","691f8ca61c6b4dcbb0aeb5f4","691fc22d9a314db2176a42dc","index1","<span style='color:red'>Fail,<span style='color:red'>Fail,<span style='color:green'>Lift,<span style='color:green'>Lift,<span style='color:red'>Fail,<span style='color:red'>Fail,<span style='color:red'>Fail,<span style='color:red'>Fail,<span style='color:red'>Fail,<span style='color:green'>Lift,<span style='color:green'>Lift,<span style='color:red'>Fail","<span style='color:red'>Fail,<span style='color:red'>Fail,<span style='color:green'>Lift,<span style='color:green'>Lift,<span style='color:green'>Lift,<span style='color:green'>Lift,<span style='color:red'>Fail,<span style='color:green'>Lift,<span style='color:green'>Lift,<span style='color:green'>Lift,<span style='color:green'>Lift,<span style='color:red'>Fail","<span style='color:red'>Fail,<span style='color:green'>Lift,<span style='color:green'>Lift,<span style='color:red'>Fail,<span style='color:green'>Lift,<span style='color:green'>Lift","0,0,1,1,0,0,0,0,0,1,1,0","0,0,1,1,1,1,0,1,1,1,1,0","0,1,1,0,1,1",10,20,20,"","","","","{""box1"":""8"",""box2"":""2"",""box3"":""75""}","",NA,2,"round1_outcome",1,2,1,8,2,75,NA,1,0,10,8,2,75,NA,1,0,10,NA,NA,NA,NA,NA,NA,NA,NA,NA,NA,NA,NA,NA,NA,NA,NA,NA,NA,NA,NA,NA,NA,"",NA,NA,NA,NA,NA,NA,NA,NA,2025-11-21 01:50:38
"11815.600000023842","https://psyc-201.github.io/xiang2023/exp/index1.html?PROLIFIC_PID=REDACTED&STUDY_ID=691f8ca61c6b4dcbb0aeb5f4&SESSION_ID=691fc22d9a314db2176a42dc","survey-html-form",19,500390,"0.0-318.0","b2sRMBjYfhnM7h8uCAnGQyCGGQwEcvr7omltKmhqikjVCWLXYbroZcLJNvzCKD5jCbrhjXLXb1e3CMpmlRmYFNFWLmxwIEhmGj69g1HkttcXHeNh1Fhs/5PuFAH3I8hG4s11ZcvQqFXax4ZF1pMs+ZNkkn50NrZQi3QMVTiB7/Iur5TTENXQsBcTaw6tkDxr3LR9WG1j0bZh112vz8GMnBGEGlVhEaDCHv2mbBltfLj/yC7H1c6ppb3uPq6kVpq370sAHEq3/JyL9tLMQ5c/zbPaqxhIHumUlRMWfIxah9e+rOKyMTwS7qKgKSvtErUIrZul+fJw6iFAApH03v/noQ==","691f8ca61c6b4dcbb0aeb5f4","691fc22d9a314db2176a42dc","index1","<span style='color:red'>Fail,<span style='color:red'>Fail,<span style='color:green'>Lift,<span style='color:green'>Lift,<span style='color:red'>Fail,<span style='color:red'>Fail,<span style='color:red'>Fail,<span style='color:red'>Fail,<span style='color:red'>Fail,<span style='color:green'>Lift,<span style='color:green'>Lift,<span style='color:red'>Fail","<span style='color:red'>Fail,<span style='color:red'>Fail,<span style='color:green'>Lift,<span style='color:green'>Lift,<span style='color:green'>Lift,<span style='color:green'>Lift,<span style='color:red'>Fail,<span style='color:green'>Lift,<span style='color:green'>Lift,<span style='color:green'>Lift,<span style='color:green'>Lift,<span style='color:red'>Fail","<span style='color:red'>Fail,<span style='color:green'>Lift,<span style='color:green'>Lift,<span style='color:red'>Fail,<span style='color:green'>Lift,<span style='color:green'>Lift","0,0,1,1,0,0,0,0,0,1,1,0","0,0,1,1,1,1,0,1,1,1,1,0","0,1,1,0,1,1",10,20,20,"","","","","{""box1"":""100"",""box2"":""75""}","",NA,2,"round2_ready",2,2,2,NA,NA,NA,NA,NA,NA,NA,NA,NA,NA,NA,NA,NA,NA,100,75,100,75,NA,NA,NA,NA,NA,NA,NA,NA,NA,NA,NA,NA,NA,NA,NA,NA,NA,NA,"",NA,NA,NA,NA,NA,NA,NA,NA,2025-11-21 01:50:38
"13483.700000047684","https://psyc-201.github.io/xiang2023/exp/index1.html?PROLIFIC_PID=REDACTED&STUDY_ID=691f8ca61c6b4dcbb0aeb5f4&SESSION_ID=691fc22d9a314db2176a42dc","survey-html-form",20,513876,"0.0-319.0","b2sRMBjYfhnM7h8uCAnGQyCGGQwEcvr7omltKmhqikjVCWLXYbroZcLJNvzCKD5jCbrhjXLXb1e3CMpmlRmYFNFWLmxwIEhmGj69g1HkttcXHeNh1Fhs/5PuFAH3I8hG4s11ZcvQqFXax4ZF1pMs+ZNkkn50NrZQi3QMVTiB7/Iur5TTENXQsBcTaw6tkDxr3LR9WG1j0bZh112vz8GMnBGEGlVhEaDCHv2mbBltfLj/yC7H1c6ppb3uPq6kVpq370sAHEq3/JyL9tLMQ5c/zbPaqxhIHumUlRMWfIxah9e+rOKyMTwS7qKgKSvtErUIrZul+fJw6iFAApH03v/noQ==","691f8ca61c6b4dcbb0aeb5f4","691fc22d9a314db2176a42dc","index1","<span style='color:red'>Fail,<span style='color:red'>Fail,<span style='color:green'>Lift,<span style='color:green'>Lift,<span style='color:red'>Fail,<span style='color:red'>Fail,<span style='color:red'>Fail,<span style='color:red'>Fail,<span style='color:red'>Fail,<span style='color:green'>Lift,<span style='color:green'>Lift,<span style='color:red'>Fail","<span style='color:red'>Fail,<span style='color:red'>Fail,<span style='color:green'>Lift,<span style='color:green'>Lift,<span style='color:green'>Lift,<span style='color:green'>Lift,<span style='color:red'>Fail,<span style='color:green'>Lift,<span style='color:green'>Lift,<span style='color:green'>Lift,<span style='color:green'>Lift,<span style='color:red'>Fail","<span style='color:red'>Fail,<span style='color:green'>Lift,<span style='color:green'>Lift,<span style='color:red'>Fail,<span style='color:green'>Lift,<span style='color:green'>Lift","0,0,1,1,0,0,0,0,0,1,1,0","0,0,1,1,1,1,0,1,1,1,1,0","0,1,1,0,1,1",10,20,20,"","","","","{""box1"":""10"",""box2"":""2"",""box3"":""80""}","",NA,2,"round2_outcome",3,2,2,10,2,80,NA,1,0,20,NA,NA,NA,NA,NA,NA,NA,NA,NA,NA,NA,10,2,80,NA,1,0,20,NA,NA,NA,NA,NA,NA,NA,NA,NA,NA,NA,"",NA,NA,NA,NA,NA,NA,NA,NA,2025-11-21 01:50:38
"8527.300000071526","https://psyc-201.github.io/xiang2023/exp/index1.html?PROLIFIC_PID=REDACTED&STUDY_ID=691f8ca61c6b4dcbb0aeb5f4&SESSION_ID=691fc22d9a314db2176a42dc","survey-html-form",21,522406,"0.0-320.0","b2sRMBjYfhnM7h8uCAnGQyCGGQwEcvr7omltKmhqikjVCWLXYbroZcLJNvzCKD5jCbrhjXLXb1e3CMpmlRmYFNFWLmxwIEhmGj69g1HkttcXHeNh1Fhs/5PuFAH3I8hG4s11ZcvQqFXax4ZF1pMs+ZNkkn50NrZQi3QMVTiB7/Iur5TTENXQsBcTaw6tkDxr3LR9WG1j0bZh112vz8GMnBGEGlVhEaDCHv2mbBltfLj/yC7H1c6ppb3uPq6kVpq370sAHEq3/JyL9tLMQ5c/zbPaqxhIHumUlRMWfIxah9e+rOKyMTwS7qKgKSvtErUIrZul+fJw6iFAApH03v/noQ==","691f8ca61c6b4dcbb0aeb5f4","691fc22d9a314db2176a42dc","index1","<span style='color:red'>Fail,<span style='color:red'>Fail,<span style='color:green'>Lift,<span style='color:green'>Lift,<span style='color:red'>Fail,<span style='color:red'>Fail,<span style='color:red'>Fail,<span style='color:red'>Fail,<span style='color:red'>Fail,<span style='color:green'>Lift,<span style='color:green'>Lift,<span style='color:red'>Fail","<span style='color:red'>Fail,<span style='color:red'>Fail,<span style='color:green'>Lift,<span style='color:green'>Lift,<span style='color:green'>Lift,<span style='color:green'>Lift,<span style='color:red'>Fail,<span style='color:green'>Lift,<span style='color:green'>Lift,<span style='color:green'>Lift,<span style='color:green'>Lift,<span style='color:red'>Fail","<span style='color:red'>Fail,<span style='color:green'>Lift,<span style='color:green'>Lift,<span style='color:red'>Fail,<span style='color:green'>Lift,<span style='color:green'>Lift","0,0,1,1,0,0,0,0,0,1,1,0","0,0,1,1,1,1,0,1,1,1,1,0","0,1,1,0,1,1",10,20,20,"","","","","{""box1"":""75""}","",NA,2,"round3_ready",4,2,3,NA,NA,NA,NA,NA,NA,NA,NA,NA,NA,NA,NA,NA,NA,75,75,NA,NA,NA,NA,NA,NA,NA,NA,NA,75,75,NA,NA,NA,NA,NA,NA,NA,NA,NA,"",NA,NA,NA,NA,NA,NA,NA,NA,2025-11-21 01:50:38
"21888","https://psyc-201.github.io/xiang2023/exp/index1.html?PROLIFIC_PID=REDACTED&STUDY_ID=691f8ca61c6b4dcbb0aeb5f4&SESSION_ID=691fc22d9a314db2176a42dc","survey-html-form",22,544296,"0.0-321.0-0.0","b2sRMBjYfhnM7h8uCAnGQyCGGQwEcvr7omltKmhqikjVCWLXYbroZcLJNvzCKD5jCbrhjXLXb1e3CMpmlRmYFNFWLmxwIEhmGj69g1HkttcXHeNh1Fhs/5PuFAH3I8hG4s11ZcvQqFXax4ZF1pMs+ZNkkn50NrZQi3QMVTiB7/Iur5TTENXQsBcTaw6tkDxr3LR9WG1j0bZh112vz8GMnBGEGlVhEaDCHv2mbBltfLj/yC7H1c6ppb3uPq6kVpq370sAHEq3/JyL9tLMQ5c/zbPaqxhIHumUlRMWfIxah9e+rOKyMTwS7qKgKSvtErUIrZul+fJw6iFAApH03v/noQ==","691f8ca61c6b4dcbb0aeb5f4","691fc22d9a314db2176a42dc","index1","<span style='color:red'>Fail,<span style='color:red'>Fail,<span style='color:green'>Lift,<span style='color:green'>Lift,<span style='color:red'>Fail,<span style='color:red'>Fail,<span style='color:red'>Fail,<span style='color:red'>Fail,<span style='color:red'>Fail,<span style='color:green'>Lift,<span style='color:green'>Lift,<span style='color:red'>Fail","<span style='color:red'>Fail,<span style='color:red'>Fail,<span style='color:green'>Lift,<span style='color:green'>Lift,<span style='color:green'>Lift,<span style='color:green'>Lift,<span style='color:red'>Fail,<span style='color:green'>Lift,<span style='color:green'>Lift,<span style='color:green'>Lift,<span style='color:green'>Lift,<span style='color:red'>Fail","<span style='color:red'>Fail,<span style='color:green'>Lift,<span style='color:green'>Lift,<span style='color:red'>Fail,<span style='color:green'>Lift,<span style='color:green'>Lift","0,0,1,1,0,0,0,0,0,1,1,0","0,0,1,1,1,1,0,1,1,1,1,0","0,1,1,0,1,1",10,20,20,"","","","","{""box1"":""10"",""box2"":""2"",""box3"":""100"",""box4"":""25""}","",NA,3,"round3_lift",5,2,3,10,2,100,25,1,1,20,NA,NA,NA,NA,NA,NA,NA,NA,NA,NA,NA,NA,NA,NA,NA,NA,NA,NA,NA,NA,10,2,100,25,1,1,20,NA,NA,"",NA,NA,NA,NA,NA,NA,NA,NA,2025-11-21 01:50:38
"null","https://psyc-201.github.io/xiang2023/exp/index1.html?PROLIFIC_PID=REDACTED&STUDY_ID=691f8ca61c6b4dcbb0aeb5f4&SESSION_ID=691fc22d9a314db2176a42dc","html-keyboard-response",23,547300,"0.0-325.0","b2sRMBjYfhnM7h8uCAnGQyCGGQwEcvr7omltKmhqikjVCWLXYbroZcLJNvzCKD5jCbrhjXLXb1e3CMpmlRmYFNFWLmxwIEhmGj69g1HkttcXHeNh1Fhs/5PuFAH3I8hG4s11ZcvQqFXax4ZF1pMs+ZNkkn50NrZQi3QMVTiB7/Iur5TTENXQsBcTaw6tkDxr3LR9WG1j0bZh112vz8GMnBGEGlVhEaDCHv2mbBltfLj/yC7H1c6ppb3uPq6kVpq370sAHEq3/JyL9tLMQ5c/zbPaqxhIHumUlRMWfIxah9e+rOKyMTwS7qKgKSvtErUIrZul+fJw6iFAApH03v/noQ==","691f8ca61c6b4dcbb0aeb5f4","691fc22d9a314db2176a42dc","index1","<span style='color:red'>Fail,<span style='color:red'>Fail,<span style='color:green'>Lift,<span style='color:green'>Lift,<span style='color:red'>Fail,<span style='color:red'>Fail,<span style='color:red'>Fail,<span style='color:red'>Fail,<span style='color:red'>Fail,<span style='color:green'>Lift,<span style='color:green'>Lift,<span style='color:red'>Fail","<span style='color:red'>Fail,<span style='color:red'>Fail,<span style='color:green'>Lift,<span style='color:green'>Lift,<span style='color:green'>Lift,<span style='color:green'>Lift,<span style='color:red'>Fail,<span style='color:green'>Lift,<span style='color:green'>Lift,<span style='color:green'>Lift,<span style='color:green'>Lift,<span style='color:red'>Fail","<span style='color:red'>Fail,<span style='color:green'>Lift,<span style='color:green'>Lift,<span style='color:red'>Fail,<span style='color:green'>Lift,<span style='color:green'>Lift","0,0,1,1,0,0,0,0,0,1,1,0","0,0,1,1,1,1,0,1,1,1,1,0","0,1,1,0,1,1",10,20,20,"","","<p style='font-size:30px'><b> New Contest! </b></p>","null","","",NA,3,"",NA,NA,NA,NA,NA,NA,NA,NA,NA,NA,NA,NA,NA,NA,NA,NA,NA,NA,NA,NA,NA,NA,NA,NA,NA,NA,NA,NA,NA,NA,NA,NA,NA,NA,NA,NA,NA,NA,NA,"",NA,NA,NA,NA,NA,NA,NA,NA,2025-11-21 01:50:38
"16593.5","https://psyc-201.github.io/xiang2023/exp/index1.html?PROLIFIC_PID=REDACTED&STUDY_ID=691f8ca61c6b4dcbb0aeb5f4&SESSION_ID=691fc22d9a314db2176a42dc","survey-html-form",24,563896,"0.0-326.0","b2sRMBjYfhnM7h8uCAnGQyCGGQwEcvr7omltKmhqikjVCWLXYbroZcLJNvzCKD5jCbrhjXLXb1e3CMpmlRmYFNFWLmxwIEhmGj69g1HkttcXHeNh1Fhs/5PuFAH3I8hG4s11ZcvQqFXax4ZF1pMs+ZNkkn50NrZQi3QMVTiB7/Iur5TTENXQsBcTaw6tkDxr3LR9WG1j0bZh112vz8GMnBGEGlVhEaDCHv2mbBltfLj/yC7H1c6ppb3uPq6kVpq370sAHEq3/JyL9tLMQ5c/zbPaqxhIHumUlRMWfIxah9e+rOKyMTwS7qKgKSvtErUIrZul+fJw6iFAApH03v/noQ==","691f8ca61c6b4dcbb0aeb5f4","691fc22d9a314db2176a42dc","index1","<span style='color:red'>Fail,<span style='color:red'>Fail,<span style='color:green'>Lift,<span style='color:green'>Lift,<span style='color:red'>Fail,<span style='color:red'>Fail,<span style='color:red'>Fail,<span style='color:red'>Fail,<span style='color:red'>Fail,<span style='color:green'>Lift,<span style='color:green'>Lift,<span style='color:red'>Fail","<span style='color:red'>Fail,<span style='color:red'>Fail,<span style='color:green'>Lift,<span style='color:green'>Lift,<span style='color:green'>Lift,<span style='color:green'>Lift,<span style='color:red'>Fail,<span style='color:green'>Lift,<span style='color:green'>Lift,<span style='color:green'>Lift,<span style='color:green'>Lift,<span style='color:red'>Fail","<span style='color:red'>Fail,<span style='color:green'>Lift,<span style='color:green'>Lift,<span style='color:red'>Fail,<span style='color:green'>Lift,<span style='color:green'>Lift","0,0,1,1,0,0,0,0,0,1,1,0","0,0,1,1,1,1,0,1,1,1,1,0","0,1,1,0,1,1",10,20,20,"","","","","{""box1"":""3"",""box2"":""2""}","",NA,3,"round1_outcome",1,3,1,3,2,NA,NA,0,0,10,3,2,NA,NA,0,0,10,NA,NA,NA,NA,NA,NA,NA,NA,NA,NA,NA,NA,NA,NA,NA,NA,NA,NA,NA,NA,NA,NA,"",NA,NA,NA,NA,NA,NA,NA,NA,2025-11-21 01:50:38
"9059.600000023842","https://psyc-201.github.io/xiang2023/exp/index1.html?PROLIFIC_PID=REDACTED&STUDY_ID=691f8ca61c6b4dcbb0aeb5f4&SESSION_ID=691fc22d9a314db2176a42dc","survey-html-form",25,572958,"0.0-327.0","b2sRMBjYfhnM7h8uCAnGQyCGGQwEcvr7omltKmhqikjVCWLXYbroZcLJNvzCKD5jCbrhjXLXb1e3CMpmlRmYFNFWLmxwIEhmGj69g1HkttcXHeNh1Fhs/5PuFAH3I8hG4s11ZcvQqFXax4ZF1pMs+ZNkkn50NrZQi3QMVTiB7/Iur5TTENXQsBcTaw6tkDxr3LR9WG1j0bZh112vz8GMnBGEGlVhEaDCHv2mbBltfLj/yC7H1c6ppb3uPq6kVpq370sAHEq3/JyL9tLMQ5c/zbPaqxhIHumUlRMWfIxah9e+rOKyMTwS7qKgKSvtErUIrZul+fJw6iFAApH03v/noQ==","691f8ca61c6b4dcbb0aeb5f4","691fc22d9a314db2176a42dc","index1","<span style='color:red'>Fail,<span style='color:red'>Fail,<span style='color:green'>Lift,<span style='color:green'>Lift,<span style='color:red'>Fail,<span style='color:red'>Fail,<span style='color:red'>Fail,<span style='color:red'>Fail,<span style='color:red'>Fail,<span style='color:green'>Lift,<span style='color:green'>Lift,<span style='color:red'>Fail","<span style='color:red'>Fail,<span style='color:red'>Fail,<span style='color:green'>Lift,<span style='color:green'>Lift,<span style='color:green'>Lift,<span style='color:green'>Lift,<span style='color:red'>Fail,<span style='color:green'>Lift,<span style='color:green'>Lift,<span style='color:green'>Lift,<span style='color:green'>Lift,<span style='color:red'>Fail","<span style='color:red'>Fail,<span style='color:green'>Lift,<span style='color:green'>Lift,<span style='color:red'>Fail,<span style='color:green'>Lift,<span style='color:green'>Lift","0,0,1,1,0,0,0,0,0,1,1,0","0,0,1,1,1,1,0,1,1,1,1,0","0,1,1,0,1,1",10,20,20,"","","","","{""box1"":""50"",""box2"":""75""}","",NA,3,"round2_ready",2,3,2,NA,NA,NA,NA,NA,NA,NA,NA,NA,NA,NA,NA,NA,NA,50,75,50,75,NA,NA,NA,NA,NA,NA,NA,NA,NA,NA,NA,NA,NA,NA,NA,NA,NA,NA,"",NA,NA,NA,NA,NA,NA,NA,NA,2025-11-21 01:50:38
"5579.600000023842","https://psyc-201.github.io/xiang2023/exp/index1.html?PROLIFIC_PID=REDACTED&STUDY_ID=691f8ca61c6b4dcbb0aeb5f4&SESSION_ID=691fc22d9a314db2176a42dc","survey-html-form",26,578540,"0.0-328.0","b2sRMBjYfhnM7h8uCAnGQyCGGQwEcvr7omltKmhqikjVCWLXYbroZcLJNvzCKD5jCbrhjXLXb1e3CMpmlRmYFNFWLmxwIEhmGj69g1HkttcXHeNh1Fhs/5PuFAH3I8hG4s11ZcvQqFXax4ZF1pMs+ZNkkn50NrZQi3QMVTiB7/Iur5TTENXQsBcTaw6tkDxr3LR9WG1j0bZh112vz8GMnBGEGlVhEaDCHv2mbBltfLj/yC7H1c6ppb3uPq6kVpq370sAHEq3/JyL9tLMQ5c/zbPaqxhIHumUlRMWfIxah9e+rOKyMTwS7qKgKSvtErUIrZul+fJw6iFAApH03v/noQ==","691f8ca61c6b4dcbb0aeb5f4","691fc22d9a314db2176a42dc","index1","<span style='color:red'>Fail,<span style='color:red'>Fail,<span style='color:green'>Lift,<span style='color:green'>Lift,<span style='color:red'>Fail,<span style='color:red'>Fail,<span style='color:red'>Fail,<span style='color:red'>Fail,<span style='color:red'>Fail,<span style='color:green'>Lift,<span style='color:green'>Lift,<span style='color:red'>Fail","<span style='color:red'>Fail,<span style='color:red'>Fail,<span style='color:green'>Lift,<span style='color:green'>Lift,<span style='color:green'>Lift,<span style='color:green'>Lift,<span style='color:red'>Fail,<span style='color:green'>Lift,<span style='color:green'>Lift,<span style='color:green'>Lift,<span style='color:green'>Lift,<span style='color:red'>Fail","<span style='color:red'>Fail,<span style='color:green'>Lift,<span style='color:green'>Lift,<span style='color:red'>Fail,<span style='color:green'>Lift,<span style='color:green'>Lift","0,0,1,1,0,0,0,0,0,1,1,0","0,0,1,1,1,1,0,1,1,1,1,0","0,1,1,0,1,1",10,20,20,"","","","","{""box1"":""1"",""box2"":""1""}","",NA,3,"round2_outcome",3,3,2,1,1,NA,NA,0,0,20,NA,NA,NA,NA,NA,NA,NA,NA,NA,NA,NA,1,1,NA,NA,0,0,20,NA,NA,NA,NA,NA,NA,NA,NA,NA,NA,NA,"",NA,NA,NA,NA,NA,NA,NA,NA,2025-11-21 01:50:38
"5463.799999952316","https://psyc-201.github.io/xiang2023/exp/index1.html?PROLIFIC_PID=REDACTED&STUDY_ID=691f8ca61c6b4dcbb0aeb5f4&SESSION_ID=691fc22d9a314db2176a42dc","survey-html-form",27,584006,"0.0-329.0","b2sRMBjYfhnM7h8uCAnGQyCGGQwEcvr7omltKmhqikjVCWLXYbroZcLJNvzCKD5jCbrhjXLXb1e3CMpmlRmYFNFWLmxwIEhmGj69g1HkttcXHeNh1Fhs/5PuFAH3I8hG4s11ZcvQqFXax4ZF1pMs+ZNkkn50NrZQi3QMVTiB7/Iur5TTENXQsBcTaw6tkDxr3LR9WG1j0bZh112vz8GMnBGEGlVhEaDCHv2mbBltfLj/yC7H1c6ppb3uPq6kVpq370sAHEq3/JyL9tLMQ5c/zbPaqxhIHumUlRMWfIxah9e+rOKyMTwS7qKgKSvtErUIrZul+fJw6iFAApH03v/noQ==","691f8ca61c6b4dcbb0aeb5f4","691fc22d9a314db2176a42dc","index1","<span style='color:red'>Fail,<span style='color:red'>Fail,<span style='color:green'>Lift,<span style='color:green'>Lift,<span style='color:red'>Fail,<span style='color:red'>Fail,<span style='color:red'>Fail,<span style='color:red'>Fail,<span style='color:red'>Fail,<span style='color:green'>Lift,<span style='color:green'>Lift,<span style='color:red'>Fail","<span style='color:red'>Fail,<span style='color:red'>Fail,<span style='color:green'>Lift,<span style='color:green'>Lift,<span style='color:green'>Lift,<span style='color:green'>Lift,<span style='color:red'>Fail,<span style='color:green'>Lift,<span style='color:green'>Lift,<span style='color:green'>Lift,<span style='color:green'>Lift,<span style='color:red'>Fail","<span style='color:red'>Fail,<span style='color:green'>Lift,<span style='color:green'>Lift,<span style='color:red'>Fail,<span style='color:green'>Lift,<span style='color:green'>Lift","0,0,1,1,0,0,0,0,0,1,1,0","0,0,1,1,1,1,0,1,1,1,1,0","0,1,1,0,1,1",10,20,20,"","","","","{""box1"":""75""}","",NA,3,"round3_ready",4,3,3,NA,NA,NA,NA,NA,NA,NA,NA,NA,NA,NA,NA,NA,NA,75,75,NA,NA,NA,NA,NA,NA,NA,NA,NA,75,75,NA,NA,NA,NA,NA,NA,NA,NA,NA,"",NA,NA,NA,NA,NA,NA,NA,NA,2025-11-21 01:50:38
"12983","https://psyc-201.github.io/xiang2023/exp/index1.html?PROLIFIC_PID=REDACTED&STUDY_ID=691f8ca61c6b4dcbb0aeb5f4&SESSION_ID=691fc22d9a314db2176a42dc","survey-html-form",28,596992,"0.0-331.0-0.0","b2sRMBjYfhnM7h8uCAnGQyCGGQwEcvr7omltKmhqikjVCWLXYbroZcLJNvzCKD5jCbrhjXLXb1e3CMpmlRmYFNFWLmxwIEhmGj69g1HkttcXHeNh1Fhs/5PuFAH3I8hG4s11ZcvQqFXax4ZF1pMs+ZNkkn50NrZQi3QMVTiB7/Iur5TTENXQsBcTaw6tkDxr3LR9WG1j0bZh112vz8GMnBGEGlVhEaDCHv2mbBltfLj/yC7H1c6ppb3uPq6kVpq370sAHEq3/JyL9tLMQ5c/zbPaqxhIHumUlRMWfIxah9e+rOKyMTwS7qKgKSvtErUIrZul+fJw6iFAApH03v/noQ==","691f8ca61c6b4dcbb0aeb5f4","691fc22d9a314db2176a42dc","index1","<span style='color:red'>Fail,<span style='color:red'>Fail,<span style='color:green'>Lift,<span style='color:green'>Lift,<span style='color:red'>Fail,<span style='color:red'>Fail,<span style='color:red'>Fail,<span style='color:red'>Fail,<span style='color:red'>Fail,<span style='color:green'>Lift,<span style='color:green'>Lift,<span style='color:red'>Fail","<span style='color:red'>Fail,<span style='color:red'>Fail,<span style='color:green'>Lift,<span style='color:green'>Lift,<span style='color:green'>Lift,<span style='color:green'>Lift,<span style='color:red'>Fail,<span style='color:green'>Lift,<span style='color:green'>Lift,<span style='color:green'>Lift,<span style='color:green'>Lift,<span style='color:red'>Fail","<span style='color:red'>Fail,<span style='color:green'>Lift,<span style='color:green'>Lift,<span style='color:red'>Fail,<span style='color:green'>Lift,<span style='color:green'>Lift","0,0,1,1,0,0,0,0,0,1,1,0","0,0,1,1,1,1,0,1,1,1,1,0","0,1,1,0,1,1",10,20,20,"","","","","{""box1"":""1"",""box2"":""1"",""box3"":""999"",""box4"":""999""}","",NA,4,"round3_fail",5,3,3,1,1,NA,NA,0,0,20,NA,NA,NA,NA,NA,NA,NA,NA,NA,NA,NA,NA,NA,NA,NA,NA,NA,NA,NA,NA,1,1,NA,NA,0,0,20,1,1,"",NA,NA,NA,NA,NA,NA,NA,NA,2025-11-21 01:50:38
"null","https://psyc-201.github.io/xiang2023/exp/index1.html?PROLIFIC_PID=REDACTED&STUDY_ID=691f8ca61c6b4dcbb0aeb5f4&SESSION_ID=691fc22d9a314db2176a42dc","html-keyboard-response",29,599999,"0.0-334.0","b2sRMBjYfhnM7h8uCAnGQyCGGQwEcvr7omltKmhqikjVCWLXYbroZcLJNvzCKD5jCbrhjXLXb1e3CMpmlRmYFNFWLmxwIEhmGj69g1HkttcXHeNh1Fhs/5PuFAH3I8hG4s11ZcvQqFXax4ZF1pMs+ZNkkn50NrZQi3QMVTiB7/Iur5TTENXQsBcTaw6tkDxr3LR9WG1j0bZh112vz8GMnBGEGlVhEaDCHv2mbBltfLj/yC7H1c6ppb3uPq6kVpq370sAHEq3/JyL9tLMQ5c/zbPaqxhIHumUlRMWfIxah9e+rOKyMTwS7qKgKSvtErUIrZul+fJw6iFAApH03v/noQ==","691f8ca61c6b4dcbb0aeb5f4","691fc22d9a314db2176a42dc","index1","<span style='color:red'>Fail,<span style='color:red'>Fail,<span style='color:green'>Lift,<span style='color:green'>Lift,<span style='color:red'>Fail,<span style='color:red'>Fail,<span style='color:red'>Fail,<span style='color:red'>Fail,<span style='color:red'>Fail,<span style='color:green'>Lift,<span style='color:green'>Lift,<span style='color:red'>Fail","<span style='color:red'>Fail,<span style='color:red'>Fail,<span style='color:green'>Lift,<span style='color:green'>Lift,<span style='color:green'>Lift,<span style='color:green'>Lift,<span style='color:red'>Fail,<span style='color:green'>Lift,<span style='color:green'>Lift,<span style='color:green'>Lift,<span style='color:green'>Lift,<span style='color:red'>Fail","<span style='color:red'>Fail,<span style='color:green'>Lift,<span style='color:green'>Lift,<span style='color:red'>Fail,<span style='color:green'>Lift,<span style='color:green'>Lift","0,0,1,1,0,0,0,0,0,1,1,0","0,0,1,1,1,1,0,1,1,1,1,0","0,1,1,0,1,1",10,20,20,"","","<p style='font-size:30px'><b> New Contest! </b></p>","null","","",NA,4,"",NA,NA,NA,NA,NA,NA,NA,NA,NA,NA,NA,NA,NA,NA,NA,NA,NA,NA,NA,NA,NA,NA,NA,NA,NA,NA,NA,NA,NA,NA,NA,NA,NA,NA,NA,NA,NA,NA,NA,"",NA,NA,NA,NA,NA,NA,NA,NA,2025-11-21 01:50:38
"10140.5","https://psyc-201.github.io/xiang2023/exp/index1.html?PROLIFIC_PID=REDACTED&STUDY_ID=691f8ca61c6b4dcbb0aeb5f4&SESSION_ID=691fc22d9a314db2176a42dc","survey-html-form",30,610142,"0.0-335.0","b2sRMBjYfhnM7h8uCAnGQyCGGQwEcvr7omltKmhqikjVCWLXYbroZcLJNvzCKD5jCbrhjXLXb1e3CMpmlRmYFNFWLmxwIEhmGj69g1HkttcXHeNh1Fhs/5PuFAH3I8hG4s11ZcvQqFXax4ZF1pMs+ZNkkn50NrZQi3QMVTiB7/Iur5TTENXQsBcTaw6tkDxr3LR9WG1j0bZh112vz8GMnBGEGlVhEaDCHv2mbBltfLj/yC7H1c6ppb3uPq6kVpq370sAHEq3/JyL9tLMQ5c/zbPaqxhIHumUlRMWfIxah9e+rOKyMTwS7qKgKSvtErUIrZul+fJw6iFAApH03v/noQ==","691f8ca61c6b4dcbb0aeb5f4","691fc22d9a314db2176a42dc","index1","<span style='color:red'>Fail,<span style='color:red'>Fail,<span style='color:green'>Lift,<span style='color:green'>Lift,<span style='color:red'>Fail,<span style='color:red'>Fail,<span style='color:red'>Fail,<span style='color:red'>Fail,<span style='color:red'>Fail,<span style='color:green'>Lift,<span style='color:green'>Lift,<span style='color:red'>Fail","<span style='color:red'>Fail,<span style='color:red'>Fail,<span style='color:green'>Lift,<span style='color:green'>Lift,<span style='color:green'>Lift,<span style='color:green'>Lift,<span style='color:red'>Fail,<span style='color:green'>Lift,<span style='color:green'>Lift,<span style='color:green'>Lift,<span style='color:green'>Lift,<span style='color:red'>Fail","<span style='color:red'>Fail,<span style='color:green'>Lift,<span style='color:green'>Lift,<span style='color:red'>Fail,<span style='color:green'>Lift,<span style='color:green'>Lift","0,0,1,1,0,0,0,0,0,1,1,0","0,0,1,1,1,1,0,1,1,1,1,0","0,1,1,0,1,1",10,20,20,"","","","","{""box1"":""2"",""box2"":""1""}","",NA,4,"round1_outcome",1,4,1,2,1,NA,NA,0,0,10,2,1,NA,NA,0,0,10,NA,NA,NA,NA,NA,NA,NA,NA,NA,NA,NA,NA,NA,NA,NA,NA,NA,NA,NA,NA,NA,NA,"",NA,NA,NA,NA,NA,NA,NA,NA,2025-11-21 01:50:38
"7948.5","https://psyc-201.github.io/xiang2023/exp/index1.html?PROLIFIC_PID=REDACTED&STUDY_ID=691f8ca61c6b4dcbb0aeb5f4&SESSION_ID=691fc22d9a314db2176a42dc","survey-html-form",31,618092,"0.0-336.0","b2sRMBjYfhnM7h8uCAnGQyCGGQwEcvr7omltKmhqikjVCWLXYbroZcLJNvzCKD5jCbrhjXLXb1e3CMpmlRmYFNFWLmxwIEhmGj69g1HkttcXHeNh1Fhs/5PuFAH3I8hG4s11ZcvQqFXax4ZF1pMs+ZNkkn50NrZQi3QMVTiB7/Iur5TTENXQsBcTaw6tkDxr3LR9WG1j0bZh112vz8GMnBGEGlVhEaDCHv2mbBltfLj/yC7H1c6ppb3uPq6kVpq370sAHEq3/JyL9tLMQ5c/zbPaqxhIHumUlRMWfIxah9e+rOKyMTwS7qKgKSvtErUIrZul+fJw6iFAApH03v/noQ==","691f8ca61c6b4dcbb0aeb5f4","691fc22d9a314db2176a42dc","index1","<span style='color:red'>Fail,<span style='color:red'>Fail,<span style='color:green'>Lift,<span style='color:green'>Lift,<span style='color:red'>Fail,<span style='color:red'>Fail,<span style='color:red'>Fail,<span style='color:red'>Fail,<span style='color:red'>Fail,<span style='color:green'>Lift,<span style='color:green'>Lift,<span style='color:red'>Fail","<span style='color:red'>Fail,<span style='color:red'>Fail,<span style='color:green'>Lift,<span style='color:green'>Lift,<span style='color:green'>Lift,<span style='color:green'>Lift,<span style='color:red'>Fail,<span style='color:green'>Lift,<span style='color:green'>Lift,<span style='color:green'>Lift,<span style='color:green'>Lift,<span style='color:red'>Fail","<span style='color:red'>Fail,<span style='color:green'>Lift,<span style='color:green'>Lift,<span style='color:red'>Fail,<span style='color:green'>Lift,<span style='color:green'>Lift","0,0,1,1,0,0,0,0,0,1,1,0","0,0,1,1,1,1,0,1,1,1,1,0","0,1,1,0,1,1",10,20,20,"","","","","{""box1"":""20"",""box2"":""25""}","",NA,4,"round2_ready",2,4,2,NA,NA,NA,NA,NA,NA,NA,NA,NA,NA,NA,NA,NA,NA,20,25,20,25,NA,NA,NA,NA,NA,NA,NA,NA,NA,NA,NA,NA,NA,NA,NA,NA,NA,NA,"",NA,NA,NA,NA,NA,NA,NA,NA,2025-11-21 01:50:38
"11401.799999952316","https://psyc-201.github.io/xiang2023/exp/index1.html?PROLIFIC_PID=REDACTED&STUDY_ID=691f8ca61c6b4dcbb0aeb5f4&SESSION_ID=691fc22d9a314db2176a42dc","survey-html-form",32,629496,"0.0-337.0","b2sRMBjYfhnM7h8uCAnGQyCGGQwEcvr7omltKmhqikjVCWLXYbroZcLJNvzCKD5jCbrhjXLXb1e3CMpmlRmYFNFWLmxwIEhmGj69g1HkttcXHeNh1Fhs/5PuFAH3I8hG4s11ZcvQqFXax4ZF1pMs+ZNkkn50NrZQi3QMVTiB7/Iur5TTENXQsBcTaw6tkDxr3LR9WG1j0bZh112vz8GMnBGEGlVhEaDCHv2mbBltfLj/yC7H1c6ppb3uPq6kVpq370sAHEq3/JyL9tLMQ5c/zbPaqxhIHumUlRMWfIxah9e+rOKyMTwS7qKgKSvtErUIrZul+fJw6iFAApH03v/noQ==","691f8ca61c6b4dcbb0aeb5f4","691fc22d9a314db2176a42dc","index1","<span style='color:red'>Fail,<span style='color:red'>Fail,<span style='color:green'>Lift,<span style='color:green'>Lift,<span style='color:red'>Fail,<span style='color:red'>Fail,<span style='color:red'>Fail,<span style='color:red'>Fail,<span style='color:red'>Fail,<span style='color:green'>Lift,<span style='color:green'>Lift,<span style='color:red'>Fail","<span style='color:red'>Fail,<span style='color:red'>Fail,<span style='color:green'>Lift,<span style='color:green'>Lift,<span style='color:green'>Lift,<span style='color:green'>Lift,<span style='color:red'>Fail,<span style='color:green'>Lift,<span style='color:green'>Lift,<span style='color:green'>Lift,<span style='color:green'>Lift,<span style='color:red'>Fail","<span style='color:red'>Fail,<span style='color:green'>Lift,<span style='color:green'>Lift,<span style='color:red'>Fail,<span style='color:green'>Lift,<span style='color:green'>Lift","0,0,1,1,0,0,0,0,0,1,1,0","0,0,1,1,1,1,0,1,1,1,1,0","0,1,1,0,1,1",10,20,20,"","","","","{""box1"":""2"",""box2"":""6"",""box4"":""100""}","",NA,4,"round2_outcome",3,4,2,2,6,NA,100,0,1,20,NA,NA,NA,NA,NA,NA,NA,NA,NA,NA,NA,2,6,NA,100,0,1,20,NA,NA,NA,NA,NA,NA,NA,NA,NA,NA,NA,"",NA,NA,NA,NA,NA,NA,NA,NA,2025-11-21 01:50:38
"5825.300000071526","https://psyc-201.github.io/xiang2023/exp/index1.html?PROLIFIC_PID=REDACTED&STUDY_ID=691f8ca61c6b4dcbb0aeb5f4&SESSION_ID=691fc22d9a314db2176a42dc","survey-html-form",33,635323,"0.0-338.0","b2sRMBjYfhnM7h8uCAnGQyCGGQwEcvr7omltKmhqikjVCWLXYbroZcLJNvzCKD5jCbrhjXLXb1e3CMpmlRmYFNFWLmxwIEhmGj69g1HkttcXHeNh1Fhs/5PuFAH3I8hG4s11ZcvQqFXax4ZF1pMs+ZNkkn50NrZQi3QMVTiB7/Iur5TTENXQsBcTaw6tkDxr3LR9WG1j0bZh112vz8GMnBGEGlVhEaDCHv2mbBltfLj/yC7H1c6ppb3uPq6kVpq370sAHEq3/JyL9tLMQ5c/zbPaqxhIHumUlRMWfIxah9e+rOKyMTwS7qKgKSvtErUIrZul+fJw6iFAApH03v/noQ==","691f8ca61c6b4dcbb0aeb5f4","691fc22d9a314db2176a42dc","index1","<span style='color:red'>Fail,<span style='color:red'>Fail,<span style='color:green'>Lift,<span style='color:green'>Lift,<span style='color:red'>Fail,<span style='color:red'>Fail,<span style='color:red'>Fail,<span style='color:red'>Fail,<span style='color:red'>Fail,<span style='color:green'>Lift,<span style='color:green'>Lift,<span style='color:red'>Fail","<span style='color:red'>Fail,<span style='color:red'>Fail,<span style='color:green'>Lift,<span style='color:green'>Lift,<span style='color:green'>Lift,<span style='color:green'>Lift,<span style='color:red'>Fail,<span style='color:green'>Lift,<span style='color:green'>Lift,<span style='color:green'>Lift,<span style='color:green'>Lift,<span style='color:red'>Fail","<span style='color:red'>Fail,<span style='color:green'>Lift,<span style='color:green'>Lift,<span style='color:red'>Fail,<span style='color:green'>Lift,<span style='color:green'>Lift","0,0,1,1,0,0,0,0,0,1,1,0","0,0,1,1,1,1,0,1,1,1,1,0","0,1,1,0,1,1",10,20,20,"","","","","{""box1"":""100""}","",NA,4,"round3_ready",4,4,3,NA,NA,NA,NA,NA,NA,NA,NA,NA,NA,NA,NA,NA,NA,100,100,NA,NA,NA,NA,NA,NA,NA,NA,NA,100,100,NA,NA,NA,NA,NA,NA,NA,NA,NA,"",NA,NA,NA,NA,NA,NA,NA,NA,2025-11-21 01:50:38
"10712.399999976158","https://psyc-201.github.io/xiang2023/exp/index1.html?PROLIFIC_PID=REDACTED&STUDY_ID=691f8ca61c6b4dcbb0aeb5f4&SESSION_ID=691fc22d9a314db2176a42dc","survey-html-form",34,646038,"0.0-340.0-0.0","b2sRMBjYfhnM7h8uCAnGQyCGGQwEcvr7omltKmhqikjVCWLXYbroZcLJNvzCKD5jCbrhjXLXb1e3CMpmlRmYFNFWLmxwIEhmGj69g1HkttcXHeNh1Fhs/5PuFAH3I8hG4s11ZcvQqFXax4ZF1pMs+ZNkkn50NrZQi3QMVTiB7/Iur5TTENXQsBcTaw6tkDxr3LR9WG1j0bZh112vz8GMnBGEGlVhEaDCHv2mbBltfLj/yC7H1c6ppb3uPq6kVpq370sAHEq3/JyL9tLMQ5c/zbPaqxhIHumUlRMWfIxah9e+rOKyMTwS7qKgKSvtErUIrZul+fJw6iFAApH03v/noQ==","691f8ca61c6b4dcbb0aeb5f4","691fc22d9a314db2176a42dc","index1","<span style='color:red'>Fail,<span style='color:red'>Fail,<span style='color:green'>Lift,<span style='color:green'>Lift,<span style='color:red'>Fail,<span style='color:red'>Fail,<span style='color:red'>Fail,<span style='color:red'>Fail,<span style='color:red'>Fail,<span style='color:green'>Lift,<span style='color:green'>Lift,<span style='color:red'>Fail","<span style='color:red'>Fail,<span style='color:red'>Fail,<span style='color:green'>Lift,<span style='color:green'>Lift,<span style='color:green'>Lift,<span style='color:green'>Lift,<span style='color:red'>Fail,<span style='color:green'>Lift,<span style='color:green'>Lift,<span style='color:green'>Lift,<span style='color:green'>Lift,<span style='color:red'>Fail","<span style='color:red'>Fail,<span style='color:green'>Lift,<span style='color:green'>Lift,<span style='color:red'>Fail,<span style='color:green'>Lift,<span style='color:green'>Lift","0,0,1,1,0,0,0,0,0,1,1,0","0,0,1,1,1,1,0,1,1,1,1,0","0,1,1,0,1,1",10,20,20,"","","","","{""box1"":""1"",""box2"":""5"",""box3"":""999"",""box4"":""999""}","",NA,5,"round3_fail",5,4,3,1,5,NA,NA,0,0,20,NA,NA,NA,NA,NA,NA,NA,NA,NA,NA,NA,NA,NA,NA,NA,NA,NA,NA,NA,NA,1,5,NA,NA,0,0,20,1,1,"",NA,NA,NA,NA,NA,NA,NA,NA,2025-11-21 01:50:38
"null","https://psyc-201.github.io/xiang2023/exp/index1.html?PROLIFIC_PID=REDACTED&STUDY_ID=691f8ca61c6b4dcbb0aeb5f4&SESSION_ID=691fc22d9a314db2176a42dc","html-keyboard-response",35,649052,"0.0-343.0","b2sRMBjYfhnM7h8uCAnGQyCGGQwEcvr7omltKmhqikjVCWLXYbroZcLJNvzCKD5jCbrhjXLXb1e3CMpmlRmYFNFWLmxwIEhmGj69g1HkttcXHeNh1Fhs/5PuFAH3I8hG4s11ZcvQqFXax4ZF1pMs+ZNkkn50NrZQi3QMVTiB7/Iur5TTENXQsBcTaw6tkDxr3LR9WG1j0bZh112vz8GMnBGEGlVhEaDCHv2mbBltfLj/yC7H1c6ppb3uPq6kVpq370sAHEq3/JyL9tLMQ5c/zbPaqxhIHumUlRMWfIxah9e+rOKyMTwS7qKgKSvtErUIrZul+fJw6iFAApH03v/noQ==","691f8ca61c6b4dcbb0aeb5f4","691fc22d9a314db2176a42dc","index1","<span style='color:red'>Fail,<span style='color:red'>Fail,<span style='color:green'>Lift,<span style='color:green'>Lift,<span style='color:red'>Fail,<span style='color:red'>Fail,<span style='color:red'>Fail,<span style='color:red'>Fail,<span style='color:red'>Fail,<span style='color:green'>Lift,<span style='color:green'>Lift,<span style='color:red'>Fail","<span style='color:red'>Fail,<span style='color:red'>Fail,<span style='color:green'>Lift,<span style='color:green'>Lift,<span style='color:green'>Lift,<span style='color:green'>Lift,<span style='color:red'>Fail,<span style='color:green'>Lift,<span style='color:green'>Lift,<span style='color:green'>Lift,<span style='color:green'>Lift,<span style='color:red'>Fail","<span style='color:red'>Fail,<span style='color:green'>Lift,<span style='color:green'>Lift,<span style='color:red'>Fail,<span style='color:green'>Lift,<span style='color:green'>Lift","0,0,1,1,0,0,0,0,0,1,1,0","0,0,1,1,1,1,0,1,1,1,1,0","0,1,1,0,1,1",10,20,20,"","","<p style='font-size:30px'><b> New Contest! </b></p>","null","","",NA,5,"",NA,NA,NA,NA,NA,NA,NA,NA,NA,NA,NA,NA,NA,NA,NA,NA,NA,NA,NA,NA,NA,NA,NA,NA,NA,NA,NA,NA,NA,NA,NA,NA,NA,NA,NA,NA,NA,NA,NA,"",NA,NA,NA,NA,NA,NA,NA,NA,2025-11-21 01:50:38
"7339.399999976158","https://psyc-201.github.io/xiang2023/exp/index1.html?PROLIFIC_PID=REDACTED&STUDY_ID=691f8ca61c6b4dcbb0aeb5f4&SESSION_ID=691fc22d9a314db2176a42dc","survey-html-form",36,656393,"0.0-344.0","b2sRMBjYfhnM7h8uCAnGQyCGGQwEcvr7omltKmhqikjVCWLXYbroZcLJNvzCKD5jCbrhjXLXb1e3CMpmlRmYFNFWLmxwIEhmGj69g1HkttcXHeNh1Fhs/5PuFAH3I8hG4s11ZcvQqFXax4ZF1pMs+ZNkkn50NrZQi3QMVTiB7/Iur5TTENXQsBcTaw6tkDxr3LR9WG1j0bZh112vz8GMnBGEGlVhEaDCHv2mbBltfLj/yC7H1c6ppb3uPq6kVpq370sAHEq3/JyL9tLMQ5c/zbPaqxhIHumUlRMWfIxah9e+rOKyMTwS7qKgKSvtErUIrZul+fJw6iFAApH03v/noQ==","691f8ca61c6b4dcbb0aeb5f4","691fc22d9a314db2176a42dc","index1","<span style='color:red'>Fail,<span style='color:red'>Fail,<span style='color:green'>Lift,<span style='color:green'>Lift,<span style='color:red'>Fail,<span style='color:red'>Fail,<span style='color:red'>Fail,<span style='color:red'>Fail,<span style='color:red'>Fail,<span style='color:green'>Lift,<span style='color:green'>Lift,<span style='color:red'>Fail","<span style='color:red'>Fail,<span style='color:red'>Fail,<span style='color:green'>Lift,<span style='color:green'>Lift,<span style='color:green'>Lift,<span style='color:green'>Lift,<span style='color:red'>Fail,<span style='color:green'>Lift,<span style='color:green'>Lift,<span style='color:green'>Lift,<span style='color:green'>Lift,<span style='color:red'>Fail","<span style='color:red'>Fail,<span style='color:green'>Lift,<span style='color:green'>Lift,<span style='color:red'>Fail,<span style='color:green'>Lift,<span style='color:green'>Lift","0,0,1,1,0,0,0,0,0,1,1,0","0,0,1,1,1,1,0,1,1,1,1,0","0,1,1,0,1,1",10,20,20,"","","","","{""box1"":""2"",""box2"":""3""}","",NA,5,"round1_outcome",1,5,1,2,3,NA,NA,0,0,10,2,3,NA,NA,0,0,10,NA,NA,NA,NA,NA,NA,NA,NA,NA,NA,NA,NA,NA,NA,NA,NA,NA,NA,NA,NA,NA,NA,"",NA,NA,NA,NA,NA,NA,NA,NA,2025-11-21 01:50:38
"8716","https://psyc-201.github.io/xiang2023/exp/index1.html?PROLIFIC_PID=REDACTED&STUDY_ID=691f8ca61c6b4dcbb0aeb5f4&SESSION_ID=691fc22d9a314db2176a42dc","survey-html-form",37,665111,"0.0-345.0","b2sRMBjYfhnM7h8uCAnGQyCGGQwEcvr7omltKmhqikjVCWLXYbroZcLJNvzCKD5jCbrhjXLXb1e3CMpmlRmYFNFWLmxwIEhmGj69g1HkttcXHeNh1Fhs/5PuFAH3I8hG4s11ZcvQqFXax4ZF1pMs+ZNkkn50NrZQi3QMVTiB7/Iur5TTENXQsBcTaw6tkDxr3LR9WG1j0bZh112vz8GMnBGEGlVhEaDCHv2mbBltfLj/yC7H1c6ppb3uPq6kVpq370sAHEq3/JyL9tLMQ5c/zbPaqxhIHumUlRMWfIxah9e+rOKyMTwS7qKgKSvtErUIrZul+fJw6iFAApH03v/noQ==","691f8ca61c6b4dcbb0aeb5f4","691fc22d9a314db2176a42dc","index1","<span style='color:red'>Fail,<span style='color:red'>Fail,<span style='color:green'>Lift,<span style='color:green'>Lift,<span style='color:red'>Fail,<span style='color:red'>Fail,<span style='color:red'>Fail,<span style='color:red'>Fail,<span style='color:red'>Fail,<span style='color:green'>Lift,<span style='color:green'>Lift,<span style='color:red'>Fail","<span style='color:red'>Fail,<span style='color:red'>Fail,<span style='color:green'>Lift,<span style='color:green'>Lift,<span style='color:green'>Lift,<span style='color:green'>Lift,<span style='color:red'>Fail,<span style='color:green'>Lift,<span style='color:green'>Lift,<span style='color:green'>Lift,<span style='color:green'>Lift,<span style='color:red'>Fail","<span style='color:red'>Fail,<span style='color:green'>Lift,<span style='color:green'>Lift,<span style='color:red'>Fail,<span style='color:green'>Lift,<span style='color:green'>Lift","0,0,1,1,0,0,0,0,0,1,1,0","0,0,1,1,1,1,0,1,1,1,1,0","0,1,1,0,1,1",10,20,20,"","","","","{""box1"":""30"",""box2"":""40""}","",NA,5,"round2_ready",2,5,2,NA,NA,NA,NA,NA,NA,NA,NA,NA,NA,NA,NA,NA,NA,30,40,30,40,NA,NA,NA,NA,NA,NA,NA,NA,NA,NA,NA,NA,NA,NA,NA,NA,NA,NA,"",NA,NA,NA,NA,NA,NA,NA,NA,2025-11-21 01:50:38
"15244.299999952316","https://psyc-201.github.io/xiang2023/exp/index1.html?PROLIFIC_PID=REDACTED&STUDY_ID=691f8ca61c6b4dcbb0aeb5f4&SESSION_ID=691fc22d9a314db2176a42dc","survey-html-form",38,680358,"0.0-346.0","b2sRMBjYfhnM7h8uCAnGQyCGGQwEcvr7omltKmhqikjVCWLXYbroZcLJNvzCKD5jCbrhjXLXb1e3CMpmlRmYFNFWLmxwIEhmGj69g1HkttcXHeNh1Fhs/5PuFAH3I8hG4s11ZcvQqFXax4ZF1pMs+ZNkkn50NrZQi3QMVTiB7/Iur5TTENXQsBcTaw6tkDxr3LR9WG1j0bZh112vz8GMnBGEGlVhEaDCHv2mbBltfLj/yC7H1c6ppb3uPq6kVpq370sAHEq3/JyL9tLMQ5c/zbPaqxhIHumUlRMWfIxah9e+rOKyMTwS7qKgKSvtErUIrZul+fJw6iFAApH03v/noQ==","691f8ca61c6b4dcbb0aeb5f4","691fc22d9a314db2176a42dc","index1","<span style='color:red'>Fail,<span style='color:red'>Fail,<span style='color:green'>Lift,<span style='color:green'>Lift,<span style='color:red'>Fail,<span style='color:red'>Fail,<span style='color:red'>Fail,<span style='color:red'>Fail,<span style='color:red'>Fail,<span style='color:green'>Lift,<span style='color:green'>Lift,<span style='color:red'>Fail","<span style='color:red'>Fail,<span style='color:red'>Fail,<span style='color:green'>Lift,<span style='color:green'>Lift,<span style='color:green'>Lift,<span style='color:green'>Lift,<span style='color:red'>Fail,<span style='color:green'>Lift,<span style='color:green'>Lift,<span style='color:green'>Lift,<span style='color:green'>Lift,<span style='color:red'>Fail","<span style='color:red'>Fail,<span style='color:green'>Lift,<span style='color:green'>Lift,<span style='color:red'>Fail,<span style='color:green'>Lift,<span style='color:green'>Lift","0,0,1,1,0,0,0,0,0,1,1,0","0,0,1,1,1,1,0,1,1,1,1,0","0,1,1,0,1,1",10,20,20,"","","","","{""box1"":""8"",""box2"":""6"",""box3"":""50"",""box4"":""75""}","",NA,5,"round2_outcome",3,5,2,8,6,50,75,1,1,20,NA,NA,NA,NA,NA,NA,NA,NA,NA,NA,NA,8,6,50,75,1,1,20,NA,NA,NA,NA,NA,NA,NA,NA,NA,NA,NA,"",NA,NA,NA,NA,NA,NA,NA,NA,2025-11-21 01:50:38
"5348.100000023842","https://psyc-201.github.io/xiang2023/exp/index1.html?PROLIFIC_PID=REDACTED&STUDY_ID=691f8ca61c6b4dcbb0aeb5f4&SESSION_ID=691fc22d9a314db2176a42dc","survey-html-form",39,685708,"0.0-347.0","b2sRMBjYfhnM7h8uCAnGQyCGGQwEcvr7omltKmhqikjVCWLXYbroZcLJNvzCKD5jCbrhjXLXb1e3CMpmlRmYFNFWLmxwIEhmGj69g1HkttcXHeNh1Fhs/5PuFAH3I8hG4s11ZcvQqFXax4ZF1pMs+ZNkkn50NrZQi3QMVTiB7/Iur5TTENXQsBcTaw6tkDxr3LR9WG1j0bZh112vz8GMnBGEGlVhEaDCHv2mbBltfLj/yC7H1c6ppb3uPq6kVpq370sAHEq3/JyL9tLMQ5c/zbPaqxhIHumUlRMWfIxah9e+rOKyMTwS7qKgKSvtErUIrZul+fJw6iFAApH03v/noQ==","691f8ca61c6b4dcbb0aeb5f4","691fc22d9a314db2176a42dc","index1","<span style='color:red'>Fail,<span style='color:red'>Fail,<span style='color:green'>Lift,<span style='color:green'>Lift,<span style='color:red'>Fail,<span style='color:red'>Fail,<span style='color:red'>Fail,<span style='color:red'>Fail,<span style='color:red'>Fail,<span style='color:green'>Lift,<span style='color:green'>Lift,<span style='color:red'>Fail","<span style='color:red'>Fail,<span style='color:red'>Fail,<span style='color:green'>Lift,<span style='color:green'>Lift,<span style='color:green'>Lift,<span style='color:green'>Lift,<span style='color:red'>Fail,<span style='color:green'>Lift,<span style='color:green'>Lift,<span style='color:green'>Lift,<span style='color:green'>Lift,<span style='color:red'>Fail","<span style='color:red'>Fail,<span style='color:green'>Lift,<span style='color:green'>Lift,<span style='color:red'>Fail,<span style='color:green'>Lift,<span style='color:green'>Lift","0,0,1,1,0,0,0,0,0,1,1,0","0,0,1,1,1,1,0,1,1,1,1,0","0,1,1,0,1,1",10,20,20,"","","","","{""box1"":""80""}","",NA,5,"round3_ready",4,5,3,NA,NA,NA,NA,NA,NA,NA,NA,NA,NA,NA,NA,NA,NA,80,80,NA,NA,NA,NA,NA,NA,NA,NA,NA,80,80,NA,NA,NA,NA,NA,NA,NA,NA,NA,"",NA,NA,NA,NA,NA,NA,NA,NA,2025-11-21 01:50:38
"14158.700000047684","https://psyc-201.github.io/xiang2023/exp/index1.html?PROLIFIC_PID=REDACTED&STUDY_ID=691f8ca61c6b4dcbb0aeb5f4&SESSION_ID=691fc22d9a314db2176a42dc","survey-html-form",40,699869,"0.0-348.0-0.0","b2sRMBjYfhnM7h8uCAnGQyCGGQwEcvr7omltKmhqikjVCWLXYbroZcLJNvzCKD5jCbrhjXLXb1e3CMpmlRmYFNFWLmxwIEhmGj69g1HkttcXHeNh1Fhs/5PuFAH3I8hG4s11ZcvQqFXax4ZF1pMs+ZNkkn50NrZQi3QMVTiB7/Iur5TTENXQsBcTaw6tkDxr3LR9WG1j0bZh112vz8GMnBGEGlVhEaDCHv2mbBltfLj/yC7H1c6ppb3uPq6kVpq370sAHEq3/JyL9tLMQ5c/zbPaqxhIHumUlRMWfIxah9e+rOKyMTwS7qKgKSvtErUIrZul+fJw6iFAApH03v/noQ==","691f8ca61c6b4dcbb0aeb5f4","691fc22d9a314db2176a42dc","index1","<span style='color:red'>Fail,<span style='color:red'>Fail,<span style='color:green'>Lift,<span style='color:green'>Lift,<span style='color:red'>Fail,<span style='color:red'>Fail,<span style='color:red'>Fail,<span style='color:red'>Fail,<span style='color:red'>Fail,<span style='color:green'>Lift,<span style='color:green'>Lift,<span style='color:red'>Fail","<span style='color:red'>Fail,<span style='color:red'>Fail,<span style='color:green'>Lift,<span style='color:green'>Lift,<span style='color:green'>Lift,<span style='color:green'>Lift,<span style='color:red'>Fail,<span style='color:green'>Lift,<span style='color:green'>Lift,<span style='color:green'>Lift,<span style='color:green'>Lift,<span style='color:red'>Fail","<span style='color:red'>Fail,<span style='color:green'>Lift,<span style='color:green'>Lift,<span style='color:red'>Fail,<span style='color:green'>Lift,<span style='color:green'>Lift","0,0,1,1,0,0,0,0,0,1,1,0","0,0,1,1,1,1,0,1,1,1,1,0","0,1,1,0,1,1",10,20,20,"","","","","{""box1"":""4"",""box2"":""8"",""box3"":""50"",""box4"":""50""}","",NA,6,"round3_lift",5,5,3,4,8,50,50,1,1,20,NA,NA,NA,NA,NA,NA,NA,NA,NA,NA,NA,NA,NA,NA,NA,NA,NA,NA,NA,NA,4,8,50,50,1,1,20,NA,NA,"",NA,NA,NA,NA,NA,NA,NA,NA,2025-11-21 01:50:38
"null","https://psyc-201.github.io/xiang2023/exp/index1.html?PROLIFIC_PID=REDACTED&STUDY_ID=691f8ca61c6b4dcbb0aeb5f4&SESSION_ID=691fc22d9a314db2176a42dc","html-keyboard-response",41,702881,"0.0-352.0","b2sRMBjYfhnM7h8uCAnGQyCGGQwEcvr7omltKmhqikjVCWLXYbroZcLJNvzCKD5jCbrhjXLXb1e3CMpmlRmYFNFWLmxwIEhmGj69g1HkttcXHeNh1Fhs/5PuFAH3I8hG4s11ZcvQqFXax4ZF1pMs+ZNkkn50NrZQi3QMVTiB7/Iur5TTENXQsBcTaw6tkDxr3LR9WG1j0bZh112vz8GMnBGEGlVhEaDCHv2mbBltfLj/yC7H1c6ppb3uPq6kVpq370sAHEq3/JyL9tLMQ5c/zbPaqxhIHumUlRMWfIxah9e+rOKyMTwS7qKgKSvtErUIrZul+fJw6iFAApH03v/noQ==","691f8ca61c6b4dcbb0aeb5f4","691fc22d9a314db2176a42dc","index1","<span style='color:red'>Fail,<span style='color:red'>Fail,<span style='color:green'>Lift,<span style='color:green'>Lift,<span style='color:red'>Fail,<span style='color:red'>Fail,<span style='color:red'>Fail,<span style='color:red'>Fail,<span style='color:red'>Fail,<span style='color:green'>Lift,<span style='color:green'>Lift,<span style='color:red'>Fail","<span style='color:red'>Fail,<span style='color:red'>Fail,<span style='color:green'>Lift,<span style='color:green'>Lift,<span style='color:green'>Lift,<span style='color:green'>Lift,<span style='color:red'>Fail,<span style='color:green'>Lift,<span style='color:green'>Lift,<span style='color:green'>Lift,<span style='color:green'>Lift,<span style='color:red'>Fail","<span style='color:red'>Fail,<span style='color:green'>Lift,<span style='color:green'>Lift,<span style='color:red'>Fail,<span style='color:green'>Lift,<span style='color:green'>Lift","0,0,1,1,0,0,0,0,0,1,1,0","0,0,1,1,1,1,0,1,1,1,1,0","0,1,1,0,1,1",10,20,20,"","","<p style='font-size:30px'><b> New Contest! </b></p>","null","","",NA,6,"",NA,NA,NA,NA,NA,NA,NA,NA,NA,NA,NA,NA,NA,NA,NA,NA,NA,NA,NA,NA,NA,NA,NA,NA,NA,NA,NA,NA,NA,NA,NA,NA,NA,NA,NA,NA,NA,NA,NA,"",NA,NA,NA,NA,NA,NA,NA,NA,2025-11-21 01:50:38
"12609.600000023842","https://psyc-201.github.io/xiang2023/exp/index1.html?PROLIFIC_PID=REDACTED&STUDY_ID=691f8ca61c6b4dcbb0aeb5f4&SESSION_ID=691fc22d9a314db2176a42dc","survey-html-form",42,715493,"0.0-353.0","b2sRMBjYfhnM7h8uCAnGQyCGGQwEcvr7omltKmhqikjVCWLXYbroZcLJNvzCKD5jCbrhjXLXb1e3CMpmlRmYFNFWLmxwIEhmGj69g1HkttcXHeNh1Fhs/5PuFAH3I8hG4s11ZcvQqFXax4ZF1pMs+ZNkkn50NrZQi3QMVTiB7/Iur5TTENXQsBcTaw6tkDxr3LR9WG1j0bZh112vz8GMnBGEGlVhEaDCHv2mbBltfLj/yC7H1c6ppb3uPq6kVpq370sAHEq3/JyL9tLMQ5c/zbPaqxhIHumUlRMWfIxah9e+rOKyMTwS7qKgKSvtErUIrZul+fJw6iFAApH03v/noQ==","691f8ca61c6b4dcbb0aeb5f4","691fc22d9a314db2176a42dc","index1","<span style='color:red'>Fail,<span style='color:red'>Fail,<span style='color:green'>Lift,<span style='color:green'>Lift,<span style='color:red'>Fail,<span style='color:red'>Fail,<span style='color:red'>Fail,<span style='color:red'>Fail,<span style='color:red'>Fail,<span style='color:green'>Lift,<span style='color:green'>Lift,<span style='color:red'>Fail","<span style='color:red'>Fail,<span style='color:red'>Fail,<span style='color:green'>Lift,<span style='color:green'>Lift,<span style='color:green'>Lift,<span style='color:green'>Lift,<span style='color:red'>Fail,<span style='color:green'>Lift,<span style='color:green'>Lift,<span style='color:green'>Lift,<span style='color:green'>Lift,<span style='color:red'>Fail","<span style='color:red'>Fail,<span style='color:green'>Lift,<span style='color:green'>Lift,<span style='color:red'>Fail,<span style='color:green'>Lift,<span style='color:green'>Lift","0,0,1,1,0,0,0,0,0,1,1,0","0,0,1,1,1,1,0,1,1,1,1,0","0,1,1,0,1,1",10,20,20,"","","","","{""box1"":""2"",""box2"":""6"",""box4"":""50""}","",NA,6,"round1_outcome",1,6,1,2,6,NA,50,0,1,10,2,6,NA,50,0,1,10,NA,NA,NA,NA,NA,NA,NA,NA,NA,NA,NA,NA,NA,NA,NA,NA,NA,NA,NA,NA,NA,NA,"",NA,NA,NA,NA,NA,NA,NA,NA,2025-11-21 01:50:38
"6835.799999952316","https://psyc-201.github.io/xiang2023/exp/index1.html?PROLIFIC_PID=REDACTED&STUDY_ID=691f8ca61c6b4dcbb0aeb5f4&SESSION_ID=691fc22d9a314db2176a42dc","survey-html-form",43,722331,"0.0-354.0","b2sRMBjYfhnM7h8uCAnGQyCGGQwEcvr7omltKmhqikjVCWLXYbroZcLJNvzCKD5jCbrhjXLXb1e3CMpmlRmYFNFWLmxwIEhmGj69g1HkttcXHeNh1Fhs/5PuFAH3I8hG4s11ZcvQqFXax4ZF1pMs+ZNkkn50NrZQi3QMVTiB7/Iur5TTENXQsBcTaw6tkDxr3LR9WG1j0bZh112vz8GMnBGEGlVhEaDCHv2mbBltfLj/yC7H1c6ppb3uPq6kVpq370sAHEq3/JyL9tLMQ5c/zbPaqxhIHumUlRMWfIxah9e+rOKyMTwS7qKgKSvtErUIrZul+fJw6iFAApH03v/noQ==","691f8ca61c6b4dcbb0aeb5f4","691fc22d9a314db2176a42dc","index1","<span style='color:red'>Fail,<span style='color:red'>Fail,<span style='color:green'>Lift,<span style='color:green'>Lift,<span style='color:red'>Fail,<span style='color:red'>Fail,<span style='color:red'>Fail,<span style='color:red'>Fail,<span style='color:red'>Fail,<span style='color:green'>Lift,<span style='color:green'>Lift,<span style='color:red'>Fail","<span style='color:red'>Fail,<span style='color:red'>Fail,<span style='color:green'>Lift,<span style='color:green'>Lift,<span style='color:green'>Lift,<span style='color:green'>Lift,<span style='color:red'>Fail,<span style='color:green'>Lift,<span style='color:green'>Lift,<span style='color:green'>Lift,<span style='color:green'>Lift,<span style='color:red'>Fail","<span style='color:red'>Fail,<span style='color:green'>Lift,<span style='color:green'>Lift,<span style='color:red'>Fail,<span style='color:green'>Lift,<span style='color:green'>Lift","0,0,1,1,0,0,0,0,0,1,1,0","0,0,1,1,1,1,0,1,1,1,1,0","0,1,1,0,1,1",10,20,20,"","","","","{""box1"":""50"",""box2"":""75""}","",NA,6,"round2_ready",2,6,2,NA,NA,NA,NA,NA,NA,NA,NA,NA,NA,NA,NA,NA,NA,50,75,50,75,NA,NA,NA,NA,NA,NA,NA,NA,NA,NA,NA,NA,NA,NA,NA,NA,NA,NA,"",NA,NA,NA,NA,NA,NA,NA,NA,2025-11-21 01:50:38
"11456.399999976158","https://psyc-201.github.io/xiang2023/exp/index1.html?PROLIFIC_PID=REDACTED&STUDY_ID=691f8ca61c6b4dcbb0aeb5f4&SESSION_ID=691fc22d9a314db2176a42dc","survey-html-form",44,733789,"0.0-355.0","b2sRMBjYfhnM7h8uCAnGQyCGGQwEcvr7omltKmhqikjVCWLXYbroZcLJNvzCKD5jCbrhjXLXb1e3CMpmlRmYFNFWLmxwIEhmGj69g1HkttcXHeNh1Fhs/5PuFAH3I8hG4s11ZcvQqFXax4ZF1pMs+ZNkkn50NrZQi3QMVTiB7/Iur5TTENXQsBcTaw6tkDxr3LR9WG1j0bZh112vz8GMnBGEGlVhEaDCHv2mbBltfLj/yC7H1c6ppb3uPq6kVpq370sAHEq3/JyL9tLMQ5c/zbPaqxhIHumUlRMWfIxah9e+rOKyMTwS7qKgKSvtErUIrZul+fJw6iFAApH03v/noQ==","691f8ca61c6b4dcbb0aeb5f4","691fc22d9a314db2176a42dc","index1","<span style='color:red'>Fail,<span style='color:red'>Fail,<span style='color:green'>Lift,<span style='color:green'>Lift,<span style='color:red'>Fail,<span style='color:red'>Fail,<span style='color:red'>Fail,<span style='color:red'>Fail,<span style='color:red'>Fail,<span style='color:green'>Lift,<span style='color:green'>Lift,<span style='color:red'>Fail","<span style='color:red'>Fail,<span style='color:red'>Fail,<span style='color:green'>Lift,<span style='color:green'>Lift,<span style='color:green'>Lift,<span style='color:green'>Lift,<span style='color:red'>Fail,<span style='color:green'>Lift,<span style='color:green'>Lift,<span style='color:green'>Lift,<span style='color:green'>Lift,<span style='color:red'>Fail","<span style='color:red'>Fail,<span style='color:green'>Lift,<span style='color:green'>Lift,<span style='color:red'>Fail,<span style='color:green'>Lift,<span style='color:green'>Lift","0,0,1,1,0,0,0,0,0,1,1,0","0,0,1,1,1,1,0,1,1,1,1,0","0,1,1,0,1,1",10,20,20,"","","","","{""box1"":""8"",""box2"":""6"",""box3"":""100"",""box4"":""50""}","",NA,6,"round2_outcome",3,6,2,8,6,100,50,1,1,20,NA,NA,NA,NA,NA,NA,NA,NA,NA,NA,NA,8,6,100,50,1,1,20,NA,NA,NA,NA,NA,NA,NA,NA,NA,NA,NA,"",NA,NA,NA,NA,NA,NA,NA,NA,2025-11-21 01:50:38
"3859.2999999523163","https://psyc-201.github.io/xiang2023/exp/index1.html?PROLIFIC_PID=REDACTED&STUDY_ID=691f8ca61c6b4dcbb0aeb5f4&SESSION_ID=691fc22d9a314db2176a42dc","survey-html-form",45,737651,"0.0-356.0","b2sRMBjYfhnM7h8uCAnGQyCGGQwEcvr7omltKmhqikjVCWLXYbroZcLJNvzCKD5jCbrhjXLXb1e3CMpmlRmYFNFWLmxwIEhmGj69g1HkttcXHeNh1Fhs/5PuFAH3I8hG4s11ZcvQqFXax4ZF1pMs+ZNkkn50NrZQi3QMVTiB7/Iur5TTENXQsBcTaw6tkDxr3LR9WG1j0bZh112vz8GMnBGEGlVhEaDCHv2mbBltfLj/yC7H1c6ppb3uPq6kVpq370sAHEq3/JyL9tLMQ5c/zbPaqxhIHumUlRMWfIxah9e+rOKyMTwS7qKgKSvtErUIrZul+fJw6iFAApH03v/noQ==","691f8ca61c6b4dcbb0aeb5f4","691fc22d9a314db2176a42dc","index1","<span style='color:red'>Fail,<span style='color:red'>Fail,<span style='color:green'>Lift,<span style='color:green'>Lift,<span style='color:red'>Fail,<span style='color:red'>Fail,<span style='color:red'>Fail,<span style='color:red'>Fail,<span style='color:red'>Fail,<span style='color:green'>Lift,<span style='color:green'>Lift,<span style='color:red'>Fail","<span style='color:red'>Fail,<span style='color:red'>Fail,<span style='color:green'>Lift,<span style='color:green'>Lift,<span style='color:green'>Lift,<span style='color:green'>Lift,<span style='color:red'>Fail,<span style='color:green'>Lift,<span style='color:green'>Lift,<span style='color:green'>Lift,<span style='color:green'>Lift,<span style='color:red'>Fail","<span style='color:red'>Fail,<span style='color:green'>Lift,<span style='color:green'>Lift,<span style='color:red'>Fail,<span style='color:green'>Lift,<span style='color:green'>Lift","0,0,1,1,0,0,0,0,0,1,1,0","0,0,1,1,1,1,0,1,1,1,1,0","0,1,1,0,1,1",10,20,20,"","","","","{""box1"":""100""}","",NA,6,"round3_ready",4,6,3,NA,NA,NA,NA,NA,NA,NA,NA,NA,NA,NA,NA,NA,NA,100,100,NA,NA,NA,NA,NA,NA,NA,NA,NA,100,100,NA,NA,NA,NA,NA,NA,NA,NA,NA,"",NA,NA,NA,NA,NA,NA,NA,NA,2025-11-21 01:50:38
"8467.200000047684","https://psyc-201.github.io/xiang2023/exp/index1.html?PROLIFIC_PID=REDACTED&STUDY_ID=691f8ca61c6b4dcbb0aeb5f4&SESSION_ID=691fc22d9a314db2176a42dc","survey-html-form",46,746120,"0.0-357.0-0.0","b2sRMBjYfhnM7h8uCAnGQyCGGQwEcvr7omltKmhqikjVCWLXYbroZcLJNvzCKD5jCbrhjXLXb1e3CMpmlRmYFNFWLmxwIEhmGj69g1HkttcXHeNh1Fhs/5PuFAH3I8hG4s11ZcvQqFXax4ZF1pMs+ZNkkn50NrZQi3QMVTiB7/Iur5TTENXQsBcTaw6tkDxr3LR9WG1j0bZh112vz8GMnBGEGlVhEaDCHv2mbBltfLj/yC7H1c6ppb3uPq6kVpq370sAHEq3/JyL9tLMQ5c/zbPaqxhIHumUlRMWfIxah9e+rOKyMTwS7qKgKSvtErUIrZul+fJw6iFAApH03v/noQ==","691f8ca61c6b4dcbb0aeb5f4","691fc22d9a314db2176a42dc","index1","<span style='color:red'>Fail,<span style='color:red'>Fail,<span style='color:green'>Lift,<span style='color:green'>Lift,<span style='color:red'>Fail,<span style='color:red'>Fail,<span style='color:red'>Fail,<span style='color:red'>Fail,<span style='color:red'>Fail,<span style='color:green'>Lift,<span style='color:green'>Lift,<span style='color:red'>Fail","<span style='color:red'>Fail,<span style='color:red'>Fail,<span style='color:green'>Lift,<span style='color:green'>Lift,<span style='color:green'>Lift,<span style='color:green'>Lift,<span style='color:red'>Fail,<span style='color:green'>Lift,<span style='color:green'>Lift,<span style='color:green'>Lift,<span style='color:green'>Lift,<span style='color:red'>Fail","<span style='color:red'>Fail,<span style='color:green'>Lift,<span style='color:green'>Lift,<span style='color:red'>Fail,<span style='color:green'>Lift,<span style='color:green'>Lift","0,0,1,1,0,0,0,0,0,1,1,0","0,0,1,1,1,1,0,1,1,1,1,0","0,1,1,0,1,1",10,20,20,"","","","","{""box1"":""6"",""box2"":""8"",""box3"":""50"",""box4"":""50""}","",NA,6,"round3_lift",5,6,3,6,8,50,50,1,1,20,NA,NA,NA,NA,NA,NA,NA,NA,NA,NA,NA,NA,NA,NA,NA,NA,NA,NA,NA,NA,6,8,50,50,1,1,20,NA,NA,"",NA,NA,NA,NA,NA,NA,NA,NA,2025-11-21 01:50:38
"55250.200000047684","https://psyc-201.github.io/xiang2023/exp/index1.html?PROLIFIC_PID=REDACTED&STUDY_ID=691f8ca61c6b4dcbb0aeb5f4&SESSION_ID=691fc22d9a314db2176a42dc","survey-text",47,801375,"0.0-361.0","b2sRMBjYfhnM7h8uCAnGQyCGGQwEcvr7omltKmhqikjVCWLXYbroZcLJNvzCKD5jCbrhjXLXb1e3CMpmlRmYFNFWLmxwIEhmGj69g1HkttcXHeNh1Fhs/5PuFAH3I8hG4s11ZcvQqFXax4ZF1pMs+ZNkkn50NrZQi3QMVTiB7/Iur5TTENXQsBcTaw6tkDxr3LR9WG1j0bZh112vz8GMnBGEGlVhEaDCHv2mbBltfLj/yC7H1c6ppb3uPq6kVpq370sAHEq3/JyL9tLMQ5c/zbPaqxhIHumUlRMWfIxah9e+rOKyMTwS7qKgKSvtErUIrZul+fJw6iFAApH03v/noQ==","691f8ca61c6b4dcbb0aeb5f4","691fc22d9a314db2176a42dc","index1","<span style='color:red'>Fail,<span style='color:red'>Fail,<span style='color:green'>Lift,<span style='color:green'>Lift,<span style='color:red'>Fail,<span style='color:red'>Fail,<span style='color:red'>Fail,<span style='color:red'>Fail,<span style='color:red'>Fail,<span style='color:green'>Lift,<span style='color:green'>Lift,<span style='color:red'>Fail","<span style='color:red'>Fail,<span style='color:red'>Fail,<span style='color:green'>Lift,<span style='color:green'>Lift,<span style='color:green'>Lift,<span style='color:green'>Lift,<span style='color:red'>Fail,<span style='color:green'>Lift,<span style='color:green'>Lift,<span style='color:green'>Lift,<span style='color:green'>Lift,<span style='color:red'>Fail","<span style='color:red'>Fail,<span style='color:green'>Lift,<span style='color:green'>Lift,<span style='color:red'>Fail,<span style='color:green'>Lift,<span style='color:green'>Lift","0,0,1,1,0,0,0,0,0,1,1,0","0,0,1,1,1,1,0,1,1,1,1,0","0,1,1,0,1,1",10,20,20,"","","","","{""Q0"":""I rated the probability of each contestant lifting boxes.""}","",NA,NA,"",NA,NA,NA,NA,NA,NA,NA,NA,NA,NA,NA,NA,NA,NA,NA,NA,NA,NA,NA,NA,NA,NA,NA,NA,NA,NA,NA,NA,NA,NA,NA,NA,NA,NA,NA,NA,NA,NA,NA,"",NA,NA,NA,NA,NA,NA,NA,NA,2025-11-21 01:50:38
"10188.899999976158","https://psyc-201.github.io/xiang2023/exp/index1.html?PROLIFIC_PID=REDACTED&STUDY_ID=691f8ca61c6b4dcbb0aeb5f4&SESSION_ID=691fc22d9a314db2176a42dc","survey-text",48,811567,"0.0-362.0","b2sRMBjYfhnM7h8uCAnGQyCGGQwEcvr7omltKmhqikjVCWLXYbroZcLJNvzCKD5jCbrhjXLXb1e3CMpmlRmYFNFWLmxwIEhmGj69g1HkttcXHeNh1Fhs/5PuFAH3I8hG4s11ZcvQqFXax4ZF1pMs+ZNkkn50NrZQi3QMVTiB7/Iur5TTENXQsBcTaw6tkDxr3LR9WG1j0bZh112vz8GMnBGEGlVhEaDCHv2mbBltfLj/yC7H1c6ppb3uPq6kVpq370sAHEq3/JyL9tLMQ5c/zbPaqxhIHumUlRMWfIxah9e+rOKyMTwS7qKgKSvtErUIrZul+fJw6iFAApH03v/noQ==","691f8ca61c6b4dcbb0aeb5f4","691fc22d9a314db2176a42dc","index1","<span style='color:red'>Fail,<span style='color:red'>Fail,<span style='color:green'>Lift,<span style='color:green'>Lift,<span style='color:red'>Fail,<span style='color:red'>Fail,<span style='color:red'>Fail,<span style='color:red'>Fail,<span style='color:red'>Fail,<span style='color:green'>Lift,<span style='color:green'>Lift,<span style='color:red'>Fail","<span style='color:red'>Fail,<span style='color:red'>Fail,<span style='color:green'>Lift,<span style='color:green'>Lift,<span style='color:green'>Lift,<span style='color:green'>Lift,<span style='color:red'>Fail,<span style='color:green'>Lift,<span style='color:green'>Lift,<span style='color:green'>Lift,<span style='color:green'>Lift,<span style='color:red'>Fail","<span style='color:red'>Fail,<span style='color:green'>Lift,<span style='color:green'>Lift,<span style='color:red'>Fail,<span style='color:green'>Lift,<span style='color:green'>Lift","0,0,1,1,0,0,0,0,0,1,1,0","0,0,1,1,1,1,0,1,1,1,1,0","0,1,1,0,1,1",10,20,20,"","","","","{""Q0"":""""}","",NA,NA,"",NA,NA,NA,NA,NA,NA,NA,NA,NA,NA,NA,NA,NA,NA,NA,NA,NA,NA,NA,NA,NA,NA,NA,NA,NA,NA,NA,NA,NA,NA,NA,NA,NA,NA,NA,NA,NA,NA,NA,"[{""event"":""fullscreenenter"",""trial"":1,""time"":31542}]",2,3,NA,75,1,0.75,NA,NA,2025-11-21 01:50:38
"8127.099999904633","https://psyc-201.github.io/xiang2023/exp/index1.html?PROLIFIC_PID=REDACTED&STUDY_ID=691f8ca61c6b4dcbb0aeb5f4&SESSION_ID=691fc22d9a314db2176a42dc","html-button-response",49,819697,"0.0-363.0","b2sRMBjYfhnM7h8uCAnGQyCGGQwEcvr7omltKmhqikjVCWLXYbroZcLJNvzCKD5jCbrhjXLXb1e3CMpmlRmYFNFWLmxwIEhmGj69g1HkttcXHeNh1Fhs/5PuFAH3I8hG4s11ZcvQqFXax4ZF1pMs+ZNkkn50NrZQi3QMVTiB7/Iur5TTENXQsBcTaw6tkDxr3LR9WG1j0bZh112vz8GMnBGEGlVhEaDCHv2mbBltfLj/yC7H1c6ppb3uPq6kVpq370sAHEq3/JyL9tLMQ5c/zbPaqxhIHumUlRMWfIxah9e+rOKyMTwS7qKgKSvtErUIrZul+fJw6iFAApH03v/noQ==","691f8ca61c6b4dcbb0aeb5f4","691fc22d9a314db2176a42dc","index1","<span style='color:red'>Fail,<span style='color:red'>Fail,<span style='color:green'>Lift,<span style='color:green'>Lift,<span style='color:red'>Fail,<span style='color:red'>Fail,<span style='color:red'>Fail,<span style='color:red'>Fail,<span style='color:red'>Fail,<span style='color:green'>Lift,<span style='color:green'>Lift,<span style='color:red'>Fail","<span style='color:red'>Fail,<span style='color:red'>Fail,<span style='color:green'>Lift,<span style='color:green'>Lift,<span style='color:green'>Lift,<span style='color:green'>Lift,<span style='color:red'>Fail,<span style='color:green'>Lift,<span style='color:green'>Lift,<span style='color:green'>Lift,<span style='color:green'>Lift,<span style='color:red'>Fail","<span style='color:red'>Fail,<span style='color:green'>Lift,<span style='color:green'>Lift,<span style='color:red'>Fail,<span style='color:green'>Lift,<span style='color:green'>Lift","0,0,1,1,0,0,0,0,0,1,1,0","0,0,1,1,1,1,0,1,1,1,1,0","0,1,1,0,1,1",10,20,20,"","","<p> We randomly picked <b>Contest 2, Round 3</b> to calculate your bonus. </p><p> The outcome of Contestant C and D on that round is <span style='color:green'>Lift</span>. </p><p> The probability you entered was 75. </p><p><b> You won a bonus of $0.75!</b></p><p> IMPORTANT: Please click 'Next' to complete the game. </p>","","","",0,NA,"",NA,NA,NA,NA,NA,NA,NA,NA,NA,NA,NA,NA,NA,NA,NA,NA,NA,NA,NA,NA,NA,NA,NA,NA,NA,NA,NA,NA,NA,NA,NA,NA,NA,NA,NA,NA,NA,NA,NA,"",NA,NA,NA,NA,NA,NA,2,1,2025-11-21 01:50:38
