"rt","url","trial_type","trial_index","time_elapsed","internal_node_id","encryptedProlificId","studyId","sessionId","expIndex","round1_outcomes","round2_outcomes","round3_outcomes","round1_o","round2_o","round3_o","round1_reward","round2_reward","round3_reward","success","view_history","stimulus","key_press","responses","question_order","button_pressed","j","Stage","stage","contest","round","strength_a","strength_b","effort_a","effort_b","outcome_a","outcome_b","reward","r1_strength_a","r1_strength_b","r1_effort_a","r1_effort_b","r1_outcome_a","r1_outcome_b","r1_reward","probability_a","probability_b","r2_prob_a","r2_prob_b","r2_strength_a","r2_strength_b","r2_effort_a","r2_effort_b","r2_outcome_a","r2_outcome_b","r2_reward","r3_prob_a","r3_prob_b","attention_check","count","r3_strength_a","r3_strength_b","r3_outcome_a","r3_outcome_b","r3_reward","r3_effort_a","r3_effort_b","screen","pick_contest","pick_round","pick_side","trial_probability","trial_outcome","bonus","attention_sum","attention","datapipe_meta.attributes.date_modified"
"5546.700000000186","https://psyc-201.github.io/xiang2023/exp/index1.html?PROLIFIC_PID=REDACTED&STUDY_ID=691f8ca61c6b4dcbb0aeb5f4&SESSION_ID=691fb4271f4655b50de8175a","external-html",0,5575,"0.0-0.0","EV0xadaJJmQ7ZpX+0rG/e4STqkpPPsbtWSSGt1k5SAIhQJPNW64IzXPtTvu9NTUkl+N32tLgjdrtxuB9y8p89nMdmaz0tEWbX43uTqDJR6q1MgbZ4e5saW9M76CDCRbhC0prGMErHPQDodyiKA84fpHw9ppcQYxCsM+xjhMms3LnshGFsyRJ/ovgF7M+odOLVYHUqRTxqPHo98WbScNF+uBohnzRwEb7j5yzzeyvd1YJhuvoWJEDVEV7ohIJ5msbk1ZMXpukhJeNDO/IR197VTFnOaA039+NLO8ftQFdpKzDPlFr5ikZx4IUikH5+k+TpUIq9VG+jBuc1TJDHoaJhw==","691f8ca61c6b4dcbb0aeb5f4","691fb4271f4655b50de8175a","index1","<span style='color:red'>Fail,<span style='color:red'>Fail,<span style='color:green'>Lift,<span style='color:green'>Lift,<span style='color:red'>Fail,<span style='color:red'>Fail,<span style='color:red'>Fail,<span style='color:red'>Fail,<span style='color:green'>Lift,<span style='color:red'>Fail,<span style='color:green'>Lift,<span style='color:red'>Fail","<span style='color:red'>Fail,<span style='color:red'>Fail,<span style='color:green'>Lift,<span style='color:green'>Lift,<span style='color:green'>Lift,<span style='color:green'>Lift,<span style='color:green'>Lift,<span style='color:red'>Fail,<span style='color:green'>Lift,<span style='color:green'>Lift,<span style='color:green'>Lift,<span style='color:red'>Fail","<span style='color:red'>Fail,<span style='color:green'>Lift,<span style='color:green'>Lift,<span style='color:red'>Fail,<span style='color:green'>Lift,<span style='color:green'>Lift","0,0,1,1,0,0,0,0,1,0,1,0","0,0,1,1,1,1,1,0,1,1,1,0","0,1,1,0,1,1",10,20,20,"","","","","","",NA,NA,"",NA,NA,NA,NA,NA,NA,NA,NA,NA,NA,NA,NA,NA,NA,NA,NA,NA,NA,NA,NA,NA,NA,NA,NA,NA,NA,NA,NA,NA,NA,NA,NA,NA,NA,NA,NA,NA,NA,NA,"",NA,NA,NA,NA,NA,NA,NA,NA,2025-11-21 00:46:46
"","https://psyc-201.github.io/xiang2023/exp/index1.html?PROLIFIC_PID=REDACTED&STUDY_ID=691f8ca61c6b4dcbb0aeb5f4&SESSION_ID=691fb4271f4655b50de8175a","fullscreen",1,8603,"0.0-1.0","EV0xadaJJmQ7ZpX+0rG/e4STqkpPPsbtWSSGt1k5SAIhQJPNW64IzXPtTvu9NTUkl+N32tLgjdrtxuB9y8p89nMdmaz0tEWbX43uTqDJR6q1MgbZ4e5saW9M76CDCRbhC0prGMErHPQDodyiKA84fpHw9ppcQYxCsM+xjhMms3LnshGFsyRJ/ovgF7M+odOLVYHUqRTxqPHo98WbScNF+uBohnzRwEb7j5yzzeyvd1YJhuvoWJEDVEV7ohIJ5msbk1ZMXpukhJeNDO/IR197VTFnOaA039+NLO8ftQFdpKzDPlFr5ikZx4IUikH5+k+TpUIq9VG+jBuc1TJDHoaJhw==","691f8ca61c6b4dcbb0aeb5f4","691fb4271f4655b50de8175a","index1","<span style='color:red'>Fail,<span style='color:red'>Fail,<span style='color:green'>Lift,<span style='color:green'>Lift,<span style='color:red'>Fail,<span style='color:red'>Fail,<span style='color:red'>Fail,<span style='color:red'>Fail,<span style='color:green'>Lift,<span style='color:red'>Fail,<span style='color:green'>Lift,<span style='color:red'>Fail","<span style='color:red'>Fail,<span style='color:red'>Fail,<span style='color:green'>Lift,<span style='color:green'>Lift,<span style='color:green'>Lift,<span style='color:green'>Lift,<span style='color:green'>Lift,<span style='color:red'>Fail,<span style='color:green'>Lift,<span style='color:green'>Lift,<span style='color:green'>Lift,<span style='color:red'>Fail","<span style='color:red'>Fail,<span style='color:green'>Lift,<span style='color:green'>Lift,<span style='color:red'>Fail,<span style='color:green'>Lift,<span style='color:green'>Lift","0,0,1,1,0,0,0,0,1,0,1,0","0,0,1,1,1,1,1,0,1,1,1,0","0,1,1,0,1,1",10,20,20,"true","","","","","",NA,NA,"",NA,NA,NA,NA,NA,NA,NA,NA,NA,NA,NA,NA,NA,NA,NA,NA,NA,NA,NA,NA,NA,NA,NA,NA,NA,NA,NA,NA,NA,NA,NA,NA,NA,NA,NA,NA,NA,NA,NA,"",NA,NA,NA,NA,NA,NA,NA,NA,2025-11-21 00:46:46
"89135.90000000037","https://psyc-201.github.io/xiang2023/exp/index1.html?PROLIFIC_PID=REDACTED&STUDY_ID=691f8ca61c6b4dcbb0aeb5f4&SESSION_ID=691fb4271f4655b50de8175a","instructions",2,97740,"0.0-2.0","EV0xadaJJmQ7ZpX+0rG/e4STqkpPPsbtWSSGt1k5SAIhQJPNW64IzXPtTvu9NTUkl+N32tLgjdrtxuB9y8p89nMdmaz0tEWbX43uTqDJR6q1MgbZ4e5saW9M76CDCRbhC0prGMErHPQDodyiKA84fpHw9ppcQYxCsM+xjhMms3LnshGFsyRJ/ovgF7M+odOLVYHUqRTxqPHo98WbScNF+uBohnzRwEb7j5yzzeyvd1YJhuvoWJEDVEV7ohIJ5msbk1ZMXpukhJeNDO/IR197VTFnOaA039+NLO8ftQFdpKzDPlFr5ikZx4IUikH5+k+TpUIq9VG+jBuc1TJDHoaJhw==","691f8ca61c6b4dcbb0aeb5f4","691fb4271f4655b50de8175a","index1","<span style='color:red'>Fail,<span style='color:red'>Fail,<span style='color:green'>Lift,<span style='color:green'>Lift,<span style='color:red'>Fail,<span style='color:red'>Fail,<span style='color:red'>Fail,<span style='color:red'>Fail,<span style='color:green'>Lift,<span style='color:red'>Fail,<span style='color:green'>Lift,<span style='color:red'>Fail","<span style='color:red'>Fail,<span style='color:red'>Fail,<span style='color:green'>Lift,<span style='color:green'>Lift,<span style='color:green'>Lift,<span style='color:green'>Lift,<span style='color:green'>Lift,<span style='color:red'>Fail,<span style='color:green'>Lift,<span style='color:green'>Lift,<span style='color:green'>Lift,<span style='color:red'>Fail","<span style='color:red'>Fail,<span style='color:green'>Lift,<span style='color:green'>Lift,<span style='color:red'>Fail,<span style='color:green'>Lift,<span style='color:green'>Lift","0,0,1,1,0,0,0,0,1,0,1,0","0,0,1,1,1,1,1,0,1,1,1,0","0,1,1,0,1,1",10,20,20,"","[{""page_index"":0,""viewing_time"":14245.900000000373},{""page_index"":1,""viewing_time"":16845.700000000186},{""page_index"":2,""viewing_time"":9563.799999999814},{""page_index"":3,""viewing_time"":17568.099999999627},{""page_index"":4,""viewing_time"":9836.100000000559},{""page_index"":5,""viewing_time"":13388.099999999627},{""page_index"":6,""viewing_time"":7687.9000000003725}]","","","","",NA,NA,"",NA,NA,NA,NA,NA,NA,NA,NA,NA,NA,NA,NA,NA,NA,NA,NA,NA,NA,NA,NA,NA,NA,NA,NA,NA,NA,NA,NA,NA,NA,NA,NA,NA,NA,NA,NA,NA,NA,NA,"",NA,NA,NA,NA,NA,NA,NA,NA,2025-11-21 00:46:46
"null","https://psyc-201.github.io/xiang2023/exp/index1.html?PROLIFIC_PID=REDACTED&STUDY_ID=691f8ca61c6b4dcbb0aeb5f4&SESSION_ID=691fb4271f4655b50de8175a","html-keyboard-response",3,98744,"0.0-3.0","EV0xadaJJmQ7ZpX+0rG/e4STqkpPPsbtWSSGt1k5SAIhQJPNW64IzXPtTvu9NTUkl+N32tLgjdrtxuB9y8p89nMdmaz0tEWbX43uTqDJR6q1MgbZ4e5saW9M76CDCRbhC0prGMErHPQDodyiKA84fpHw9ppcQYxCsM+xjhMms3LnshGFsyRJ/ovgF7M+odOLVYHUqRTxqPHo98WbScNF+uBohnzRwEb7j5yzzeyvd1YJhuvoWJEDVEV7ohIJ5msbk1ZMXpukhJeNDO/IR197VTFnOaA039+NLO8ftQFdpKzDPlFr5ikZx4IUikH5+k+TpUIq9VG+jBuc1TJDHoaJhw==","691f8ca61c6b4dcbb0aeb5f4","691fb4271f4655b50de8175a","index1","<span style='color:red'>Fail,<span style='color:red'>Fail,<span style='color:green'>Lift,<span style='color:green'>Lift,<span style='color:red'>Fail,<span style='color:red'>Fail,<span style='color:red'>Fail,<span style='color:red'>Fail,<span style='color:green'>Lift,<span style='color:red'>Fail,<span style='color:green'>Lift,<span style='color:red'>Fail","<span style='color:red'>Fail,<span style='color:red'>Fail,<span style='color:green'>Lift,<span style='color:green'>Lift,<span style='color:green'>Lift,<span style='color:green'>Lift,<span style='color:green'>Lift,<span style='color:red'>Fail,<span style='color:green'>Lift,<span style='color:green'>Lift,<span style='color:green'>Lift,<span style='color:red'>Fail","<span style='color:red'>Fail,<span style='color:green'>Lift,<span style='color:green'>Lift,<span style='color:red'>Fail,<span style='color:green'>Lift,<span style='color:green'>Lift","0,0,1,1,0,0,0,0,1,0,1,0","0,0,1,1,1,1,1,0,1,1,1,0","0,1,1,0,1,1",10,20,20,"",""," ","null","","",NA,NA,"",NA,NA,NA,NA,NA,NA,NA,NA,NA,NA,NA,NA,NA,NA,NA,NA,NA,NA,NA,NA,NA,NA,NA,NA,NA,NA,NA,NA,NA,NA,NA,NA,NA,NA,NA,NA,NA,NA,NA,"",NA,NA,NA,NA,NA,NA,NA,NA,2025-11-21 00:46:46
"34065.5","https://psyc-201.github.io/xiang2023/exp/index1.html?PROLIFIC_PID=REDACTED&STUDY_ID=691f8ca61c6b4dcbb0aeb5f4&SESSION_ID=691fb4271f4655b50de8175a","survey-multi-choice",4,132813,"0.0-4.0","EV0xadaJJmQ7ZpX+0rG/e4STqkpPPsbtWSSGt1k5SAIhQJPNW64IzXPtTvu9NTUkl+N32tLgjdrtxuB9y8p89nMdmaz0tEWbX43uTqDJR6q1MgbZ4e5saW9M76CDCRbhC0prGMErHPQDodyiKA84fpHw9ppcQYxCsM+xjhMms3LnshGFsyRJ/ovgF7M+odOLVYHUqRTxqPHo98WbScNF+uBohnzRwEb7j5yzzeyvd1YJhuvoWJEDVEV7ohIJ5msbk1ZMXpukhJeNDO/IR197VTFnOaA039+NLO8ftQFdpKzDPlFr5ikZx4IUikH5+k+TpUIq9VG+jBuc1TJDHoaJhw==","691f8ca61c6b4dcbb0aeb5f4","691fb4271f4655b50de8175a","index1","<span style='color:red'>Fail,<span style='color:red'>Fail,<span style='color:green'>Lift,<span style='color:green'>Lift,<span style='color:red'>Fail,<span style='color:red'>Fail,<span style='color:red'>Fail,<span style='color:red'>Fail,<span style='color:green'>Lift,<span style='color:red'>Fail,<span style='color:green'>Lift,<span style='color:red'>Fail","<span style='color:red'>Fail,<span style='color:red'>Fail,<span style='color:green'>Lift,<span style='color:green'>Lift,<span style='color:green'>Lift,<span style='color:green'>Lift,<span style='color:green'>Lift,<span style='color:red'>Fail,<span style='color:green'>Lift,<span style='color:green'>Lift,<span style='color:green'>Lift,<span style='color:red'>Fail","<span style='color:red'>Fail,<span style='color:green'>Lift,<span style='color:green'>Lift,<span style='color:red'>Fail,<span style='color:green'>Lift,<span style='color:green'>Lift","0,0,1,1,0,0,0,0,1,0,1,0","0,0,1,1,1,1,1,0,1,1,1,0","0,1,1,0,1,1",10,20,20,"","","","","{""Q0"":""It consists of multiple contests, each contest with three rounds."",""Q1"":""When a new round starts."",""Q2"":""The box weight always stays the same (equivalent to strength of 5)."",""Q3"":""Each will get $20."",""Q4"":""How close my guesses are to the actual outcome.""}","[0,1,2,3,4]",NA,NA,"",NA,NA,NA,NA,NA,NA,NA,NA,NA,NA,NA,NA,NA,NA,NA,NA,NA,NA,NA,NA,NA,NA,NA,NA,NA,NA,NA,NA,NA,NA,NA,NA,NA,NA,NA,NA,NA,NA,NA,"",NA,NA,NA,NA,NA,NA,NA,NA,2025-11-21 00:46:46
"2998.800000000745","https://psyc-201.github.io/xiang2023/exp/index1.html?PROLIFIC_PID=REDACTED&STUDY_ID=691f8ca61c6b4dcbb0aeb5f4&SESSION_ID=691fb4271f4655b50de8175a","html-button-response",5,135814,"0.0-5.0-1.0","EV0xadaJJmQ7ZpX+0rG/e4STqkpPPsbtWSSGt1k5SAIhQJPNW64IzXPtTvu9NTUkl+N32tLgjdrtxuB9y8p89nMdmaz0tEWbX43uTqDJR6q1MgbZ4e5saW9M76CDCRbhC0prGMErHPQDodyiKA84fpHw9ppcQYxCsM+xjhMms3LnshGFsyRJ/ovgF7M+odOLVYHUqRTxqPHo98WbScNF+uBohnzRwEb7j5yzzeyvd1YJhuvoWJEDVEV7ohIJ5msbk1ZMXpukhJeNDO/IR197VTFnOaA039+NLO8ftQFdpKzDPlFr5ikZx4IUikH5+k+TpUIq9VG+jBuc1TJDHoaJhw==","691f8ca61c6b4dcbb0aeb5f4","691fb4271f4655b50de8175a","index1","<span style='color:red'>Fail,<span style='color:red'>Fail,<span style='color:green'>Lift,<span style='color:green'>Lift,<span style='color:red'>Fail,<span style='color:red'>Fail,<span style='color:red'>Fail,<span style='color:red'>Fail,<span style='color:green'>Lift,<span style='color:red'>Fail,<span style='color:green'>Lift,<span style='color:red'>Fail","<span style='color:red'>Fail,<span style='color:red'>Fail,<span style='color:green'>Lift,<span style='color:green'>Lift,<span style='color:green'>Lift,<span style='color:green'>Lift,<span style='color:green'>Lift,<span style='color:red'>Fail,<span style='color:green'>Lift,<span style='color:green'>Lift,<span style='color:green'>Lift,<span style='color:red'>Fail","<span style='color:red'>Fail,<span style='color:green'>Lift,<span style='color:green'>Lift,<span style='color:red'>Fail,<span style='color:green'>Lift,<span style='color:green'>Lift","0,0,1,1,0,0,0,0,1,0,1,0","0,0,1,1,1,1,1,0,1,1,1,0","0,1,1,0,1,1",10,20,20,"","","<p> Oops! You did not pass the comprehension check. <b>Please note that you have only 1 attempt(s) left.</b> </p>","","","",1,NA,"",NA,NA,NA,NA,NA,NA,NA,NA,NA,NA,NA,NA,NA,NA,NA,NA,NA,NA,NA,NA,NA,NA,NA,NA,NA,NA,NA,NA,NA,NA,NA,NA,NA,NA,NA,NA,NA,NA,NA,"",NA,NA,NA,NA,NA,NA,NA,NA,2025-11-21 00:46:46
"57525.09999999963","https://psyc-201.github.io/xiang2023/exp/index1.html?PROLIFIC_PID=REDACTED&STUDY_ID=691f8ca61c6b4dcbb0aeb5f4&SESSION_ID=691fb4271f4655b50de8175a","instructions",6,193339,"0.0-6.0-0.0","EV0xadaJJmQ7ZpX+0rG/e4STqkpPPsbtWSSGt1k5SAIhQJPNW64IzXPtTvu9NTUkl+N32tLgjdrtxuB9y8p89nMdmaz0tEWbX43uTqDJR6q1MgbZ4e5saW9M76CDCRbhC0prGMErHPQDodyiKA84fpHw9ppcQYxCsM+xjhMms3LnshGFsyRJ/ovgF7M+odOLVYHUqRTxqPHo98WbScNF+uBohnzRwEb7j5yzzeyvd1YJhuvoWJEDVEV7ohIJ5msbk1ZMXpukhJeNDO/IR197VTFnOaA039+NLO8ftQFdpKzDPlFr5ikZx4IUikH5+k+TpUIq9VG+jBuc1TJDHoaJhw==","691f8ca61c6b4dcbb0aeb5f4","691fb4271f4655b50de8175a","index1","<span style='color:red'>Fail,<span style='color:red'>Fail,<span style='color:green'>Lift,<span style='color:green'>Lift,<span style='color:red'>Fail,<span style='color:red'>Fail,<span style='color:red'>Fail,<span style='color:red'>Fail,<span style='color:green'>Lift,<span style='color:red'>Fail,<span style='color:green'>Lift,<span style='color:red'>Fail","<span style='color:red'>Fail,<span style='color:red'>Fail,<span style='color:green'>Lift,<span style='color:green'>Lift,<span style='color:green'>Lift,<span style='color:green'>Lift,<span style='color:green'>Lift,<span style='color:red'>Fail,<span style='color:green'>Lift,<span style='color:green'>Lift,<span style='color:green'>Lift,<span style='color:red'>Fail","<span style='color:red'>Fail,<span style='color:green'>Lift,<span style='color:green'>Lift,<span style='color:red'>Fail,<span style='color:green'>Lift,<span style='color:green'>Lift","0,0,1,1,0,0,0,0,1,0,1,0","0,0,1,1,1,1,1,0,1,1,1,0","0,1,1,0,1,1",10,20,20,"","[{""page_index"":0,""viewing_time"":11107},{""page_index"":1,""viewing_time"":7608},{""page_index"":2,""viewing_time"":8324},{""page_index"":3,""viewing_time"":8890},{""page_index"":4,""viewing_time"":5041.699999999255},{""page_index"":5,""viewing_time"":14046.200000000186},{""page_index"":6,""viewing_time"":2508}]","","","","",NA,NA,"",NA,NA,NA,NA,NA,NA,NA,NA,NA,NA,NA,NA,NA,NA,NA,NA,NA,NA,NA,NA,NA,NA,NA,NA,NA,NA,NA,NA,NA,NA,NA,NA,NA,NA,NA,NA,NA,NA,NA,"",NA,NA,NA,NA,NA,NA,NA,NA,2025-11-21 00:46:46
"null","https://psyc-201.github.io/xiang2023/exp/index1.html?PROLIFIC_PID=REDACTED&STUDY_ID=691f8ca61c6b4dcbb0aeb5f4&SESSION_ID=691fb4271f4655b50de8175a","html-keyboard-response",7,194348,"0.0-6.0-1.0","EV0xadaJJmQ7ZpX+0rG/e4STqkpPPsbtWSSGt1k5SAIhQJPNW64IzXPtTvu9NTUkl+N32tLgjdrtxuB9y8p89nMdmaz0tEWbX43uTqDJR6q1MgbZ4e5saW9M76CDCRbhC0prGMErHPQDodyiKA84fpHw9ppcQYxCsM+xjhMms3LnshGFsyRJ/ovgF7M+odOLVYHUqRTxqPHo98WbScNF+uBohnzRwEb7j5yzzeyvd1YJhuvoWJEDVEV7ohIJ5msbk1ZMXpukhJeNDO/IR197VTFnOaA039+NLO8ftQFdpKzDPlFr5ikZx4IUikH5+k+TpUIq9VG+jBuc1TJDHoaJhw==","691f8ca61c6b4dcbb0aeb5f4","691fb4271f4655b50de8175a","index1","<span style='color:red'>Fail,<span style='color:red'>Fail,<span style='color:green'>Lift,<span style='color:green'>Lift,<span style='color:red'>Fail,<span style='color:red'>Fail,<span style='color:red'>Fail,<span style='color:red'>Fail,<span style='color:green'>Lift,<span style='color:red'>Fail,<span style='color:green'>Lift,<span style='color:red'>Fail","<span style='color:red'>Fail,<span style='color:red'>Fail,<span style='color:green'>Lift,<span style='color:green'>Lift,<span style='color:green'>Lift,<span style='color:green'>Lift,<span style='color:green'>Lift,<span style='color:red'>Fail,<span style='color:green'>Lift,<span style='color:green'>Lift,<span style='color:green'>Lift,<span style='color:red'>Fail","<span style='color:red'>Fail,<span style='color:green'>Lift,<span style='color:green'>Lift,<span style='color:red'>Fail,<span style='color:green'>Lift,<span style='color:green'>Lift","0,0,1,1,0,0,0,0,1,0,1,0","0,0,1,1,1,1,1,0,1,1,1,0","0,1,1,0,1,1",10,20,20,"",""," ","null","","",NA,NA,"",NA,NA,NA,NA,NA,NA,NA,NA,NA,NA,NA,NA,NA,NA,NA,NA,NA,NA,NA,NA,NA,NA,NA,NA,NA,NA,NA,NA,NA,NA,NA,NA,NA,NA,NA,NA,NA,NA,NA,"",NA,NA,NA,NA,NA,NA,NA,NA,2025-11-21 00:46:46
"23520.89999999944","https://psyc-201.github.io/xiang2023/exp/index1.html?PROLIFIC_PID=REDACTED&STUDY_ID=691f8ca61c6b4dcbb0aeb5f4&SESSION_ID=691fb4271f4655b50de8175a","survey-multi-choice",8,217871,"0.0-7.0-0.0","EV0xadaJJmQ7ZpX+0rG/e4STqkpPPsbtWSSGt1k5SAIhQJPNW64IzXPtTvu9NTUkl+N32tLgjdrtxuB9y8p89nMdmaz0tEWbX43uTqDJR6q1MgbZ4e5saW9M76CDCRbhC0prGMErHPQDodyiKA84fpHw9ppcQYxCsM+xjhMms3LnshGFsyRJ/ovgF7M+odOLVYHUqRTxqPHo98WbScNF+uBohnzRwEb7j5yzzeyvd1YJhuvoWJEDVEV7ohIJ5msbk1ZMXpukhJeNDO/IR197VTFnOaA039+NLO8ftQFdpKzDPlFr5ikZx4IUikH5+k+TpUIq9VG+jBuc1TJDHoaJhw==","691f8ca61c6b4dcbb0aeb5f4","691fb4271f4655b50de8175a","index1","<span style='color:red'>Fail,<span style='color:red'>Fail,<span style='color:green'>Lift,<span style='color:green'>Lift,<span style='color:red'>Fail,<span style='color:red'>Fail,<span style='color:red'>Fail,<span style='color:red'>Fail,<span style='color:green'>Lift,<span style='color:red'>Fail,<span style='color:green'>Lift,<span style='color:red'>Fail","<span style='color:red'>Fail,<span style='color:red'>Fail,<span style='color:green'>Lift,<span style='color:green'>Lift,<span style='color:green'>Lift,<span style='color:green'>Lift,<span style='color:green'>Lift,<span style='color:red'>Fail,<span style='color:green'>Lift,<span style='color:green'>Lift,<span style='color:green'>Lift,<span style='color:red'>Fail","<span style='color:red'>Fail,<span style='color:green'>Lift,<span style='color:green'>Lift,<span style='color:red'>Fail,<span style='color:green'>Lift,<span style='color:green'>Lift","0,0,1,1,0,0,0,0,1,0,1,0","0,0,1,1,1,1,1,0,1,1,1,0","0,1,1,0,1,1",10,20,20,"","","","","{""Q0"":""It consists of multiple contests, each contest with three rounds."",""Q1"":""When a new contest begins."",""Q2"":""The box weight always stays the same (equivalent to strength of 5)."",""Q3"":""Each will get $20."",""Q4"":""How close my guesses are to the actual outcome.""}","[0,1,2,3,4]",NA,NA,"",NA,NA,NA,NA,NA,NA,NA,NA,NA,NA,NA,NA,NA,NA,NA,NA,NA,NA,NA,NA,NA,NA,NA,NA,NA,NA,NA,NA,NA,NA,NA,NA,NA,NA,NA,NA,NA,NA,NA,"",NA,NA,NA,NA,NA,NA,NA,NA,2025-11-21 00:46:46
"10665.700000000186","https://psyc-201.github.io/xiang2023/exp/index1.html?PROLIFIC_PID=REDACTED&STUDY_ID=691f8ca61c6b4dcbb0aeb5f4&SESSION_ID=691fb4271f4655b50de8175a","instructions",9,228543,"0.0-305.0","EV0xadaJJmQ7ZpX+0rG/e4STqkpPPsbtWSSGt1k5SAIhQJPNW64IzXPtTvu9NTUkl+N32tLgjdrtxuB9y8p89nMdmaz0tEWbX43uTqDJR6q1MgbZ4e5saW9M76CDCRbhC0prGMErHPQDodyiKA84fpHw9ppcQYxCsM+xjhMms3LnshGFsyRJ/ovgF7M+odOLVYHUqRTxqPHo98WbScNF+uBohnzRwEb7j5yzzeyvd1YJhuvoWJEDVEV7ohIJ5msbk1ZMXpukhJeNDO/IR197VTFnOaA039+NLO8ftQFdpKzDPlFr5ikZx4IUikH5+k+TpUIq9VG+jBuc1TJDHoaJhw==","691f8ca61c6b4dcbb0aeb5f4","691fb4271f4655b50de8175a","index1","<span style='color:red'>Fail,<span style='color:red'>Fail,<span style='color:green'>Lift,<span style='color:green'>Lift,<span style='color:red'>Fail,<span style='color:red'>Fail,<span style='color:red'>Fail,<span style='color:red'>Fail,<span style='color:green'>Lift,<span style='color:red'>Fail,<span style='color:green'>Lift,<span style='color:red'>Fail","<span style='color:red'>Fail,<span style='color:red'>Fail,<span style='color:green'>Lift,<span style='color:green'>Lift,<span style='color:green'>Lift,<span style='color:green'>Lift,<span style='color:green'>Lift,<span style='color:red'>Fail,<span style='color:green'>Lift,<span style='color:green'>Lift,<span style='color:green'>Lift,<span style='color:red'>Fail","<span style='color:red'>Fail,<span style='color:green'>Lift,<span style='color:green'>Lift,<span style='color:red'>Fail,<span style='color:green'>Lift,<span style='color:green'>Lift","0,0,1,1,0,0,0,0,1,0,1,0","0,0,1,1,1,1,1,0,1,1,1,0","0,1,1,0,1,1",10,20,20,"","[{""page_index"":0,""viewing_time"":6668},{""page_index"":1,""viewing_time"":3997.5}]","","","","",NA,NA,"",NA,NA,NA,NA,NA,NA,NA,NA,NA,NA,NA,NA,NA,NA,NA,NA,NA,NA,NA,NA,NA,NA,NA,NA,NA,NA,NA,NA,NA,NA,NA,NA,NA,NA,NA,NA,NA,NA,NA,"",NA,NA,NA,NA,NA,NA,NA,NA,2025-11-21 00:46:46
"null","https://psyc-201.github.io/xiang2023/exp/index1.html?PROLIFIC_PID=REDACTED&STUDY_ID=691f8ca61c6b4dcbb0aeb5f4&SESSION_ID=691fb4271f4655b50de8175a","html-keyboard-response",10,229556,"0.0-306.0","EV0xadaJJmQ7ZpX+0rG/e4STqkpPPsbtWSSGt1k5SAIhQJPNW64IzXPtTvu9NTUkl+N32tLgjdrtxuB9y8p89nMdmaz0tEWbX43uTqDJR6q1MgbZ4e5saW9M76CDCRbhC0prGMErHPQDodyiKA84fpHw9ppcQYxCsM+xjhMms3LnshGFsyRJ/ovgF7M+odOLVYHUqRTxqPHo98WbScNF+uBohnzRwEb7j5yzzeyvd1YJhuvoWJEDVEV7ohIJ5msbk1ZMXpukhJeNDO/IR197VTFnOaA039+NLO8ftQFdpKzDPlFr5ikZx4IUikH5+k+TpUIq9VG+jBuc1TJDHoaJhw==","691f8ca61c6b4dcbb0aeb5f4","691fb4271f4655b50de8175a","index1","<span style='color:red'>Fail,<span style='color:red'>Fail,<span style='color:green'>Lift,<span style='color:green'>Lift,<span style='color:red'>Fail,<span style='color:red'>Fail,<span style='color:red'>Fail,<span style='color:red'>Fail,<span style='color:green'>Lift,<span style='color:red'>Fail,<span style='color:green'>Lift,<span style='color:red'>Fail","<span style='color:red'>Fail,<span style='color:red'>Fail,<span style='color:green'>Lift,<span style='color:green'>Lift,<span style='color:green'>Lift,<span style='color:green'>Lift,<span style='color:green'>Lift,<span style='color:red'>Fail,<span style='color:green'>Lift,<span style='color:green'>Lift,<span style='color:green'>Lift,<span style='color:red'>Fail","<span style='color:red'>Fail,<span style='color:green'>Lift,<span style='color:green'>Lift,<span style='color:red'>Fail,<span style='color:green'>Lift,<span style='color:green'>Lift","0,0,1,1,0,0,0,0,1,0,1,0","0,0,1,1,1,1,1,0,1,1,1,0","0,1,1,0,1,1",10,20,20,"",""," ","null","","",NA,1,"",NA,NA,NA,NA,NA,NA,NA,NA,NA,NA,NA,NA,NA,NA,NA,NA,NA,NA,NA,NA,NA,NA,NA,NA,NA,NA,NA,NA,NA,NA,NA,NA,NA,NA,NA,NA,NA,NA,NA,"",NA,NA,NA,NA,NA,NA,NA,NA,2025-11-21 00:46:46
"null","https://psyc-201.github.io/xiang2023/exp/index1.html?PROLIFIC_PID=REDACTED&STUDY_ID=691f8ca61c6b4dcbb0aeb5f4&SESSION_ID=691fb4271f4655b50de8175a","html-keyboard-response",11,232570,"0.0-307.0","EV0xadaJJmQ7ZpX+0rG/e4STqkpPPsbtWSSGt1k5SAIhQJPNW64IzXPtTvu9NTUkl+N32tLgjdrtxuB9y8p89nMdmaz0tEWbX43uTqDJR6q1MgbZ4e5saW9M76CDCRbhC0prGMErHPQDodyiKA84fpHw9ppcQYxCsM+xjhMms3LnshGFsyRJ/ovgF7M+odOLVYHUqRTxqPHo98WbScNF+uBohnzRwEb7j5yzzeyvd1YJhuvoWJEDVEV7ohIJ5msbk1ZMXpukhJeNDO/IR197VTFnOaA039+NLO8ftQFdpKzDPlFr5ikZx4IUikH5+k+TpUIq9VG+jBuc1TJDHoaJhw==","691f8ca61c6b4dcbb0aeb5f4","691fb4271f4655b50de8175a","index1","<span style='color:red'>Fail,<span style='color:red'>Fail,<span style='color:green'>Lift,<span style='color:green'>Lift,<span style='color:red'>Fail,<span style='color:red'>Fail,<span style='color:red'>Fail,<span style='color:red'>Fail,<span style='color:green'>Lift,<span style='color:red'>Fail,<span style='color:green'>Lift,<span style='color:red'>Fail","<span style='color:red'>Fail,<span style='color:red'>Fail,<span style='color:green'>Lift,<span style='color:green'>Lift,<span style='color:green'>Lift,<span style='color:green'>Lift,<span style='color:green'>Lift,<span style='color:red'>Fail,<span style='color:green'>Lift,<span style='color:green'>Lift,<span style='color:green'>Lift,<span style='color:red'>Fail","<span style='color:red'>Fail,<span style='color:green'>Lift,<span style='color:green'>Lift,<span style='color:red'>Fail,<span style='color:green'>Lift,<span style='color:green'>Lift","0,0,1,1,0,0,0,0,1,0,1,0","0,0,1,1,1,1,1,0,1,1,1,0","0,1,1,0,1,1",10,20,20,"","","<p style='font-size:30px'><b> New Contest! </b></p>","null","","",NA,1,"",NA,NA,NA,NA,NA,NA,NA,NA,NA,NA,NA,NA,NA,NA,NA,NA,NA,NA,NA,NA,NA,NA,NA,NA,NA,NA,NA,NA,NA,NA,NA,NA,NA,NA,NA,NA,NA,NA,NA,"",NA,NA,NA,NA,NA,NA,NA,NA,2025-11-21 00:46:46
"9186.5","https://psyc-201.github.io/xiang2023/exp/index1.html?PROLIFIC_PID=REDACTED&STUDY_ID=691f8ca61c6b4dcbb0aeb5f4&SESSION_ID=691fb4271f4655b50de8175a","survey-html-form",12,241762,"0.0-308.0","EV0xadaJJmQ7ZpX+0rG/e4STqkpPPsbtWSSGt1k5SAIhQJPNW64IzXPtTvu9NTUkl+N32tLgjdrtxuB9y8p89nMdmaz0tEWbX43uTqDJR6q1MgbZ4e5saW9M76CDCRbhC0prGMErHPQDodyiKA84fpHw9ppcQYxCsM+xjhMms3LnshGFsyRJ/ovgF7M+odOLVYHUqRTxqPHo98WbScNF+uBohnzRwEb7j5yzzeyvd1YJhuvoWJEDVEV7ohIJ5msbk1ZMXpukhJeNDO/IR197VTFnOaA039+NLO8ftQFdpKzDPlFr5ikZx4IUikH5+k+TpUIq9VG+jBuc1TJDHoaJhw==","691f8ca61c6b4dcbb0aeb5f4","691fb4271f4655b50de8175a","index1","<span style='color:red'>Fail,<span style='color:red'>Fail,<span style='color:green'>Lift,<span style='color:green'>Lift,<span style='color:red'>Fail,<span style='color:red'>Fail,<span style='color:red'>Fail,<span style='color:red'>Fail,<span style='color:green'>Lift,<span style='color:red'>Fail,<span style='color:green'>Lift,<span style='color:red'>Fail","<span style='color:red'>Fail,<span style='color:red'>Fail,<span style='color:green'>Lift,<span style='color:green'>Lift,<span style='color:green'>Lift,<span style='color:green'>Lift,<span style='color:green'>Lift,<span style='color:red'>Fail,<span style='color:green'>Lift,<span style='color:green'>Lift,<span style='color:green'>Lift,<span style='color:red'>Fail","<span style='color:red'>Fail,<span style='color:green'>Lift,<span style='color:green'>Lift,<span style='color:red'>Fail,<span style='color:green'>Lift,<span style='color:green'>Lift","0,0,1,1,0,0,0,0,1,0,1,0","0,0,1,1,1,1,1,0,1,1,1,0","0,1,1,0,1,1",10,20,20,"","","","","{""box1"":""2"",""box2"":""2""}","",NA,1,"round1_outcome",1,1,1,2,2,NA,NA,0,0,10,2,2,NA,NA,0,0,10,NA,NA,NA,NA,NA,NA,NA,NA,NA,NA,NA,NA,NA,NA,NA,NA,NA,NA,NA,NA,NA,NA,"",NA,NA,NA,NA,NA,NA,NA,NA,2025-11-21 00:46:46
"8428.099999999627","https://psyc-201.github.io/xiang2023/exp/index1.html?PROLIFIC_PID=REDACTED&STUDY_ID=691f8ca61c6b4dcbb0aeb5f4&SESSION_ID=691fb4271f4655b50de8175a","survey-html-form",13,250192,"0.0-309.0","EV0xadaJJmQ7ZpX+0rG/e4STqkpPPsbtWSSGt1k5SAIhQJPNW64IzXPtTvu9NTUkl+N32tLgjdrtxuB9y8p89nMdmaz0tEWbX43uTqDJR6q1MgbZ4e5saW9M76CDCRbhC0prGMErHPQDodyiKA84fpHw9ppcQYxCsM+xjhMms3LnshGFsyRJ/ovgF7M+odOLVYHUqRTxqPHo98WbScNF+uBohnzRwEb7j5yzzeyvd1YJhuvoWJEDVEV7ohIJ5msbk1ZMXpukhJeNDO/IR197VTFnOaA039+NLO8ftQFdpKzDPlFr5ikZx4IUikH5+k+TpUIq9VG+jBuc1TJDHoaJhw==","691f8ca61c6b4dcbb0aeb5f4","691fb4271f4655b50de8175a","index1","<span style='color:red'>Fail,<span style='color:red'>Fail,<span style='color:green'>Lift,<span style='color:green'>Lift,<span style='color:red'>Fail,<span style='color:red'>Fail,<span style='color:red'>Fail,<span style='color:red'>Fail,<span style='color:green'>Lift,<span style='color:red'>Fail,<span style='color:green'>Lift,<span style='color:red'>Fail","<span style='color:red'>Fail,<span style='color:red'>Fail,<span style='color:green'>Lift,<span style='color:green'>Lift,<span style='color:green'>Lift,<span style='color:green'>Lift,<span style='color:green'>Lift,<span style='color:red'>Fail,<span style='color:green'>Lift,<span style='color:green'>Lift,<span style='color:green'>Lift,<span style='color:red'>Fail","<span style='color:red'>Fail,<span style='color:green'>Lift,<span style='color:green'>Lift,<span style='color:red'>Fail,<span style='color:green'>Lift,<span style='color:green'>Lift","0,0,1,1,0,0,0,0,1,0,1,0","0,0,1,1,1,1,1,0,1,1,1,0","0,1,1,0,1,1",10,20,20,"","","","","{""box1"":""40"",""box2"":""40""}","",NA,1,"round2_ready",2,1,2,NA,NA,NA,NA,NA,NA,NA,NA,NA,NA,NA,NA,NA,NA,40,40,40,40,NA,NA,NA,NA,NA,NA,NA,NA,NA,NA,NA,NA,NA,NA,NA,NA,NA,NA,"",NA,NA,NA,NA,NA,NA,NA,NA,2025-11-21 00:46:46
"7675.5","https://psyc-201.github.io/xiang2023/exp/index1.html?PROLIFIC_PID=REDACTED&STUDY_ID=691f8ca61c6b4dcbb0aeb5f4&SESSION_ID=691fb4271f4655b50de8175a","survey-html-form",14,257870,"0.0-310.0","EV0xadaJJmQ7ZpX+0rG/e4STqkpPPsbtWSSGt1k5SAIhQJPNW64IzXPtTvu9NTUkl+N32tLgjdrtxuB9y8p89nMdmaz0tEWbX43uTqDJR6q1MgbZ4e5saW9M76CDCRbhC0prGMErHPQDodyiKA84fpHw9ppcQYxCsM+xjhMms3LnshGFsyRJ/ovgF7M+odOLVYHUqRTxqPHo98WbScNF+uBohnzRwEb7j5yzzeyvd1YJhuvoWJEDVEV7ohIJ5msbk1ZMXpukhJeNDO/IR197VTFnOaA039+NLO8ftQFdpKzDPlFr5ikZx4IUikH5+k+TpUIq9VG+jBuc1TJDHoaJhw==","691f8ca61c6b4dcbb0aeb5f4","691fb4271f4655b50de8175a","index1","<span style='color:red'>Fail,<span style='color:red'>Fail,<span style='color:green'>Lift,<span style='color:green'>Lift,<span style='color:red'>Fail,<span style='color:red'>Fail,<span style='color:red'>Fail,<span style='color:red'>Fail,<span style='color:green'>Lift,<span style='color:red'>Fail,<span style='color:green'>Lift,<span style='color:red'>Fail","<span style='color:red'>Fail,<span style='color:red'>Fail,<span style='color:green'>Lift,<span style='color:green'>Lift,<span style='color:green'>Lift,<span style='color:green'>Lift,<span style='color:green'>Lift,<span style='color:red'>Fail,<span style='color:green'>Lift,<span style='color:green'>Lift,<span style='color:green'>Lift,<span style='color:red'>Fail","<span style='color:red'>Fail,<span style='color:green'>Lift,<span style='color:green'>Lift,<span style='color:red'>Fail,<span style='color:green'>Lift,<span style='color:green'>Lift","0,0,1,1,0,0,0,0,1,0,1,0","0,0,1,1,1,1,1,0,1,1,1,0","0,1,1,0,1,1",10,20,20,"","","","","{""box1"":""1"",""box2"":""1""}","",NA,1,"round2_outcome",3,1,2,1,1,NA,NA,0,0,20,NA,NA,NA,NA,NA,NA,NA,NA,NA,NA,NA,1,1,NA,NA,0,0,20,NA,NA,NA,NA,NA,NA,NA,NA,NA,NA,NA,"",NA,NA,NA,NA,NA,NA,NA,NA,2025-11-21 00:46:46
"4282.699999999255","https://psyc-201.github.io/xiang2023/exp/index1.html?PROLIFIC_PID=REDACTED&STUDY_ID=691f8ca61c6b4dcbb0aeb5f4&SESSION_ID=691fb4271f4655b50de8175a","survey-html-form",15,262155,"0.0-311.0","EV0xadaJJmQ7ZpX+0rG/e4STqkpPPsbtWSSGt1k5SAIhQJPNW64IzXPtTvu9NTUkl+N32tLgjdrtxuB9y8p89nMdmaz0tEWbX43uTqDJR6q1MgbZ4e5saW9M76CDCRbhC0prGMErHPQDodyiKA84fpHw9ppcQYxCsM+xjhMms3LnshGFsyRJ/ovgF7M+odOLVYHUqRTxqPHo98WbScNF+uBohnzRwEb7j5yzzeyvd1YJhuvoWJEDVEV7ohIJ5msbk1ZMXpukhJeNDO/IR197VTFnOaA039+NLO8ftQFdpKzDPlFr5ikZx4IUikH5+k+TpUIq9VG+jBuc1TJDHoaJhw==","691f8ca61c6b4dcbb0aeb5f4","691fb4271f4655b50de8175a","index1","<span style='color:red'>Fail,<span style='color:red'>Fail,<span style='color:green'>Lift,<span style='color:green'>Lift,<span style='color:red'>Fail,<span style='color:red'>Fail,<span style='color:red'>Fail,<span style='color:red'>Fail,<span style='color:green'>Lift,<span style='color:red'>Fail,<span style='color:green'>Lift,<span style='color:red'>Fail","<span style='color:red'>Fail,<span style='color:red'>Fail,<span style='color:green'>Lift,<span style='color:green'>Lift,<span style='color:green'>Lift,<span style='color:green'>Lift,<span style='color:green'>Lift,<span style='color:red'>Fail,<span style='color:green'>Lift,<span style='color:green'>Lift,<span style='color:green'>Lift,<span style='color:red'>Fail","<span style='color:red'>Fail,<span style='color:green'>Lift,<span style='color:green'>Lift,<span style='color:red'>Fail,<span style='color:green'>Lift,<span style='color:green'>Lift","0,0,1,1,0,0,0,0,1,0,1,0","0,0,1,1,1,1,1,0,1,1,1,0","0,1,1,0,1,1",10,20,20,"","","","","{""box1"":""0""}","",NA,1,"round3_ready",4,1,3,NA,NA,NA,NA,NA,NA,NA,NA,NA,NA,NA,NA,NA,NA,0,0,NA,NA,NA,NA,NA,NA,NA,NA,NA,0,0,NA,NA,NA,NA,NA,NA,NA,NA,NA,"",NA,NA,NA,NA,NA,NA,NA,NA,2025-11-21 00:46:46
"12728.599999999627","https://psyc-201.github.io/xiang2023/exp/index1.html?PROLIFIC_PID=REDACTED&STUDY_ID=691f8ca61c6b4dcbb0aeb5f4&SESSION_ID=691fb4271f4655b50de8175a","survey-html-form",16,274886,"0.0-313.0-0.0","EV0xadaJJmQ7ZpX+0rG/e4STqkpPPsbtWSSGt1k5SAIhQJPNW64IzXPtTvu9NTUkl+N32tLgjdrtxuB9y8p89nMdmaz0tEWbX43uTqDJR6q1MgbZ4e5saW9M76CDCRbhC0prGMErHPQDodyiKA84fpHw9ppcQYxCsM+xjhMms3LnshGFsyRJ/ovgF7M+odOLVYHUqRTxqPHo98WbScNF+uBohnzRwEb7j5yzzeyvd1YJhuvoWJEDVEV7ohIJ5msbk1ZMXpukhJeNDO/IR197VTFnOaA039+NLO8ftQFdpKzDPlFr5ikZx4IUikH5+k+TpUIq9VG+jBuc1TJDHoaJhw==","691f8ca61c6b4dcbb0aeb5f4","691fb4271f4655b50de8175a","index1","<span style='color:red'>Fail,<span style='color:red'>Fail,<span style='color:green'>Lift,<span style='color:green'>Lift,<span style='color:red'>Fail,<span style='color:red'>Fail,<span style='color:red'>Fail,<span style='color:red'>Fail,<span style='color:green'>Lift,<span style='color:red'>Fail,<span style='color:green'>Lift,<span style='color:red'>Fail","<span style='color:red'>Fail,<span style='color:red'>Fail,<span style='color:green'>Lift,<span style='color:green'>Lift,<span style='color:green'>Lift,<span style='color:green'>Lift,<span style='color:green'>Lift,<span style='color:red'>Fail,<span style='color:green'>Lift,<span style='color:green'>Lift,<span style='color:green'>Lift,<span style='color:red'>Fail","<span style='color:red'>Fail,<span style='color:green'>Lift,<span style='color:green'>Lift,<span style='color:red'>Fail,<span style='color:green'>Lift,<span style='color:green'>Lift","0,0,1,1,0,0,0,0,1,0,1,0","0,0,1,1,1,1,1,0,1,1,1,0","0,1,1,0,1,1",10,20,20,"","","","","{""box1"":""1"",""box2"":""1"",""box3"":""999"",""box4"":""999""}","",NA,2,"round3_fail",5,1,3,1,1,NA,NA,0,0,20,NA,NA,NA,NA,NA,NA,NA,NA,NA,NA,NA,NA,NA,NA,NA,NA,NA,NA,NA,NA,1,1,1,1,0,0,20,NA,NA,"",NA,NA,NA,NA,NA,NA,NA,NA,2025-11-21 00:46:46
"null","https://psyc-201.github.io/xiang2023/exp/index1.html?PROLIFIC_PID=REDACTED&STUDY_ID=691f8ca61c6b4dcbb0aeb5f4&SESSION_ID=691fb4271f4655b50de8175a","html-keyboard-response",17,277899,"0.0-316.0","EV0xadaJJmQ7ZpX+0rG/e4STqkpPPsbtWSSGt1k5SAIhQJPNW64IzXPtTvu9NTUkl+N32tLgjdrtxuB9y8p89nMdmaz0tEWbX43uTqDJR6q1MgbZ4e5saW9M76CDCRbhC0prGMErHPQDodyiKA84fpHw9ppcQYxCsM+xjhMms3LnshGFsyRJ/ovgF7M+odOLVYHUqRTxqPHo98WbScNF+uBohnzRwEb7j5yzzeyvd1YJhuvoWJEDVEV7ohIJ5msbk1ZMXpukhJeNDO/IR197VTFnOaA039+NLO8ftQFdpKzDPlFr5ikZx4IUikH5+k+TpUIq9VG+jBuc1TJDHoaJhw==","691f8ca61c6b4dcbb0aeb5f4","691fb4271f4655b50de8175a","index1","<span style='color:red'>Fail,<span style='color:red'>Fail,<span style='color:green'>Lift,<span style='color:green'>Lift,<span style='color:red'>Fail,<span style='color:red'>Fail,<span style='color:red'>Fail,<span style='color:red'>Fail,<span style='color:green'>Lift,<span style='color:red'>Fail,<span style='color:green'>Lift,<span style='color:red'>Fail","<span style='color:red'>Fail,<span style='color:red'>Fail,<span style='color:green'>Lift,<span style='color:green'>Lift,<span style='color:green'>Lift,<span style='color:green'>Lift,<span style='color:green'>Lift,<span style='color:red'>Fail,<span style='color:green'>Lift,<span style='color:green'>Lift,<span style='color:green'>Lift,<span style='color:red'>Fail","<span style='color:red'>Fail,<span style='color:green'>Lift,<span style='color:green'>Lift,<span style='color:red'>Fail,<span style='color:green'>Lift,<span style='color:green'>Lift","0,0,1,1,0,0,0,0,1,0,1,0","0,0,1,1,1,1,1,0,1,1,1,0","0,1,1,0,1,1",10,20,20,"","","<p style='font-size:30px'><b> New Contest! </b></p>","null","","",NA,2,"",NA,NA,NA,NA,NA,NA,NA,NA,NA,NA,NA,NA,NA,NA,NA,NA,NA,NA,NA,NA,NA,NA,NA,NA,NA,NA,NA,NA,NA,NA,NA,NA,NA,NA,NA,NA,NA,NA,NA,"",NA,NA,NA,NA,NA,NA,NA,NA,2025-11-21 00:46:46
"5813.899999999441","https://psyc-201.github.io/xiang2023/exp/index1.html?PROLIFIC_PID=REDACTED&STUDY_ID=691f8ca61c6b4dcbb0aeb5f4&SESSION_ID=691fb4271f4655b50de8175a","survey-html-form",18,283716,"0.0-317.0","EV0xadaJJmQ7ZpX+0rG/e4STqkpPPsbtWSSGt1k5SAIhQJPNW64IzXPtTvu9NTUkl+N32tLgjdrtxuB9y8p89nMdmaz0tEWbX43uTqDJR6q1MgbZ4e5saW9M76CDCRbhC0prGMErHPQDodyiKA84fpHw9ppcQYxCsM+xjhMms3LnshGFsyRJ/ovgF7M+odOLVYHUqRTxqPHo98WbScNF+uBohnzRwEb7j5yzzeyvd1YJhuvoWJEDVEV7ohIJ5msbk1ZMXpukhJeNDO/IR197VTFnOaA039+NLO8ftQFdpKzDPlFr5ikZx4IUikH5+k+TpUIq9VG+jBuc1TJDHoaJhw==","691f8ca61c6b4dcbb0aeb5f4","691fb4271f4655b50de8175a","index1","<span style='color:red'>Fail,<span style='color:red'>Fail,<span style='color:green'>Lift,<span style='color:green'>Lift,<span style='color:red'>Fail,<span style='color:red'>Fail,<span style='color:red'>Fail,<span style='color:red'>Fail,<span style='color:green'>Lift,<span style='color:red'>Fail,<span style='color:green'>Lift,<span style='color:red'>Fail","<span style='color:red'>Fail,<span style='color:red'>Fail,<span style='color:green'>Lift,<span style='color:green'>Lift,<span style='color:green'>Lift,<span style='color:green'>Lift,<span style='color:green'>Lift,<span style='color:red'>Fail,<span style='color:green'>Lift,<span style='color:green'>Lift,<span style='color:green'>Lift,<span style='color:red'>Fail","<span style='color:red'>Fail,<span style='color:green'>Lift,<span style='color:green'>Lift,<span style='color:red'>Fail,<span style='color:green'>Lift,<span style='color:green'>Lift","0,0,1,1,0,0,0,0,1,0,1,0","0,0,1,1,1,1,1,0,1,1,1,0","0,1,1,0,1,1",10,20,20,"","","","","{""box1"":""2"",""box2"":""2""}","",NA,2,"round1_outcome",1,2,1,2,2,NA,NA,0,0,10,2,2,NA,NA,0,0,10,NA,NA,NA,NA,NA,NA,NA,NA,NA,NA,NA,NA,NA,NA,NA,NA,NA,NA,NA,NA,NA,NA,"",NA,NA,NA,NA,NA,NA,NA,NA,2025-11-21 00:46:46
"7096.200000000186","https://psyc-201.github.io/xiang2023/exp/index1.html?PROLIFIC_PID=REDACTED&STUDY_ID=691f8ca61c6b4dcbb0aeb5f4&SESSION_ID=691fb4271f4655b50de8175a","survey-html-form",19,290814,"0.0-318.0","EV0xadaJJmQ7ZpX+0rG/e4STqkpPPsbtWSSGt1k5SAIhQJPNW64IzXPtTvu9NTUkl+N32tLgjdrtxuB9y8p89nMdmaz0tEWbX43uTqDJR6q1MgbZ4e5saW9M76CDCRbhC0prGMErHPQDodyiKA84fpHw9ppcQYxCsM+xjhMms3LnshGFsyRJ/ovgF7M+odOLVYHUqRTxqPHo98WbScNF+uBohnzRwEb7j5yzzeyvd1YJhuvoWJEDVEV7ohIJ5msbk1ZMXpukhJeNDO/IR197VTFnOaA039+NLO8ftQFdpKzDPlFr5ikZx4IUikH5+k+TpUIq9VG+jBuc1TJDHoaJhw==","691f8ca61c6b4dcbb0aeb5f4","691fb4271f4655b50de8175a","index1","<span style='color:red'>Fail,<span style='color:red'>Fail,<span style='color:green'>Lift,<span style='color:green'>Lift,<span style='color:red'>Fail,<span style='color:red'>Fail,<span style='color:red'>Fail,<span style='color:red'>Fail,<span style='color:green'>Lift,<span style='color:red'>Fail,<span style='color:green'>Lift,<span style='color:red'>Fail","<span style='color:red'>Fail,<span style='color:red'>Fail,<span style='color:green'>Lift,<span style='color:green'>Lift,<span style='color:green'>Lift,<span style='color:green'>Lift,<span style='color:green'>Lift,<span style='color:red'>Fail,<span style='color:green'>Lift,<span style='color:green'>Lift,<span style='color:green'>Lift,<span style='color:red'>Fail","<span style='color:red'>Fail,<span style='color:green'>Lift,<span style='color:green'>Lift,<span style='color:red'>Fail,<span style='color:green'>Lift,<span style='color:green'>Lift","0,0,1,1,0,0,0,0,1,0,1,0","0,0,1,1,1,1,1,0,1,1,1,0","0,1,1,0,1,1",10,20,20,"","","","","{""box1"":""20"",""box2"":""20""}","",NA,2,"round2_ready",2,2,2,NA,NA,NA,NA,NA,NA,NA,NA,NA,NA,NA,NA,NA,NA,20,20,20,20,NA,NA,NA,NA,NA,NA,NA,NA,NA,NA,NA,NA,NA,NA,NA,NA,NA,NA,"",NA,NA,NA,NA,NA,NA,NA,NA,2025-11-21 00:46:46
"14539","https://psyc-201.github.io/xiang2023/exp/index1.html?PROLIFIC_PID=REDACTED&STUDY_ID=691f8ca61c6b4dcbb0aeb5f4&SESSION_ID=691fb4271f4655b50de8175a","survey-html-form",20,305356,"0.0-319.0","EV0xadaJJmQ7ZpX+0rG/e4STqkpPPsbtWSSGt1k5SAIhQJPNW64IzXPtTvu9NTUkl+N32tLgjdrtxuB9y8p89nMdmaz0tEWbX43uTqDJR6q1MgbZ4e5saW9M76CDCRbhC0prGMErHPQDodyiKA84fpHw9ppcQYxCsM+xjhMms3LnshGFsyRJ/ovgF7M+odOLVYHUqRTxqPHo98WbScNF+uBohnzRwEb7j5yzzeyvd1YJhuvoWJEDVEV7ohIJ5msbk1ZMXpukhJeNDO/IR197VTFnOaA039+NLO8ftQFdpKzDPlFr5ikZx4IUikH5+k+TpUIq9VG+jBuc1TJDHoaJhw==","691f8ca61c6b4dcbb0aeb5f4","691fb4271f4655b50de8175a","index1","<span style='color:red'>Fail,<span style='color:red'>Fail,<span style='color:green'>Lift,<span style='color:green'>Lift,<span style='color:red'>Fail,<span style='color:red'>Fail,<span style='color:red'>Fail,<span style='color:red'>Fail,<span style='color:green'>Lift,<span style='color:red'>Fail,<span style='color:green'>Lift,<span style='color:red'>Fail","<span style='color:red'>Fail,<span style='color:red'>Fail,<span style='color:green'>Lift,<span style='color:green'>Lift,<span style='color:green'>Lift,<span style='color:green'>Lift,<span style='color:green'>Lift,<span style='color:red'>Fail,<span style='color:green'>Lift,<span style='color:green'>Lift,<span style='color:green'>Lift,<span style='color:red'>Fail","<span style='color:red'>Fail,<span style='color:green'>Lift,<span style='color:green'>Lift,<span style='color:red'>Fail,<span style='color:green'>Lift,<span style='color:green'>Lift","0,0,1,1,0,0,0,0,1,0,1,0","0,0,1,1,1,1,1,0,1,1,1,0","0,1,1,0,1,1",10,20,20,"","","","","{""box1"":""5"",""box2"":""5"",""box3"":""70"",""box4"":""70""}","",NA,2,"round2_outcome",3,2,2,5,5,70,70,1,1,20,NA,NA,NA,NA,NA,NA,NA,NA,NA,NA,NA,5,5,70,70,1,1,20,NA,NA,NA,NA,NA,NA,NA,NA,NA,NA,NA,"",NA,NA,NA,NA,NA,NA,NA,NA,2025-11-21 00:46:46
"3876","https://psyc-201.github.io/xiang2023/exp/index1.html?PROLIFIC_PID=REDACTED&STUDY_ID=691f8ca61c6b4dcbb0aeb5f4&SESSION_ID=691fb4271f4655b50de8175a","survey-html-form",21,309234,"0.0-320.0","EV0xadaJJmQ7ZpX+0rG/e4STqkpPPsbtWSSGt1k5SAIhQJPNW64IzXPtTvu9NTUkl+N32tLgjdrtxuB9y8p89nMdmaz0tEWbX43uTqDJR6q1MgbZ4e5saW9M76CDCRbhC0prGMErHPQDodyiKA84fpHw9ppcQYxCsM+xjhMms3LnshGFsyRJ/ovgF7M+odOLVYHUqRTxqPHo98WbScNF+uBohnzRwEb7j5yzzeyvd1YJhuvoWJEDVEV7ohIJ5msbk1ZMXpukhJeNDO/IR197VTFnOaA039+NLO8ftQFdpKzDPlFr5ikZx4IUikH5+k+TpUIq9VG+jBuc1TJDHoaJhw==","691f8ca61c6b4dcbb0aeb5f4","691fb4271f4655b50de8175a","index1","<span style='color:red'>Fail,<span style='color:red'>Fail,<span style='color:green'>Lift,<span style='color:green'>Lift,<span style='color:red'>Fail,<span style='color:red'>Fail,<span style='color:red'>Fail,<span style='color:red'>Fail,<span style='color:green'>Lift,<span style='color:red'>Fail,<span style='color:green'>Lift,<span style='color:red'>Fail","<span style='color:red'>Fail,<span style='color:red'>Fail,<span style='color:green'>Lift,<span style='color:green'>Lift,<span style='color:green'>Lift,<span style='color:green'>Lift,<span style='color:green'>Lift,<span style='color:red'>Fail,<span style='color:green'>Lift,<span style='color:green'>Lift,<span style='color:green'>Lift,<span style='color:red'>Fail","<span style='color:red'>Fail,<span style='color:green'>Lift,<span style='color:green'>Lift,<span style='color:red'>Fail,<span style='color:green'>Lift,<span style='color:green'>Lift","0,0,1,1,0,0,0,0,1,0,1,0","0,0,1,1,1,1,1,0,1,1,1,0","0,1,1,0,1,1",10,20,20,"","","","","{""box1"":""50""}","",NA,2,"round3_ready",4,2,3,NA,NA,NA,NA,NA,NA,NA,NA,NA,NA,NA,NA,NA,NA,50,50,NA,NA,NA,NA,NA,NA,NA,NA,NA,50,50,NA,NA,NA,NA,NA,NA,NA,NA,NA,"",NA,NA,NA,NA,NA,NA,NA,NA,2025-11-21 00:46:46
"11334.199999999255","https://psyc-201.github.io/xiang2023/exp/index1.html?PROLIFIC_PID=REDACTED&STUDY_ID=691f8ca61c6b4dcbb0aeb5f4&SESSION_ID=691fb4271f4655b50de8175a","survey-html-form",22,320570,"0.0-321.0-0.0","EV0xadaJJmQ7ZpX+0rG/e4STqkpPPsbtWSSGt1k5SAIhQJPNW64IzXPtTvu9NTUkl+N32tLgjdrtxuB9y8p89nMdmaz0tEWbX43uTqDJR6q1MgbZ4e5saW9M76CDCRbhC0prGMErHPQDodyiKA84fpHw9ppcQYxCsM+xjhMms3LnshGFsyRJ/ovgF7M+odOLVYHUqRTxqPHo98WbScNF+uBohnzRwEb7j5yzzeyvd1YJhuvoWJEDVEV7ohIJ5msbk1ZMXpukhJeNDO/IR197VTFnOaA039+NLO8ftQFdpKzDPlFr5ikZx4IUikH5+k+TpUIq9VG+jBuc1TJDHoaJhw==","691f8ca61c6b4dcbb0aeb5f4","691fb4271f4655b50de8175a","index1","<span style='color:red'>Fail,<span style='color:red'>Fail,<span style='color:green'>Lift,<span style='color:green'>Lift,<span style='color:red'>Fail,<span style='color:red'>Fail,<span style='color:red'>Fail,<span style='color:red'>Fail,<span style='color:green'>Lift,<span style='color:red'>Fail,<span style='color:green'>Lift,<span style='color:red'>Fail","<span style='color:red'>Fail,<span style='color:red'>Fail,<span style='color:green'>Lift,<span style='color:green'>Lift,<span style='color:green'>Lift,<span style='color:green'>Lift,<span style='color:green'>Lift,<span style='color:red'>Fail,<span style='color:green'>Lift,<span style='color:green'>Lift,<span style='color:green'>Lift,<span style='color:red'>Fail","<span style='color:red'>Fail,<span style='color:green'>Lift,<span style='color:green'>Lift,<span style='color:red'>Fail,<span style='color:green'>Lift,<span style='color:green'>Lift","0,0,1,1,0,0,0,0,1,0,1,0","0,0,1,1,1,1,1,0,1,1,1,0","0,1,1,0,1,1",10,20,20,"","","","","{""box1"":""7"",""box2"":""7"",""box3"":""75"",""box4"":""75""}","",NA,3,"round3_lift",5,2,3,7,7,75,75,1,1,20,NA,NA,NA,NA,NA,NA,NA,NA,NA,NA,NA,NA,NA,NA,NA,NA,NA,NA,NA,NA,NA,NA,7,7,1,1,20,75,75,"",NA,NA,NA,NA,NA,NA,NA,NA,2025-11-21 00:46:46
"null","https://psyc-201.github.io/xiang2023/exp/index1.html?PROLIFIC_PID=REDACTED&STUDY_ID=691f8ca61c6b4dcbb0aeb5f4&SESSION_ID=691fb4271f4655b50de8175a","html-keyboard-response",23,323587,"0.0-325.0","EV0xadaJJmQ7ZpX+0rG/e4STqkpPPsbtWSSGt1k5SAIhQJPNW64IzXPtTvu9NTUkl+N32tLgjdrtxuB9y8p89nMdmaz0tEWbX43uTqDJR6q1MgbZ4e5saW9M76CDCRbhC0prGMErHPQDodyiKA84fpHw9ppcQYxCsM+xjhMms3LnshGFsyRJ/ovgF7M+odOLVYHUqRTxqPHo98WbScNF+uBohnzRwEb7j5yzzeyvd1YJhuvoWJEDVEV7ohIJ5msbk1ZMXpukhJeNDO/IR197VTFnOaA039+NLO8ftQFdpKzDPlFr5ikZx4IUikH5+k+TpUIq9VG+jBuc1TJDHoaJhw==","691f8ca61c6b4dcbb0aeb5f4","691fb4271f4655b50de8175a","index1","<span style='color:red'>Fail,<span style='color:red'>Fail,<span style='color:green'>Lift,<span style='color:green'>Lift,<span style='color:red'>Fail,<span style='color:red'>Fail,<span style='color:red'>Fail,<span style='color:red'>Fail,<span style='color:green'>Lift,<span style='color:red'>Fail,<span style='color:green'>Lift,<span style='color:red'>Fail","<span style='color:red'>Fail,<span style='color:red'>Fail,<span style='color:green'>Lift,<span style='color:green'>Lift,<span style='color:green'>Lift,<span style='color:green'>Lift,<span style='color:green'>Lift,<span style='color:red'>Fail,<span style='color:green'>Lift,<span style='color:green'>Lift,<span style='color:green'>Lift,<span style='color:red'>Fail","<span style='color:red'>Fail,<span style='color:green'>Lift,<span style='color:green'>Lift,<span style='color:red'>Fail,<span style='color:green'>Lift,<span style='color:green'>Lift","0,0,1,1,0,0,0,0,1,0,1,0","0,0,1,1,1,1,1,0,1,1,1,0","0,1,1,0,1,1",10,20,20,"","","<p style='font-size:30px'><b> New Contest! </b></p>","null","","",NA,3,"",NA,NA,NA,NA,NA,NA,NA,NA,NA,NA,NA,NA,NA,NA,NA,NA,NA,NA,NA,NA,NA,NA,NA,NA,NA,NA,NA,NA,NA,NA,NA,NA,NA,NA,NA,NA,NA,NA,NA,"",NA,NA,NA,NA,NA,NA,NA,NA,2025-11-21 00:46:46
"13272.599999999627","https://psyc-201.github.io/xiang2023/exp/index1.html?PROLIFIC_PID=REDACTED&STUDY_ID=691f8ca61c6b4dcbb0aeb5f4&SESSION_ID=691fb4271f4655b50de8175a","survey-html-form",24,336862,"0.0-326.0","EV0xadaJJmQ7ZpX+0rG/e4STqkpPPsbtWSSGt1k5SAIhQJPNW64IzXPtTvu9NTUkl+N32tLgjdrtxuB9y8p89nMdmaz0tEWbX43uTqDJR6q1MgbZ4e5saW9M76CDCRbhC0prGMErHPQDodyiKA84fpHw9ppcQYxCsM+xjhMms3LnshGFsyRJ/ovgF7M+odOLVYHUqRTxqPHo98WbScNF+uBohnzRwEb7j5yzzeyvd1YJhuvoWJEDVEV7ohIJ5msbk1ZMXpukhJeNDO/IR197VTFnOaA039+NLO8ftQFdpKzDPlFr5ikZx4IUikH5+k+TpUIq9VG+jBuc1TJDHoaJhw==","691f8ca61c6b4dcbb0aeb5f4","691fb4271f4655b50de8175a","index1","<span style='color:red'>Fail,<span style='color:red'>Fail,<span style='color:green'>Lift,<span style='color:green'>Lift,<span style='color:red'>Fail,<span style='color:red'>Fail,<span style='color:red'>Fail,<span style='color:red'>Fail,<span style='color:green'>Lift,<span style='color:red'>Fail,<span style='color:green'>Lift,<span style='color:red'>Fail","<span style='color:red'>Fail,<span style='color:red'>Fail,<span style='color:green'>Lift,<span style='color:green'>Lift,<span style='color:green'>Lift,<span style='color:green'>Lift,<span style='color:green'>Lift,<span style='color:red'>Fail,<span style='color:green'>Lift,<span style='color:green'>Lift,<span style='color:green'>Lift,<span style='color:red'>Fail","<span style='color:red'>Fail,<span style='color:green'>Lift,<span style='color:green'>Lift,<span style='color:red'>Fail,<span style='color:green'>Lift,<span style='color:green'>Lift","0,0,1,1,0,0,0,0,1,0,1,0","0,0,1,1,1,1,1,0,1,1,1,0","0,1,1,0,1,1",10,20,20,"","","","","{""box1"":""5"",""box2"":""3"",""box3"":""75""}","",NA,3,"round1_outcome",1,3,1,5,3,75,NA,1,0,10,5,3,75,NA,1,0,10,NA,NA,NA,NA,NA,NA,NA,NA,NA,NA,NA,NA,NA,NA,NA,NA,NA,NA,NA,NA,NA,NA,"",NA,NA,NA,NA,NA,NA,NA,NA,2025-11-21 00:46:46
"7795.800000000745","https://psyc-201.github.io/xiang2023/exp/index1.html?PROLIFIC_PID=REDACTED&STUDY_ID=691f8ca61c6b4dcbb0aeb5f4&SESSION_ID=691fb4271f4655b50de8175a","survey-html-form",25,344659,"0.0-327.0","EV0xadaJJmQ7ZpX+0rG/e4STqkpPPsbtWSSGt1k5SAIhQJPNW64IzXPtTvu9NTUkl+N32tLgjdrtxuB9y8p89nMdmaz0tEWbX43uTqDJR6q1MgbZ4e5saW9M76CDCRbhC0prGMErHPQDodyiKA84fpHw9ppcQYxCsM+xjhMms3LnshGFsyRJ/ovgF7M+odOLVYHUqRTxqPHo98WbScNF+uBohnzRwEb7j5yzzeyvd1YJhuvoWJEDVEV7ohIJ5msbk1ZMXpukhJeNDO/IR197VTFnOaA039+NLO8ftQFdpKzDPlFr5ikZx4IUikH5+k+TpUIq9VG+jBuc1TJDHoaJhw==","691f8ca61c6b4dcbb0aeb5f4","691fb4271f4655b50de8175a","index1","<span style='color:red'>Fail,<span style='color:red'>Fail,<span style='color:green'>Lift,<span style='color:green'>Lift,<span style='color:red'>Fail,<span style='color:red'>Fail,<span style='color:red'>Fail,<span style='color:red'>Fail,<span style='color:green'>Lift,<span style='color:red'>Fail,<span style='color:green'>Lift,<span style='color:red'>Fail","<span style='color:red'>Fail,<span style='color:red'>Fail,<span style='color:green'>Lift,<span style='color:green'>Lift,<span style='color:green'>Lift,<span style='color:green'>Lift,<span style='color:green'>Lift,<span style='color:red'>Fail,<span style='color:green'>Lift,<span style='color:green'>Lift,<span style='color:green'>Lift,<span style='color:red'>Fail","<span style='color:red'>Fail,<span style='color:green'>Lift,<span style='color:green'>Lift,<span style='color:red'>Fail,<span style='color:green'>Lift,<span style='color:green'>Lift","0,0,1,1,0,0,0,0,1,0,1,0","0,0,1,1,1,1,1,0,1,1,1,0","0,1,1,0,1,1",10,20,20,"","","","","{""box1"":""60"",""box2"":""40""}","",NA,3,"round2_ready",2,3,2,NA,NA,NA,NA,NA,NA,NA,NA,NA,NA,NA,NA,NA,NA,60,40,60,40,NA,NA,NA,NA,NA,NA,NA,NA,NA,NA,NA,NA,NA,NA,NA,NA,NA,NA,"",NA,NA,NA,NA,NA,NA,NA,NA,2025-11-21 00:46:46
"12650","https://psyc-201.github.io/xiang2023/exp/index1.html?PROLIFIC_PID=REDACTED&STUDY_ID=691f8ca61c6b4dcbb0aeb5f4&SESSION_ID=691fb4271f4655b50de8175a","survey-html-form",26,357312,"0.0-328.0","EV0xadaJJmQ7ZpX+0rG/e4STqkpPPsbtWSSGt1k5SAIhQJPNW64IzXPtTvu9NTUkl+N32tLgjdrtxuB9y8p89nMdmaz0tEWbX43uTqDJR6q1MgbZ4e5saW9M76CDCRbhC0prGMErHPQDodyiKA84fpHw9ppcQYxCsM+xjhMms3LnshGFsyRJ/ovgF7M+odOLVYHUqRTxqPHo98WbScNF+uBohnzRwEb7j5yzzeyvd1YJhuvoWJEDVEV7ohIJ5msbk1ZMXpukhJeNDO/IR197VTFnOaA039+NLO8ftQFdpKzDPlFr5ikZx4IUikH5+k+TpUIq9VG+jBuc1TJDHoaJhw==","691f8ca61c6b4dcbb0aeb5f4","691fb4271f4655b50de8175a","index1","<span style='color:red'>Fail,<span style='color:red'>Fail,<span style='color:green'>Lift,<span style='color:green'>Lift,<span style='color:red'>Fail,<span style='color:red'>Fail,<span style='color:red'>Fail,<span style='color:red'>Fail,<span style='color:green'>Lift,<span style='color:red'>Fail,<span style='color:green'>Lift,<span style='color:red'>Fail","<span style='color:red'>Fail,<span style='color:red'>Fail,<span style='color:green'>Lift,<span style='color:green'>Lift,<span style='color:green'>Lift,<span style='color:green'>Lift,<span style='color:green'>Lift,<span style='color:red'>Fail,<span style='color:green'>Lift,<span style='color:green'>Lift,<span style='color:green'>Lift,<span style='color:red'>Fail","<span style='color:red'>Fail,<span style='color:green'>Lift,<span style='color:green'>Lift,<span style='color:red'>Fail,<span style='color:green'>Lift,<span style='color:green'>Lift","0,0,1,1,0,0,0,0,1,0,1,0","0,0,1,1,1,1,1,0,1,1,1,0","0,1,1,0,1,1",10,20,20,"","","","","{""box1"":""7"",""box2"":""5"",""box3"":""70"",""box4"":""90""}","",NA,3,"round2_outcome",3,3,2,7,5,70,90,1,1,20,NA,NA,NA,NA,NA,NA,NA,NA,NA,NA,NA,7,5,70,90,1,1,20,NA,NA,NA,NA,NA,NA,NA,NA,NA,NA,NA,"",NA,NA,NA,NA,NA,NA,NA,NA,2025-11-21 00:46:46
"5703.800000000745","https://psyc-201.github.io/xiang2023/exp/index1.html?PROLIFIC_PID=REDACTED&STUDY_ID=691f8ca61c6b4dcbb0aeb5f4&SESSION_ID=691fb4271f4655b50de8175a","survey-html-form",27,363018,"0.0-329.0","EV0xadaJJmQ7ZpX+0rG/e4STqkpPPsbtWSSGt1k5SAIhQJPNW64IzXPtTvu9NTUkl+N32tLgjdrtxuB9y8p89nMdmaz0tEWbX43uTqDJR6q1MgbZ4e5saW9M76CDCRbhC0prGMErHPQDodyiKA84fpHw9ppcQYxCsM+xjhMms3LnshGFsyRJ/ovgF7M+odOLVYHUqRTxqPHo98WbScNF+uBohnzRwEb7j5yzzeyvd1YJhuvoWJEDVEV7ohIJ5msbk1ZMXpukhJeNDO/IR197VTFnOaA039+NLO8ftQFdpKzDPlFr5ikZx4IUikH5+k+TpUIq9VG+jBuc1TJDHoaJhw==","691f8ca61c6b4dcbb0aeb5f4","691fb4271f4655b50de8175a","index1","<span style='color:red'>Fail,<span style='color:red'>Fail,<span style='color:green'>Lift,<span style='color:green'>Lift,<span style='color:red'>Fail,<span style='color:red'>Fail,<span style='color:red'>Fail,<span style='color:red'>Fail,<span style='color:green'>Lift,<span style='color:red'>Fail,<span style='color:green'>Lift,<span style='color:red'>Fail","<span style='color:red'>Fail,<span style='color:red'>Fail,<span style='color:green'>Lift,<span style='color:green'>Lift,<span style='color:green'>Lift,<span style='color:green'>Lift,<span style='color:green'>Lift,<span style='color:red'>Fail,<span style='color:green'>Lift,<span style='color:green'>Lift,<span style='color:green'>Lift,<span style='color:red'>Fail","<span style='color:red'>Fail,<span style='color:green'>Lift,<span style='color:green'>Lift,<span style='color:red'>Fail,<span style='color:green'>Lift,<span style='color:green'>Lift","0,0,1,1,0,0,0,0,1,0,1,0","0,0,1,1,1,1,1,0,1,1,1,0","0,1,1,0,1,1",10,20,20,"","","","","{""box1"":""75""}","",NA,3,"round3_ready",4,3,3,NA,NA,NA,NA,NA,NA,NA,NA,NA,NA,NA,NA,NA,NA,75,75,NA,NA,NA,NA,NA,NA,NA,NA,NA,75,75,NA,NA,NA,NA,NA,NA,NA,NA,NA,"",NA,NA,NA,NA,NA,NA,NA,NA,2025-11-21 00:46:46
"14403.799999999814","https://psyc-201.github.io/xiang2023/exp/index1.html?PROLIFIC_PID=REDACTED&STUDY_ID=691f8ca61c6b4dcbb0aeb5f4&SESSION_ID=691fb4271f4655b50de8175a","survey-html-form",28,377424,"0.0-330.0-0.0","EV0xadaJJmQ7ZpX+0rG/e4STqkpPPsbtWSSGt1k5SAIhQJPNW64IzXPtTvu9NTUkl+N32tLgjdrtxuB9y8p89nMdmaz0tEWbX43uTqDJR6q1MgbZ4e5saW9M76CDCRbhC0prGMErHPQDodyiKA84fpHw9ppcQYxCsM+xjhMms3LnshGFsyRJ/ovgF7M+odOLVYHUqRTxqPHo98WbScNF+uBohnzRwEb7j5yzzeyvd1YJhuvoWJEDVEV7ohIJ5msbk1ZMXpukhJeNDO/IR197VTFnOaA039+NLO8ftQFdpKzDPlFr5ikZx4IUikH5+k+TpUIq9VG+jBuc1TJDHoaJhw==","691f8ca61c6b4dcbb0aeb5f4","691fb4271f4655b50de8175a","index1","<span style='color:red'>Fail,<span style='color:red'>Fail,<span style='color:green'>Lift,<span style='color:green'>Lift,<span style='color:red'>Fail,<span style='color:red'>Fail,<span style='color:red'>Fail,<span style='color:red'>Fail,<span style='color:green'>Lift,<span style='color:red'>Fail,<span style='color:green'>Lift,<span style='color:red'>Fail","<span style='color:red'>Fail,<span style='color:red'>Fail,<span style='color:green'>Lift,<span style='color:green'>Lift,<span style='color:green'>Lift,<span style='color:green'>Lift,<span style='color:green'>Lift,<span style='color:red'>Fail,<span style='color:green'>Lift,<span style='color:green'>Lift,<span style='color:green'>Lift,<span style='color:red'>Fail","<span style='color:red'>Fail,<span style='color:green'>Lift,<span style='color:green'>Lift,<span style='color:red'>Fail,<span style='color:green'>Lift,<span style='color:green'>Lift","0,0,1,1,0,0,0,0,1,0,1,0","0,0,1,1,1,1,1,0,1,1,1,0","0,1,1,0,1,1",10,20,20,"","","","","{""box1"":""7"",""box2"":""5"",""box3"":""75"",""box4"":""90""}","",NA,4,"round3_lift",5,3,3,7,5,75,90,1,1,20,NA,NA,NA,NA,NA,NA,NA,NA,NA,NA,NA,NA,NA,NA,NA,NA,NA,NA,NA,NA,NA,NA,7,5,1,1,20,75,90,"",NA,NA,NA,NA,NA,NA,NA,NA,2025-11-21 00:46:46
"null","https://psyc-201.github.io/xiang2023/exp/index1.html?PROLIFIC_PID=REDACTED&STUDY_ID=691f8ca61c6b4dcbb0aeb5f4&SESSION_ID=691fb4271f4655b50de8175a","html-keyboard-response",29,380434,"0.0-334.0","EV0xadaJJmQ7ZpX+0rG/e4STqkpPPsbtWSSGt1k5SAIhQJPNW64IzXPtTvu9NTUkl+N32tLgjdrtxuB9y8p89nMdmaz0tEWbX43uTqDJR6q1MgbZ4e5saW9M76CDCRbhC0prGMErHPQDodyiKA84fpHw9ppcQYxCsM+xjhMms3LnshGFsyRJ/ovgF7M+odOLVYHUqRTxqPHo98WbScNF+uBohnzRwEb7j5yzzeyvd1YJhuvoWJEDVEV7ohIJ5msbk1ZMXpukhJeNDO/IR197VTFnOaA039+NLO8ftQFdpKzDPlFr5ikZx4IUikH5+k+TpUIq9VG+jBuc1TJDHoaJhw==","691f8ca61c6b4dcbb0aeb5f4","691fb4271f4655b50de8175a","index1","<span style='color:red'>Fail,<span style='color:red'>Fail,<span style='color:green'>Lift,<span style='color:green'>Lift,<span style='color:red'>Fail,<span style='color:red'>Fail,<span style='color:red'>Fail,<span style='color:red'>Fail,<span style='color:green'>Lift,<span style='color:red'>Fail,<span style='color:green'>Lift,<span style='color:red'>Fail","<span style='color:red'>Fail,<span style='color:red'>Fail,<span style='color:green'>Lift,<span style='color:green'>Lift,<span style='color:green'>Lift,<span style='color:green'>Lift,<span style='color:green'>Lift,<span style='color:red'>Fail,<span style='color:green'>Lift,<span style='color:green'>Lift,<span style='color:green'>Lift,<span style='color:red'>Fail","<span style='color:red'>Fail,<span style='color:green'>Lift,<span style='color:green'>Lift,<span style='color:red'>Fail,<span style='color:green'>Lift,<span style='color:green'>Lift","0,0,1,1,0,0,0,0,1,0,1,0","0,0,1,1,1,1,1,0,1,1,1,0","0,1,1,0,1,1",10,20,20,"","","<p style='font-size:30px'><b> New Contest! </b></p>","null","","",NA,4,"",NA,NA,NA,NA,NA,NA,NA,NA,NA,NA,NA,NA,NA,NA,NA,NA,NA,NA,NA,NA,NA,NA,NA,NA,NA,NA,NA,NA,NA,NA,NA,NA,NA,NA,NA,NA,NA,NA,NA,"",NA,NA,NA,NA,NA,NA,NA,NA,2025-11-21 00:46:46
"5855.800000000745","https://psyc-201.github.io/xiang2023/exp/index1.html?PROLIFIC_PID=REDACTED&STUDY_ID=691f8ca61c6b4dcbb0aeb5f4&SESSION_ID=691fb4271f4655b50de8175a","survey-html-form",30,386293,"0.0-335.0","EV0xadaJJmQ7ZpX+0rG/e4STqkpPPsbtWSSGt1k5SAIhQJPNW64IzXPtTvu9NTUkl+N32tLgjdrtxuB9y8p89nMdmaz0tEWbX43uTqDJR6q1MgbZ4e5saW9M76CDCRbhC0prGMErHPQDodyiKA84fpHw9ppcQYxCsM+xjhMms3LnshGFsyRJ/ovgF7M+odOLVYHUqRTxqPHo98WbScNF+uBohnzRwEb7j5yzzeyvd1YJhuvoWJEDVEV7ohIJ5msbk1ZMXpukhJeNDO/IR197VTFnOaA039+NLO8ftQFdpKzDPlFr5ikZx4IUikH5+k+TpUIq9VG+jBuc1TJDHoaJhw==","691f8ca61c6b4dcbb0aeb5f4","691fb4271f4655b50de8175a","index1","<span style='color:red'>Fail,<span style='color:red'>Fail,<span style='color:green'>Lift,<span style='color:green'>Lift,<span style='color:red'>Fail,<span style='color:red'>Fail,<span style='color:red'>Fail,<span style='color:red'>Fail,<span style='color:green'>Lift,<span style='color:red'>Fail,<span style='color:green'>Lift,<span style='color:red'>Fail","<span style='color:red'>Fail,<span style='color:red'>Fail,<span style='color:green'>Lift,<span style='color:green'>Lift,<span style='color:green'>Lift,<span style='color:green'>Lift,<span style='color:green'>Lift,<span style='color:red'>Fail,<span style='color:green'>Lift,<span style='color:green'>Lift,<span style='color:green'>Lift,<span style='color:red'>Fail","<span style='color:red'>Fail,<span style='color:green'>Lift,<span style='color:green'>Lift,<span style='color:red'>Fail,<span style='color:green'>Lift,<span style='color:green'>Lift","0,0,1,1,0,0,0,0,1,0,1,0","0,0,1,1,1,1,1,0,1,1,1,0","0,1,1,0,1,1",10,20,20,"","","","","{""box1"":""2"",""box2"":""2""}","",NA,4,"round1_outcome",1,4,1,2,2,NA,NA,0,0,10,2,2,NA,NA,0,0,10,NA,NA,NA,NA,NA,NA,NA,NA,NA,NA,NA,NA,NA,NA,NA,NA,NA,NA,NA,NA,NA,NA,"",NA,NA,NA,NA,NA,NA,NA,NA,2025-11-21 00:46:46
"6527.700000000186","https://psyc-201.github.io/xiang2023/exp/index1.html?PROLIFIC_PID=REDACTED&STUDY_ID=691f8ca61c6b4dcbb0aeb5f4&SESSION_ID=691fb4271f4655b50de8175a","survey-html-form",31,392823,"0.0-336.0","EV0xadaJJmQ7ZpX+0rG/e4STqkpPPsbtWSSGt1k5SAIhQJPNW64IzXPtTvu9NTUkl+N32tLgjdrtxuB9y8p89nMdmaz0tEWbX43uTqDJR6q1MgbZ4e5saW9M76CDCRbhC0prGMErHPQDodyiKA84fpHw9ppcQYxCsM+xjhMms3LnshGFsyRJ/ovgF7M+odOLVYHUqRTxqPHo98WbScNF+uBohnzRwEb7j5yzzeyvd1YJhuvoWJEDVEV7ohIJ5msbk1ZMXpukhJeNDO/IR197VTFnOaA039+NLO8ftQFdpKzDPlFr5ikZx4IUikH5+k+TpUIq9VG+jBuc1TJDHoaJhw==","691f8ca61c6b4dcbb0aeb5f4","691fb4271f4655b50de8175a","index1","<span style='color:red'>Fail,<span style='color:red'>Fail,<span style='color:green'>Lift,<span style='color:green'>Lift,<span style='color:red'>Fail,<span style='color:red'>Fail,<span style='color:red'>Fail,<span style='color:red'>Fail,<span style='color:green'>Lift,<span style='color:red'>Fail,<span style='color:green'>Lift,<span style='color:red'>Fail","<span style='color:red'>Fail,<span style='color:red'>Fail,<span style='color:green'>Lift,<span style='color:green'>Lift,<span style='color:green'>Lift,<span style='color:green'>Lift,<span style='color:green'>Lift,<span style='color:red'>Fail,<span style='color:green'>Lift,<span style='color:green'>Lift,<span style='color:green'>Lift,<span style='color:red'>Fail","<span style='color:red'>Fail,<span style='color:green'>Lift,<span style='color:green'>Lift,<span style='color:red'>Fail,<span style='color:green'>Lift,<span style='color:green'>Lift","0,0,1,1,0,0,0,0,1,0,1,0","0,0,1,1,1,1,1,0,1,1,1,0","0,1,1,0,1,1",10,20,20,"","","","","{""box1"":""25"",""box2"":""25""}","",NA,4,"round2_ready",2,4,2,NA,NA,NA,NA,NA,NA,NA,NA,NA,NA,NA,NA,NA,NA,25,25,25,25,NA,NA,NA,NA,NA,NA,NA,NA,NA,NA,NA,NA,NA,NA,NA,NA,NA,NA,"",NA,NA,NA,NA,NA,NA,NA,NA,2025-11-21 00:46:46
"10302.299999999814","https://psyc-201.github.io/xiang2023/exp/index1.html?PROLIFIC_PID=REDACTED&STUDY_ID=691f8ca61c6b4dcbb0aeb5f4&SESSION_ID=691fb4271f4655b50de8175a","survey-html-form",32,403128,"0.0-337.0","EV0xadaJJmQ7ZpX+0rG/e4STqkpPPsbtWSSGt1k5SAIhQJPNW64IzXPtTvu9NTUkl+N32tLgjdrtxuB9y8p89nMdmaz0tEWbX43uTqDJR6q1MgbZ4e5saW9M76CDCRbhC0prGMErHPQDodyiKA84fpHw9ppcQYxCsM+xjhMms3LnshGFsyRJ/ovgF7M+odOLVYHUqRTxqPHo98WbScNF+uBohnzRwEb7j5yzzeyvd1YJhuvoWJEDVEV7ohIJ5msbk1ZMXpukhJeNDO/IR197VTFnOaA039+NLO8ftQFdpKzDPlFr5ikZx4IUikH5+k+TpUIq9VG+jBuc1TJDHoaJhw==","691f8ca61c6b4dcbb0aeb5f4","691fb4271f4655b50de8175a","index1","<span style='color:red'>Fail,<span style='color:red'>Fail,<span style='color:green'>Lift,<span style='color:green'>Lift,<span style='color:red'>Fail,<span style='color:red'>Fail,<span style='color:red'>Fail,<span style='color:red'>Fail,<span style='color:green'>Lift,<span style='color:red'>Fail,<span style='color:green'>Lift,<span style='color:red'>Fail","<span style='color:red'>Fail,<span style='color:red'>Fail,<span style='color:green'>Lift,<span style='color:green'>Lift,<span style='color:green'>Lift,<span style='color:green'>Lift,<span style='color:green'>Lift,<span style='color:red'>Fail,<span style='color:green'>Lift,<span style='color:green'>Lift,<span style='color:green'>Lift,<span style='color:red'>Fail","<span style='color:red'>Fail,<span style='color:green'>Lift,<span style='color:green'>Lift,<span style='color:red'>Fail,<span style='color:green'>Lift,<span style='color:green'>Lift","0,0,1,1,0,0,0,0,1,0,1,0","0,0,1,1,1,1,1,0,1,1,1,0","0,1,1,0,1,1",10,20,20,"","","","","{""box1"":""5"",""box2"":""2"",""box3"":""80""}","",NA,4,"round2_outcome",3,4,2,5,2,80,NA,1,0,20,NA,NA,NA,NA,NA,NA,NA,NA,NA,NA,NA,5,2,80,NA,1,0,20,NA,NA,NA,NA,NA,NA,NA,NA,NA,NA,NA,"",NA,NA,NA,NA,NA,NA,NA,NA,2025-11-21 00:46:46
"5319","https://psyc-201.github.io/xiang2023/exp/index1.html?PROLIFIC_PID=REDACTED&STUDY_ID=691f8ca61c6b4dcbb0aeb5f4&SESSION_ID=691fb4271f4655b50de8175a","survey-html-form",33,408449,"0.0-338.0","EV0xadaJJmQ7ZpX+0rG/e4STqkpPPsbtWSSGt1k5SAIhQJPNW64IzXPtTvu9NTUkl+N32tLgjdrtxuB9y8p89nMdmaz0tEWbX43uTqDJR6q1MgbZ4e5saW9M76CDCRbhC0prGMErHPQDodyiKA84fpHw9ppcQYxCsM+xjhMms3LnshGFsyRJ/ovgF7M+odOLVYHUqRTxqPHo98WbScNF+uBohnzRwEb7j5yzzeyvd1YJhuvoWJEDVEV7ohIJ5msbk1ZMXpukhJeNDO/IR197VTFnOaA039+NLO8ftQFdpKzDPlFr5ikZx4IUikH5+k+TpUIq9VG+jBuc1TJDHoaJhw==","691f8ca61c6b4dcbb0aeb5f4","691fb4271f4655b50de8175a","index1","<span style='color:red'>Fail,<span style='color:red'>Fail,<span style='color:green'>Lift,<span style='color:green'>Lift,<span style='color:red'>Fail,<span style='color:red'>Fail,<span style='color:red'>Fail,<span style='color:red'>Fail,<span style='color:green'>Lift,<span style='color:red'>Fail,<span style='color:green'>Lift,<span style='color:red'>Fail","<span style='color:red'>Fail,<span style='color:red'>Fail,<span style='color:green'>Lift,<span style='color:green'>Lift,<span style='color:green'>Lift,<span style='color:green'>Lift,<span style='color:green'>Lift,<span style='color:red'>Fail,<span style='color:green'>Lift,<span style='color:green'>Lift,<span style='color:green'>Lift,<span style='color:red'>Fail","<span style='color:red'>Fail,<span style='color:green'>Lift,<span style='color:green'>Lift,<span style='color:red'>Fail,<span style='color:green'>Lift,<span style='color:green'>Lift","0,0,1,1,0,0,0,0,1,0,1,0","0,0,1,1,1,1,1,0,1,1,1,0","0,1,1,0,1,1",10,20,20,"","","","","{""box1"":""30""}","",NA,4,"round3_ready",4,4,3,NA,NA,NA,NA,NA,NA,NA,NA,NA,NA,NA,NA,NA,NA,30,30,NA,NA,NA,NA,NA,NA,NA,NA,NA,30,30,NA,NA,NA,NA,NA,NA,NA,NA,NA,"",NA,NA,NA,NA,NA,NA,NA,NA,2025-11-21 00:46:46
"15844","https://psyc-201.github.io/xiang2023/exp/index1.html?PROLIFIC_PID=REDACTED&STUDY_ID=691f8ca61c6b4dcbb0aeb5f4&SESSION_ID=691fb4271f4655b50de8175a","survey-html-form",34,424296,"0.0-340.0-0.0","EV0xadaJJmQ7ZpX+0rG/e4STqkpPPsbtWSSGt1k5SAIhQJPNW64IzXPtTvu9NTUkl+N32tLgjdrtxuB9y8p89nMdmaz0tEWbX43uTqDJR6q1MgbZ4e5saW9M76CDCRbhC0prGMErHPQDodyiKA84fpHw9ppcQYxCsM+xjhMms3LnshGFsyRJ/ovgF7M+odOLVYHUqRTxqPHo98WbScNF+uBohnzRwEb7j5yzzeyvd1YJhuvoWJEDVEV7ohIJ5msbk1ZMXpukhJeNDO/IR197VTFnOaA039+NLO8ftQFdpKzDPlFr5ikZx4IUikH5+k+TpUIq9VG+jBuc1TJDHoaJhw==","691f8ca61c6b4dcbb0aeb5f4","691fb4271f4655b50de8175a","index1","<span style='color:red'>Fail,<span style='color:red'>Fail,<span style='color:green'>Lift,<span style='color:green'>Lift,<span style='color:red'>Fail,<span style='color:red'>Fail,<span style='color:red'>Fail,<span style='color:red'>Fail,<span style='color:green'>Lift,<span style='color:red'>Fail,<span style='color:green'>Lift,<span style='color:red'>Fail","<span style='color:red'>Fail,<span style='color:red'>Fail,<span style='color:green'>Lift,<span style='color:green'>Lift,<span style='color:green'>Lift,<span style='color:green'>Lift,<span style='color:green'>Lift,<span style='color:red'>Fail,<span style='color:green'>Lift,<span style='color:green'>Lift,<span style='color:green'>Lift,<span style='color:red'>Fail","<span style='color:red'>Fail,<span style='color:green'>Lift,<span style='color:green'>Lift,<span style='color:red'>Fail,<span style='color:green'>Lift,<span style='color:green'>Lift","0,0,1,1,0,0,0,0,1,0,1,0","0,0,1,1,1,1,1,0,1,1,1,0","0,1,1,0,1,1",10,20,20,"","","","","{""box1"":""5"",""box2"":""2"",""box3"":""999"",""box4"":""999""}","",NA,5,"round3_fail",5,4,3,5,2,NA,NA,0,0,20,NA,NA,NA,NA,NA,NA,NA,NA,NA,NA,NA,NA,NA,NA,NA,NA,NA,NA,NA,NA,1,1,5,2,0,0,20,NA,NA,"",NA,NA,NA,NA,NA,NA,NA,NA,2025-11-21 00:46:46
"null","https://psyc-201.github.io/xiang2023/exp/index1.html?PROLIFIC_PID=REDACTED&STUDY_ID=691f8ca61c6b4dcbb0aeb5f4&SESSION_ID=691fb4271f4655b50de8175a","html-keyboard-response",35,427299,"0.0-343.0","EV0xadaJJmQ7ZpX+0rG/e4STqkpPPsbtWSSGt1k5SAIhQJPNW64IzXPtTvu9NTUkl+N32tLgjdrtxuB9y8p89nMdmaz0tEWbX43uTqDJR6q1MgbZ4e5saW9M76CDCRbhC0prGMErHPQDodyiKA84fpHw9ppcQYxCsM+xjhMms3LnshGFsyRJ/ovgF7M+odOLVYHUqRTxqPHo98WbScNF+uBohnzRwEb7j5yzzeyvd1YJhuvoWJEDVEV7ohIJ5msbk1ZMXpukhJeNDO/IR197VTFnOaA039+NLO8ftQFdpKzDPlFr5ikZx4IUikH5+k+TpUIq9VG+jBuc1TJDHoaJhw==","691f8ca61c6b4dcbb0aeb5f4","691fb4271f4655b50de8175a","index1","<span style='color:red'>Fail,<span style='color:red'>Fail,<span style='color:green'>Lift,<span style='color:green'>Lift,<span style='color:red'>Fail,<span style='color:red'>Fail,<span style='color:red'>Fail,<span style='color:red'>Fail,<span style='color:green'>Lift,<span style='color:red'>Fail,<span style='color:green'>Lift,<span style='color:red'>Fail","<span style='color:red'>Fail,<span style='color:red'>Fail,<span style='color:green'>Lift,<span style='color:green'>Lift,<span style='color:green'>Lift,<span style='color:green'>Lift,<span style='color:green'>Lift,<span style='color:red'>Fail,<span style='color:green'>Lift,<span style='color:green'>Lift,<span style='color:green'>Lift,<span style='color:red'>Fail","<span style='color:red'>Fail,<span style='color:green'>Lift,<span style='color:green'>Lift,<span style='color:red'>Fail,<span style='color:green'>Lift,<span style='color:green'>Lift","0,0,1,1,0,0,0,0,1,0,1,0","0,0,1,1,1,1,1,0,1,1,1,0","0,1,1,0,1,1",10,20,20,"","","<p style='font-size:30px'><b> New Contest! </b></p>","null","","",NA,5,"",NA,NA,NA,NA,NA,NA,NA,NA,NA,NA,NA,NA,NA,NA,NA,NA,NA,NA,NA,NA,NA,NA,NA,NA,NA,NA,NA,NA,NA,NA,NA,NA,NA,NA,NA,NA,NA,NA,NA,"",NA,NA,NA,NA,NA,NA,NA,NA,2025-11-21 00:46:46
"12949.899999999441","https://psyc-201.github.io/xiang2023/exp/index1.html?PROLIFIC_PID=REDACTED&STUDY_ID=691f8ca61c6b4dcbb0aeb5f4&SESSION_ID=691fb4271f4655b50de8175a","survey-html-form",36,440253,"0.0-344.0","EV0xadaJJmQ7ZpX+0rG/e4STqkpPPsbtWSSGt1k5SAIhQJPNW64IzXPtTvu9NTUkl+N32tLgjdrtxuB9y8p89nMdmaz0tEWbX43uTqDJR6q1MgbZ4e5saW9M76CDCRbhC0prGMErHPQDodyiKA84fpHw9ppcQYxCsM+xjhMms3LnshGFsyRJ/ovgF7M+odOLVYHUqRTxqPHo98WbScNF+uBohnzRwEb7j5yzzeyvd1YJhuvoWJEDVEV7ohIJ5msbk1ZMXpukhJeNDO/IR197VTFnOaA039+NLO8ftQFdpKzDPlFr5ikZx4IUikH5+k+TpUIq9VG+jBuc1TJDHoaJhw==","691f8ca61c6b4dcbb0aeb5f4","691fb4271f4655b50de8175a","index1","<span style='color:red'>Fail,<span style='color:red'>Fail,<span style='color:green'>Lift,<span style='color:green'>Lift,<span style='color:red'>Fail,<span style='color:red'>Fail,<span style='color:red'>Fail,<span style='color:red'>Fail,<span style='color:green'>Lift,<span style='color:red'>Fail,<span style='color:green'>Lift,<span style='color:red'>Fail","<span style='color:red'>Fail,<span style='color:red'>Fail,<span style='color:green'>Lift,<span style='color:green'>Lift,<span style='color:green'>Lift,<span style='color:green'>Lift,<span style='color:green'>Lift,<span style='color:red'>Fail,<span style='color:green'>Lift,<span style='color:green'>Lift,<span style='color:green'>Lift,<span style='color:red'>Fail","<span style='color:red'>Fail,<span style='color:green'>Lift,<span style='color:green'>Lift,<span style='color:red'>Fail,<span style='color:green'>Lift,<span style='color:green'>Lift","0,0,1,1,0,0,0,0,1,0,1,0","0,0,1,1,1,1,1,0,1,1,1,0","0,1,1,0,1,1",10,20,20,"","","","","{""box1"":""6"",""box2"":""3"",""box3"":""70""}","",NA,5,"round1_outcome",1,5,1,6,3,70,NA,1,0,10,6,3,70,NA,1,0,10,NA,NA,NA,NA,NA,NA,NA,NA,NA,NA,NA,NA,NA,NA,NA,NA,NA,NA,NA,NA,NA,NA,"",NA,NA,NA,NA,NA,NA,NA,NA,2025-11-21 00:46:46
"6728.299999999814","https://psyc-201.github.io/xiang2023/exp/index1.html?PROLIFIC_PID=REDACTED&STUDY_ID=691f8ca61c6b4dcbb0aeb5f4&SESSION_ID=691fb4271f4655b50de8175a","survey-html-form",37,446984,"0.0-345.0","EV0xadaJJmQ7ZpX+0rG/e4STqkpPPsbtWSSGt1k5SAIhQJPNW64IzXPtTvu9NTUkl+N32tLgjdrtxuB9y8p89nMdmaz0tEWbX43uTqDJR6q1MgbZ4e5saW9M76CDCRbhC0prGMErHPQDodyiKA84fpHw9ppcQYxCsM+xjhMms3LnshGFsyRJ/ovgF7M+odOLVYHUqRTxqPHo98WbScNF+uBohnzRwEb7j5yzzeyvd1YJhuvoWJEDVEV7ohIJ5msbk1ZMXpukhJeNDO/IR197VTFnOaA039+NLO8ftQFdpKzDPlFr5ikZx4IUikH5+k+TpUIq9VG+jBuc1TJDHoaJhw==","691f8ca61c6b4dcbb0aeb5f4","691fb4271f4655b50de8175a","index1","<span style='color:red'>Fail,<span style='color:red'>Fail,<span style='color:green'>Lift,<span style='color:green'>Lift,<span style='color:red'>Fail,<span style='color:red'>Fail,<span style='color:red'>Fail,<span style='color:red'>Fail,<span style='color:green'>Lift,<span style='color:red'>Fail,<span style='color:green'>Lift,<span style='color:red'>Fail","<span style='color:red'>Fail,<span style='color:red'>Fail,<span style='color:green'>Lift,<span style='color:green'>Lift,<span style='color:green'>Lift,<span style='color:green'>Lift,<span style='color:green'>Lift,<span style='color:red'>Fail,<span style='color:green'>Lift,<span style='color:green'>Lift,<span style='color:green'>Lift,<span style='color:red'>Fail","<span style='color:red'>Fail,<span style='color:green'>Lift,<span style='color:green'>Lift,<span style='color:red'>Fail,<span style='color:green'>Lift,<span style='color:green'>Lift","0,0,1,1,0,0,0,0,1,0,1,0","0,0,1,1,1,1,1,0,1,1,1,0","0,1,1,0,1,1",10,20,20,"","","","","{""box1"":""60"",""box2"":""20""}","",NA,5,"round2_ready",2,5,2,NA,NA,NA,NA,NA,NA,NA,NA,NA,NA,NA,NA,NA,NA,60,20,60,20,NA,NA,NA,NA,NA,NA,NA,NA,NA,NA,NA,NA,NA,NA,NA,NA,NA,NA,"",NA,NA,NA,NA,NA,NA,NA,NA,2025-11-21 00:46:46
"11135.900000000373","https://psyc-201.github.io/xiang2023/exp/index1.html?PROLIFIC_PID=REDACTED&STUDY_ID=691f8ca61c6b4dcbb0aeb5f4&SESSION_ID=691fb4271f4655b50de8175a","survey-html-form",38,458121,"0.0-346.0","EV0xadaJJmQ7ZpX+0rG/e4STqkpPPsbtWSSGt1k5SAIhQJPNW64IzXPtTvu9NTUkl+N32tLgjdrtxuB9y8p89nMdmaz0tEWbX43uTqDJR6q1MgbZ4e5saW9M76CDCRbhC0prGMErHPQDodyiKA84fpHw9ppcQYxCsM+xjhMms3LnshGFsyRJ/ovgF7M+odOLVYHUqRTxqPHo98WbScNF+uBohnzRwEb7j5yzzeyvd1YJhuvoWJEDVEV7ohIJ5msbk1ZMXpukhJeNDO/IR197VTFnOaA039+NLO8ftQFdpKzDPlFr5ikZx4IUikH5+k+TpUIq9VG+jBuc1TJDHoaJhw==","691f8ca61c6b4dcbb0aeb5f4","691fb4271f4655b50de8175a","index1","<span style='color:red'>Fail,<span style='color:red'>Fail,<span style='color:green'>Lift,<span style='color:green'>Lift,<span style='color:red'>Fail,<span style='color:red'>Fail,<span style='color:red'>Fail,<span style='color:red'>Fail,<span style='color:green'>Lift,<span style='color:red'>Fail,<span style='color:green'>Lift,<span style='color:red'>Fail","<span style='color:red'>Fail,<span style='color:red'>Fail,<span style='color:green'>Lift,<span style='color:green'>Lift,<span style='color:green'>Lift,<span style='color:green'>Lift,<span style='color:green'>Lift,<span style='color:red'>Fail,<span style='color:green'>Lift,<span style='color:green'>Lift,<span style='color:green'>Lift,<span style='color:red'>Fail","<span style='color:red'>Fail,<span style='color:green'>Lift,<span style='color:green'>Lift,<span style='color:red'>Fail,<span style='color:green'>Lift,<span style='color:green'>Lift","0,0,1,1,0,0,0,0,1,0,1,0","0,0,1,1,1,1,1,0,1,1,1,0","0,1,1,0,1,1",10,20,20,"","","","","{""box1"":""7"",""box2"":""2"",""box3"":""80""}","",NA,5,"round2_outcome",3,5,2,7,2,80,NA,1,0,20,NA,NA,NA,NA,NA,NA,NA,NA,NA,NA,NA,7,2,80,NA,1,0,20,NA,NA,NA,NA,NA,NA,NA,NA,NA,NA,NA,"",NA,NA,NA,NA,NA,NA,NA,NA,2025-11-21 00:46:46
"4501.800000000745","https://psyc-201.github.io/xiang2023/exp/index1.html?PROLIFIC_PID=REDACTED&STUDY_ID=691f8ca61c6b4dcbb0aeb5f4&SESSION_ID=691fb4271f4655b50de8175a","survey-html-form",39,462625,"0.0-347.0","EV0xadaJJmQ7ZpX+0rG/e4STqkpPPsbtWSSGt1k5SAIhQJPNW64IzXPtTvu9NTUkl+N32tLgjdrtxuB9y8p89nMdmaz0tEWbX43uTqDJR6q1MgbZ4e5saW9M76CDCRbhC0prGMErHPQDodyiKA84fpHw9ppcQYxCsM+xjhMms3LnshGFsyRJ/ovgF7M+odOLVYHUqRTxqPHo98WbScNF+uBohnzRwEb7j5yzzeyvd1YJhuvoWJEDVEV7ohIJ5msbk1ZMXpukhJeNDO/IR197VTFnOaA039+NLO8ftQFdpKzDPlFr5ikZx4IUikH5+k+TpUIq9VG+jBuc1TJDHoaJhw==","691f8ca61c6b4dcbb0aeb5f4","691fb4271f4655b50de8175a","index1","<span style='color:red'>Fail,<span style='color:red'>Fail,<span style='color:green'>Lift,<span style='color:green'>Lift,<span style='color:red'>Fail,<span style='color:red'>Fail,<span style='color:red'>Fail,<span style='color:red'>Fail,<span style='color:green'>Lift,<span style='color:red'>Fail,<span style='color:green'>Lift,<span style='color:red'>Fail","<span style='color:red'>Fail,<span style='color:red'>Fail,<span style='color:green'>Lift,<span style='color:green'>Lift,<span style='color:green'>Lift,<span style='color:green'>Lift,<span style='color:green'>Lift,<span style='color:red'>Fail,<span style='color:green'>Lift,<span style='color:green'>Lift,<span style='color:green'>Lift,<span style='color:red'>Fail","<span style='color:red'>Fail,<span style='color:green'>Lift,<span style='color:green'>Lift,<span style='color:red'>Fail,<span style='color:green'>Lift,<span style='color:green'>Lift","0,0,1,1,0,0,0,0,1,0,1,0","0,0,1,1,1,1,1,0,1,1,1,0","0,1,1,0,1,1",10,20,20,"","","","","{""box1"":""30""}","",NA,5,"round3_ready",4,5,3,NA,NA,NA,NA,NA,NA,NA,NA,NA,NA,NA,NA,NA,NA,30,30,NA,NA,NA,NA,NA,NA,NA,NA,NA,30,30,NA,NA,NA,NA,NA,NA,NA,NA,NA,"",NA,NA,NA,NA,NA,NA,NA,NA,2025-11-21 00:46:46
"13026.300000000745","https://psyc-201.github.io/xiang2023/exp/index1.html?PROLIFIC_PID=REDACTED&STUDY_ID=691f8ca61c6b4dcbb0aeb5f4&SESSION_ID=691fb4271f4655b50de8175a","survey-html-form",40,475653,"0.0-348.0-0.0","EV0xadaJJmQ7ZpX+0rG/e4STqkpPPsbtWSSGt1k5SAIhQJPNW64IzXPtTvu9NTUkl+N32tLgjdrtxuB9y8p89nMdmaz0tEWbX43uTqDJR6q1MgbZ4e5saW9M76CDCRbhC0prGMErHPQDodyiKA84fpHw9ppcQYxCsM+xjhMms3LnshGFsyRJ/ovgF7M+odOLVYHUqRTxqPHo98WbScNF+uBohnzRwEb7j5yzzeyvd1YJhuvoWJEDVEV7ohIJ5msbk1ZMXpukhJeNDO/IR197VTFnOaA039+NLO8ftQFdpKzDPlFr5ikZx4IUikH5+k+TpUIq9VG+jBuc1TJDHoaJhw==","691f8ca61c6b4dcbb0aeb5f4","691fb4271f4655b50de8175a","index1","<span style='color:red'>Fail,<span style='color:red'>Fail,<span style='color:green'>Lift,<span style='color:green'>Lift,<span style='color:red'>Fail,<span style='color:red'>Fail,<span style='color:red'>Fail,<span style='color:red'>Fail,<span style='color:green'>Lift,<span style='color:red'>Fail,<span style='color:green'>Lift,<span style='color:red'>Fail","<span style='color:red'>Fail,<span style='color:red'>Fail,<span style='color:green'>Lift,<span style='color:green'>Lift,<span style='color:green'>Lift,<span style='color:green'>Lift,<span style='color:green'>Lift,<span style='color:red'>Fail,<span style='color:green'>Lift,<span style='color:green'>Lift,<span style='color:green'>Lift,<span style='color:red'>Fail","<span style='color:red'>Fail,<span style='color:green'>Lift,<span style='color:green'>Lift,<span style='color:red'>Fail,<span style='color:green'>Lift,<span style='color:green'>Lift","0,0,1,1,0,0,0,0,1,0,1,0","0,0,1,1,1,1,1,0,1,1,1,0","0,1,1,0,1,1",10,20,20,"","","","","{""box1"":""9"",""box2"":""3"",""box3"":""85"",""box4"":""100""}","",NA,6,"round3_lift",5,5,3,9,3,85,100,1,1,20,NA,NA,NA,NA,NA,NA,NA,NA,NA,NA,NA,NA,NA,NA,NA,NA,NA,NA,NA,NA,NA,NA,9,3,1,1,20,85,100,"",NA,NA,NA,NA,NA,NA,NA,NA,2025-11-21 00:46:46
"null","https://psyc-201.github.io/xiang2023/exp/index1.html?PROLIFIC_PID=REDACTED&STUDY_ID=691f8ca61c6b4dcbb0aeb5f4&SESSION_ID=691fb4271f4655b50de8175a","html-keyboard-response",41,478669,"0.0-352.0","EV0xadaJJmQ7ZpX+0rG/e4STqkpPPsbtWSSGt1k5SAIhQJPNW64IzXPtTvu9NTUkl+N32tLgjdrtxuB9y8p89nMdmaz0tEWbX43uTqDJR6q1MgbZ4e5saW9M76CDCRbhC0prGMErHPQDodyiKA84fpHw9ppcQYxCsM+xjhMms3LnshGFsyRJ/ovgF7M+odOLVYHUqRTxqPHo98WbScNF+uBohnzRwEb7j5yzzeyvd1YJhuvoWJEDVEV7ohIJ5msbk1ZMXpukhJeNDO/IR197VTFnOaA039+NLO8ftQFdpKzDPlFr5ikZx4IUikH5+k+TpUIq9VG+jBuc1TJDHoaJhw==","691f8ca61c6b4dcbb0aeb5f4","691fb4271f4655b50de8175a","index1","<span style='color:red'>Fail,<span style='color:red'>Fail,<span style='color:green'>Lift,<span style='color:green'>Lift,<span style='color:red'>Fail,<span style='color:red'>Fail,<span style='color:red'>Fail,<span style='color:red'>Fail,<span style='color:green'>Lift,<span style='color:red'>Fail,<span style='color:green'>Lift,<span style='color:red'>Fail","<span style='color:red'>Fail,<span style='color:red'>Fail,<span style='color:green'>Lift,<span style='color:green'>Lift,<span style='color:green'>Lift,<span style='color:green'>Lift,<span style='color:green'>Lift,<span style='color:red'>Fail,<span style='color:green'>Lift,<span style='color:green'>Lift,<span style='color:green'>Lift,<span style='color:red'>Fail","<span style='color:red'>Fail,<span style='color:green'>Lift,<span style='color:green'>Lift,<span style='color:red'>Fail,<span style='color:green'>Lift,<span style='color:green'>Lift","0,0,1,1,0,0,0,0,1,0,1,0","0,0,1,1,1,1,1,0,1,1,1,0","0,1,1,0,1,1",10,20,20,"","","<p style='font-size:30px'><b> New Contest! </b></p>","null","","",NA,6,"",NA,NA,NA,NA,NA,NA,NA,NA,NA,NA,NA,NA,NA,NA,NA,NA,NA,NA,NA,NA,NA,NA,NA,NA,NA,NA,NA,NA,NA,NA,NA,NA,NA,NA,NA,NA,NA,NA,NA,"",NA,NA,NA,NA,NA,NA,NA,NA,2025-11-21 00:46:46
"8608.200000000186","https://psyc-201.github.io/xiang2023/exp/index1.html?PROLIFIC_PID=REDACTED&STUDY_ID=691f8ca61c6b4dcbb0aeb5f4&SESSION_ID=691fb4271f4655b50de8175a","survey-html-form",42,487280,"0.0-353.0","EV0xadaJJmQ7ZpX+0rG/e4STqkpPPsbtWSSGt1k5SAIhQJPNW64IzXPtTvu9NTUkl+N32tLgjdrtxuB9y8p89nMdmaz0tEWbX43uTqDJR6q1MgbZ4e5saW9M76CDCRbhC0prGMErHPQDodyiKA84fpHw9ppcQYxCsM+xjhMms3LnshGFsyRJ/ovgF7M+odOLVYHUqRTxqPHo98WbScNF+uBohnzRwEb7j5yzzeyvd1YJhuvoWJEDVEV7ohIJ5msbk1ZMXpukhJeNDO/IR197VTFnOaA039+NLO8ftQFdpKzDPlFr5ikZx4IUikH5+k+TpUIq9VG+jBuc1TJDHoaJhw==","691f8ca61c6b4dcbb0aeb5f4","691fb4271f4655b50de8175a","index1","<span style='color:red'>Fail,<span style='color:red'>Fail,<span style='color:green'>Lift,<span style='color:green'>Lift,<span style='color:red'>Fail,<span style='color:red'>Fail,<span style='color:red'>Fail,<span style='color:red'>Fail,<span style='color:green'>Lift,<span style='color:red'>Fail,<span style='color:green'>Lift,<span style='color:red'>Fail","<span style='color:red'>Fail,<span style='color:red'>Fail,<span style='color:green'>Lift,<span style='color:green'>Lift,<span style='color:green'>Lift,<span style='color:green'>Lift,<span style='color:green'>Lift,<span style='color:red'>Fail,<span style='color:green'>Lift,<span style='color:green'>Lift,<span style='color:green'>Lift,<span style='color:red'>Fail","<span style='color:red'>Fail,<span style='color:green'>Lift,<span style='color:green'>Lift,<span style='color:red'>Fail,<span style='color:green'>Lift,<span style='color:green'>Lift","0,0,1,1,0,0,0,0,1,0,1,0","0,0,1,1,1,1,1,0,1,1,1,0","0,1,1,0,1,1",10,20,20,"","","","","{""box1"":""8"",""box2"":""8"",""box3"":""75"",""box4"":""75""}","",NA,6,"round1_outcome",1,6,1,8,8,75,75,1,1,10,8,8,75,75,1,1,10,NA,NA,NA,NA,NA,NA,NA,NA,NA,NA,NA,NA,NA,NA,NA,NA,NA,NA,NA,NA,NA,NA,"",NA,NA,NA,NA,NA,NA,NA,NA,2025-11-21 00:46:46
"5053.799999999814","https://psyc-201.github.io/xiang2023/exp/index1.html?PROLIFIC_PID=REDACTED&STUDY_ID=691f8ca61c6b4dcbb0aeb5f4&SESSION_ID=691fb4271f4655b50de8175a","survey-html-form",43,492335,"0.0-354.0","EV0xadaJJmQ7ZpX+0rG/e4STqkpPPsbtWSSGt1k5SAIhQJPNW64IzXPtTvu9NTUkl+N32tLgjdrtxuB9y8p89nMdmaz0tEWbX43uTqDJR6q1MgbZ4e5saW9M76CDCRbhC0prGMErHPQDodyiKA84fpHw9ppcQYxCsM+xjhMms3LnshGFsyRJ/ovgF7M+odOLVYHUqRTxqPHo98WbScNF+uBohnzRwEb7j5yzzeyvd1YJhuvoWJEDVEV7ohIJ5msbk1ZMXpukhJeNDO/IR197VTFnOaA039+NLO8ftQFdpKzDPlFr5ikZx4IUikH5+k+TpUIq9VG+jBuc1TJDHoaJhw==","691f8ca61c6b4dcbb0aeb5f4","691fb4271f4655b50de8175a","index1","<span style='color:red'>Fail,<span style='color:red'>Fail,<span style='color:green'>Lift,<span style='color:green'>Lift,<span style='color:red'>Fail,<span style='color:red'>Fail,<span style='color:red'>Fail,<span style='color:red'>Fail,<span style='color:green'>Lift,<span style='color:red'>Fail,<span style='color:green'>Lift,<span style='color:red'>Fail","<span style='color:red'>Fail,<span style='color:red'>Fail,<span style='color:green'>Lift,<span style='color:green'>Lift,<span style='color:green'>Lift,<span style='color:green'>Lift,<span style='color:green'>Lift,<span style='color:red'>Fail,<span style='color:green'>Lift,<span style='color:green'>Lift,<span style='color:green'>Lift,<span style='color:red'>Fail","<span style='color:red'>Fail,<span style='color:green'>Lift,<span style='color:green'>Lift,<span style='color:red'>Fail,<span style='color:green'>Lift,<span style='color:green'>Lift","0,0,1,1,0,0,0,0,1,0,1,0","0,0,1,1,1,1,1,0,1,1,1,0","0,1,1,0,1,1",10,20,20,"","","","","{""box1"":""80"",""box2"":""80""}","",NA,6,"round2_ready",2,6,2,NA,NA,NA,NA,NA,NA,NA,NA,NA,NA,NA,NA,NA,NA,80,80,80,80,NA,NA,NA,NA,NA,NA,NA,NA,NA,NA,NA,NA,NA,NA,NA,NA,NA,NA,"",NA,NA,NA,NA,NA,NA,NA,NA,2025-11-21 00:46:46
"9147.800000000745","https://psyc-201.github.io/xiang2023/exp/index1.html?PROLIFIC_PID=REDACTED&STUDY_ID=691f8ca61c6b4dcbb0aeb5f4&SESSION_ID=691fb4271f4655b50de8175a","survey-html-form",44,501485,"0.0-355.0","EV0xadaJJmQ7ZpX+0rG/e4STqkpPPsbtWSSGt1k5SAIhQJPNW64IzXPtTvu9NTUkl+N32tLgjdrtxuB9y8p89nMdmaz0tEWbX43uTqDJR6q1MgbZ4e5saW9M76CDCRbhC0prGMErHPQDodyiKA84fpHw9ppcQYxCsM+xjhMms3LnshGFsyRJ/ovgF7M+odOLVYHUqRTxqPHo98WbScNF+uBohnzRwEb7j5yzzeyvd1YJhuvoWJEDVEV7ohIJ5msbk1ZMXpukhJeNDO/IR197VTFnOaA039+NLO8ftQFdpKzDPlFr5ikZx4IUikH5+k+TpUIq9VG+jBuc1TJDHoaJhw==","691f8ca61c6b4dcbb0aeb5f4","691fb4271f4655b50de8175a","index1","<span style='color:red'>Fail,<span style='color:red'>Fail,<span style='color:green'>Lift,<span style='color:green'>Lift,<span style='color:red'>Fail,<span style='color:red'>Fail,<span style='color:red'>Fail,<span style='color:red'>Fail,<span style='color:green'>Lift,<span style='color:red'>Fail,<span style='color:green'>Lift,<span style='color:red'>Fail","<span style='color:red'>Fail,<span style='color:red'>Fail,<span style='color:green'>Lift,<span style='color:green'>Lift,<span style='color:green'>Lift,<span style='color:green'>Lift,<span style='color:green'>Lift,<span style='color:red'>Fail,<span style='color:green'>Lift,<span style='color:green'>Lift,<span style='color:green'>Lift,<span style='color:red'>Fail","<span style='color:red'>Fail,<span style='color:green'>Lift,<span style='color:green'>Lift,<span style='color:red'>Fail,<span style='color:green'>Lift,<span style='color:green'>Lift","0,0,1,1,0,0,0,0,1,0,1,0","0,0,1,1,1,1,1,0,1,1,1,0","0,1,1,0,1,1",10,20,20,"","","","","{""box1"":""9"",""box2"":""9"",""box3"":""80"",""box4"":""80""}","",NA,6,"round2_outcome",3,6,2,9,9,80,80,1,1,20,NA,NA,NA,NA,NA,NA,NA,NA,NA,NA,NA,9,9,80,80,1,1,20,NA,NA,NA,NA,NA,NA,NA,NA,NA,NA,NA,"",NA,NA,NA,NA,NA,NA,NA,NA,2025-11-21 00:46:46
"3202.100000000559","https://psyc-201.github.io/xiang2023/exp/index1.html?PROLIFIC_PID=REDACTED&STUDY_ID=691f8ca61c6b4dcbb0aeb5f4&SESSION_ID=691fb4271f4655b50de8175a","survey-html-form",45,504689,"0.0-356.0","EV0xadaJJmQ7ZpX+0rG/e4STqkpPPsbtWSSGt1k5SAIhQJPNW64IzXPtTvu9NTUkl+N32tLgjdrtxuB9y8p89nMdmaz0tEWbX43uTqDJR6q1MgbZ4e5saW9M76CDCRbhC0prGMErHPQDodyiKA84fpHw9ppcQYxCsM+xjhMms3LnshGFsyRJ/ovgF7M+odOLVYHUqRTxqPHo98WbScNF+uBohnzRwEb7j5yzzeyvd1YJhuvoWJEDVEV7ohIJ5msbk1ZMXpukhJeNDO/IR197VTFnOaA039+NLO8ftQFdpKzDPlFr5ikZx4IUikH5+k+TpUIq9VG+jBuc1TJDHoaJhw==","691f8ca61c6b4dcbb0aeb5f4","691fb4271f4655b50de8175a","index1","<span style='color:red'>Fail,<span style='color:red'>Fail,<span style='color:green'>Lift,<span style='color:green'>Lift,<span style='color:red'>Fail,<span style='color:red'>Fail,<span style='color:red'>Fail,<span style='color:red'>Fail,<span style='color:green'>Lift,<span style='color:red'>Fail,<span style='color:green'>Lift,<span style='color:red'>Fail","<span style='color:red'>Fail,<span style='color:red'>Fail,<span style='color:green'>Lift,<span style='color:green'>Lift,<span style='color:green'>Lift,<span style='color:green'>Lift,<span style='color:green'>Lift,<span style='color:red'>Fail,<span style='color:green'>Lift,<span style='color:green'>Lift,<span style='color:green'>Lift,<span style='color:red'>Fail","<span style='color:red'>Fail,<span style='color:green'>Lift,<span style='color:green'>Lift,<span style='color:red'>Fail,<span style='color:green'>Lift,<span style='color:green'>Lift","0,0,1,1,0,0,0,0,1,0,1,0","0,0,1,1,1,1,1,0,1,1,1,0","0,1,1,0,1,1",10,20,20,"","","","","{""box1"":""100""}","",NA,6,"round3_ready",4,6,3,NA,NA,NA,NA,NA,NA,NA,NA,NA,NA,NA,NA,NA,NA,100,100,NA,NA,NA,NA,NA,NA,NA,NA,NA,100,100,NA,NA,NA,NA,NA,NA,NA,NA,NA,"",NA,NA,NA,NA,NA,NA,NA,NA,2025-11-21 00:46:46
"8361.700000000186","https://psyc-201.github.io/xiang2023/exp/index1.html?PROLIFIC_PID=REDACTED&STUDY_ID=691f8ca61c6b4dcbb0aeb5f4&SESSION_ID=691fb4271f4655b50de8175a","survey-html-form",46,513053,"0.0-357.0-0.0","EV0xadaJJmQ7ZpX+0rG/e4STqkpPPsbtWSSGt1k5SAIhQJPNW64IzXPtTvu9NTUkl+N32tLgjdrtxuB9y8p89nMdmaz0tEWbX43uTqDJR6q1MgbZ4e5saW9M76CDCRbhC0prGMErHPQDodyiKA84fpHw9ppcQYxCsM+xjhMms3LnshGFsyRJ/ovgF7M+odOLVYHUqRTxqPHo98WbScNF+uBohnzRwEb7j5yzzeyvd1YJhuvoWJEDVEV7ohIJ5msbk1ZMXpukhJeNDO/IR197VTFnOaA039+NLO8ftQFdpKzDPlFr5ikZx4IUikH5+k+TpUIq9VG+jBuc1TJDHoaJhw==","691f8ca61c6b4dcbb0aeb5f4","691fb4271f4655b50de8175a","index1","<span style='color:red'>Fail,<span style='color:red'>Fail,<span style='color:green'>Lift,<span style='color:green'>Lift,<span style='color:red'>Fail,<span style='color:red'>Fail,<span style='color:red'>Fail,<span style='color:red'>Fail,<span style='color:green'>Lift,<span style='color:red'>Fail,<span style='color:green'>Lift,<span style='color:red'>Fail","<span style='color:red'>Fail,<span style='color:red'>Fail,<span style='color:green'>Lift,<span style='color:green'>Lift,<span style='color:green'>Lift,<span style='color:green'>Lift,<span style='color:green'>Lift,<span style='color:red'>Fail,<span style='color:green'>Lift,<span style='color:green'>Lift,<span style='color:green'>Lift,<span style='color:red'>Fail","<span style='color:red'>Fail,<span style='color:green'>Lift,<span style='color:green'>Lift,<span style='color:red'>Fail,<span style='color:green'>Lift,<span style='color:green'>Lift","0,0,1,1,0,0,0,0,1,0,1,0","0,0,1,1,1,1,1,0,1,1,1,0","0,1,1,0,1,1",10,20,20,"","","","","{""box1"":""9"",""box2"":""9"",""box3"":""90"",""box4"":""90""}","",NA,6,"round3_lift",5,6,3,9,9,90,90,1,1,20,NA,NA,NA,NA,NA,NA,NA,NA,NA,NA,NA,NA,NA,NA,NA,NA,NA,NA,NA,NA,NA,NA,9,9,1,1,20,90,90,"",NA,NA,NA,NA,NA,NA,NA,NA,2025-11-21 00:46:46
"53987.200000000186","https://psyc-201.github.io/xiang2023/exp/index1.html?PROLIFIC_PID=REDACTED&STUDY_ID=691f8ca61c6b4dcbb0aeb5f4&SESSION_ID=691fb4271f4655b50de8175a","survey-text",47,567044,"0.0-361.0","EV0xadaJJmQ7ZpX+0rG/e4STqkpPPsbtWSSGt1k5SAIhQJPNW64IzXPtTvu9NTUkl+N32tLgjdrtxuB9y8p89nMdmaz0tEWbX43uTqDJR6q1MgbZ4e5saW9M76CDCRbhC0prGMErHPQDodyiKA84fpHw9ppcQYxCsM+xjhMms3LnshGFsyRJ/ovgF7M+odOLVYHUqRTxqPHo98WbScNF+uBohnzRwEb7j5yzzeyvd1YJhuvoWJEDVEV7ohIJ5msbk1ZMXpukhJeNDO/IR197VTFnOaA039+NLO8ftQFdpKzDPlFr5ikZx4IUikH5+k+TpUIq9VG+jBuc1TJDHoaJhw==","691f8ca61c6b4dcbb0aeb5f4","691fb4271f4655b50de8175a","index1","<span style='color:red'>Fail,<span style='color:red'>Fail,<span style='color:green'>Lift,<span style='color:green'>Lift,<span style='color:red'>Fail,<span style='color:red'>Fail,<span style='color:red'>Fail,<span style='color:red'>Fail,<span style='color:green'>Lift,<span style='color:red'>Fail,<span style='color:green'>Lift,<span style='color:red'>Fail","<span style='color:red'>Fail,<span style='color:red'>Fail,<span style='color:green'>Lift,<span style='color:green'>Lift,<span style='color:green'>Lift,<span style='color:green'>Lift,<span style='color:green'>Lift,<span style='color:red'>Fail,<span style='color:green'>Lift,<span style='color:green'>Lift,<span style='color:green'>Lift,<span style='color:red'>Fail","<span style='color:red'>Fail,<span style='color:green'>Lift,<span style='color:green'>Lift,<span style='color:red'>Fail,<span style='color:green'>Lift,<span style='color:green'>Lift","0,0,1,1,0,0,0,0,1,0,1,0","0,0,1,1,1,1,1,0,1,1,1,0","0,1,1,0,1,1",10,20,20,"","","","","{""Q0"":""There are two contestants that have to lift a box in three rounds and you have to predict how strong the contestants are and what's the probability of them lifting the box for each round, including the final round where they both lift together. ""}","",NA,NA,"",NA,NA,NA,NA,NA,NA,NA,NA,NA,NA,NA,NA,NA,NA,NA,NA,NA,NA,NA,NA,NA,NA,NA,NA,NA,NA,NA,NA,NA,NA,NA,NA,NA,NA,NA,NA,NA,NA,NA,"",NA,NA,NA,NA,NA,NA,NA,NA,2025-11-21 00:46:46
"6723.200000000186","https://psyc-201.github.io/xiang2023/exp/index1.html?PROLIFIC_PID=REDACTED&STUDY_ID=691f8ca61c6b4dcbb0aeb5f4&SESSION_ID=691fb4271f4655b50de8175a","survey-text",48,573769,"0.0-362.0","EV0xadaJJmQ7ZpX+0rG/e4STqkpPPsbtWSSGt1k5SAIhQJPNW64IzXPtTvu9NTUkl+N32tLgjdrtxuB9y8p89nMdmaz0tEWbX43uTqDJR6q1MgbZ4e5saW9M76CDCRbhC0prGMErHPQDodyiKA84fpHw9ppcQYxCsM+xjhMms3LnshGFsyRJ/ovgF7M+odOLVYHUqRTxqPHo98WbScNF+uBohnzRwEb7j5yzzeyvd1YJhuvoWJEDVEV7ohIJ5msbk1ZMXpukhJeNDO/IR197VTFnOaA039+NLO8ftQFdpKzDPlFr5ikZx4IUikH5+k+TpUIq9VG+jBuc1TJDHoaJhw==","691f8ca61c6b4dcbb0aeb5f4","691fb4271f4655b50de8175a","index1","<span style='color:red'>Fail,<span style='color:red'>Fail,<span style='color:green'>Lift,<span style='color:green'>Lift,<span style='color:red'>Fail,<span style='color:red'>Fail,<span style='color:red'>Fail,<span style='color:red'>Fail,<span style='color:green'>Lift,<span style='color:red'>Fail,<span style='color:green'>Lift,<span style='color:red'>Fail","<span style='color:red'>Fail,<span style='color:red'>Fail,<span style='color:green'>Lift,<span style='color:green'>Lift,<span style='color:green'>Lift,<span style='color:green'>Lift,<span style='color:green'>Lift,<span style='color:red'>Fail,<span style='color:green'>Lift,<span style='color:green'>Lift,<span style='color:green'>Lift,<span style='color:red'>Fail","<span style='color:red'>Fail,<span style='color:green'>Lift,<span style='color:green'>Lift,<span style='color:red'>Fail,<span style='color:green'>Lift,<span style='color:green'>Lift","0,0,1,1,0,0,0,0,1,0,1,0","0,0,1,1,1,1,1,0,1,1,1,0","0,1,1,0,1,1",10,20,20,"","","","","{""Q0"":""""}","",NA,NA,"",NA,NA,NA,NA,NA,NA,NA,NA,NA,NA,NA,NA,NA,NA,NA,NA,NA,NA,NA,NA,NA,NA,NA,NA,NA,NA,NA,NA,NA,NA,NA,NA,NA,NA,NA,NA,NA,NA,NA,"[{""event"":""fullscreenenter"",""trial"":1,""time"":7620}]",4,2,1,25,0,0.75,NA,NA,2025-11-21 00:46:46
"6929.700000000186","https://psyc-201.github.io/xiang2023/exp/index1.html?PROLIFIC_PID=REDACTED&STUDY_ID=691f8ca61c6b4dcbb0aeb5f4&SESSION_ID=691fb4271f4655b50de8175a","html-button-response",49,580701,"0.0-363.0","EV0xadaJJmQ7ZpX+0rG/e4STqkpPPsbtWSSGt1k5SAIhQJPNW64IzXPtTvu9NTUkl+N32tLgjdrtxuB9y8p89nMdmaz0tEWbX43uTqDJR6q1MgbZ4e5saW9M76CDCRbhC0prGMErHPQDodyiKA84fpHw9ppcQYxCsM+xjhMms3LnshGFsyRJ/ovgF7M+odOLVYHUqRTxqPHo98WbScNF+uBohnzRwEb7j5yzzeyvd1YJhuvoWJEDVEV7ohIJ5msbk1ZMXpukhJeNDO/IR197VTFnOaA039+NLO8ftQFdpKzDPlFr5ikZx4IUikH5+k+TpUIq9VG+jBuc1TJDHoaJhw==","691f8ca61c6b4dcbb0aeb5f4","691fb4271f4655b50de8175a","index1","<span style='color:red'>Fail,<span style='color:red'>Fail,<span style='color:green'>Lift,<span style='color:green'>Lift,<span style='color:red'>Fail,<span style='color:red'>Fail,<span style='color:red'>Fail,<span style='color:red'>Fail,<span style='color:green'>Lift,<span style='color:red'>Fail,<span style='color:green'>Lift,<span style='color:red'>Fail","<span style='color:red'>Fail,<span style='color:red'>Fail,<span style='color:green'>Lift,<span style='color:green'>Lift,<span style='color:green'>Lift,<span style='color:green'>Lift,<span style='color:green'>Lift,<span style='color:red'>Fail,<span style='color:green'>Lift,<span style='color:green'>Lift,<span style='color:green'>Lift,<span style='color:red'>Fail","<span style='color:red'>Fail,<span style='color:green'>Lift,<span style='color:green'>Lift,<span style='color:red'>Fail,<span style='color:green'>Lift,<span style='color:green'>Lift","0,0,1,1,0,0,0,0,1,0,1,0","0,0,1,1,1,1,1,0,1,1,1,0","0,1,1,0,1,1",10,20,20,"","","<p> We randomly picked <b>Contest 4, Round 2</b> to calculate your bonus. </p><p> The outcome of Contestant H on that round is <span style='color:red'>Fail</span>. </p><p> The probability you entered was 25. </p><p><b> You won a bonus of $0.75!</b></p><p> IMPORTANT: Please click 'Next' to complete the game.</p>","","","",0,NA,"",NA,NA,NA,NA,NA,NA,NA,NA,NA,NA,NA,NA,NA,NA,NA,NA,NA,NA,NA,NA,NA,NA,NA,NA,NA,NA,NA,NA,NA,NA,NA,NA,NA,NA,NA,NA,NA,NA,NA,"",NA,NA,NA,NA,NA,NA,2,1,2025-11-21 00:46:46
