"rt","url","trial_type","trial_index","time_elapsed","internal_node_id","encryptedProlificId","studyId","sessionId","expIndex","round1_outcomes","round2_outcomes","round3_outcomes","round1_o","round2_o","round3_o","round1_reward","round2_reward","round3_reward","success","view_history","stimulus","key_press","responses","question_order","j","Stage","stage","contest","round","strength_a","strength_b","effort_a","effort_b","outcome_a","outcome_b","reward","r1_strength_a","r1_strength_b","r1_effort_a","r1_effort_b","r1_outcome_a","r1_outcome_b","r1_reward","probability_a","probability_b","r2_prob_a","r2_prob_b","r2_strength_a","r2_strength_b","r2_effort_a","r2_effort_b","r2_outcome_a","r2_outcome_b","r2_reward","r3_prob_a","r3_prob_b","r3_strength_a","r3_strength_b","r3_effort_a","r3_effort_b","r3_outcome_a","r3_outcome_b","r3_reward","attention_check","count","already","screen","pick_contest","pick_round","pick_side","trial_probability","trial_outcome","bonus","button_pressed","attention_sum","attention","datapipe_meta.attributes.date_modified"
"9619.600000023842","https://psyc-201.github.io/xiang2023/exp/index1.html?PROLIFIC_PID=REDACTED&STUDY_ID=691f8ca61c6b4dcbb0aeb5f4&SESSION_ID=691f8ff0a585db83fa79a5c8","external-html",0,9665,"0.0-0.0","XW2avBpwxnbis+BVW/BHOaLnhqMcig+wLJUFdK7XYyyp6IbbcExGOQvrbX/fa3e4z/6VqSu6P4sV1KKAfE8ofjzQwzEPmDmWNaErWN1LLfC66dSldOM9manX7+vrbWrJaVhrK8WkymJud4Udcu01mDvD0f65tfl8trHHlSINWXIHjgy8lYrdxrB+HVqTT1gfk1iuCZbPvkfk05VaNzyJu0umfXh9Z7U4/lwcGJOQPhL/zBtCdbFJD0VfDkWAE4d53bWPUfEXmfJoMBKJVsrXCaBxFq6hw6eV6KN5NP8NNFSgaOYV4A6SlPYtCU9vWKHdWCE/f0cRZTOG5Sx5XrrLaA==","691f8ca61c6b4dcbb0aeb5f4","691f8ff0a585db83fa79a5c8","index1","<span style='color:red'>Fail,<span style='color:red'>Fail,<span style='color:green'>Lift,<span style='color:green'>Lift,<span style='color:red'>Fail,<span style='color:red'>Fail,<span style='color:red'>Fail,<span style='color:red'>Fail,<span style='color:red'>Fail,<span style='color:green'>Lift,<span style='color:green'>Lift,<span style='color:red'>Fail","<span style='color:red'>Fail,<span style='color:red'>Fail,<span style='color:green'>Lift,<span style='color:green'>Lift,<span style='color:green'>Lift,<span style='color:green'>Lift,<span style='color:red'>Fail,<span style='color:green'>Lift,<span style='color:green'>Lift,<span style='color:green'>Lift,<span style='color:green'>Lift,<span style='color:red'>Fail","<span style='color:red'>Fail,<span style='color:green'>Lift,<span style='color:green'>Lift,<span style='color:red'>Fail,<span style='color:green'>Lift,<span style='color:green'>Lift","0,0,1,1,0,0,0,0,0,1,1,0","0,0,1,1,1,1,0,1,1,1,1,0","0,1,1,0,1,1",10,20,20,"","","","","","",NA,"",NA,NA,NA,NA,NA,NA,NA,NA,NA,NA,NA,NA,NA,NA,NA,NA,NA,NA,NA,NA,NA,NA,NA,NA,NA,NA,NA,NA,NA,NA,NA,NA,NA,NA,NA,NA,NA,NA,NA,NA,"",NA,NA,NA,NA,NA,NA,NA,NA,NA,2025-11-20 22:13:04
"","https://psyc-201.github.io/xiang2023/exp/index1.html?PROLIFIC_PID=REDACTED&STUDY_ID=691f8ca61c6b4dcbb0aeb5f4&SESSION_ID=691f8ff0a585db83fa79a5c8","fullscreen",1,19015,"0.0-1.0","XW2avBpwxnbis+BVW/BHOaLnhqMcig+wLJUFdK7XYyyp6IbbcExGOQvrbX/fa3e4z/6VqSu6P4sV1KKAfE8ofjzQwzEPmDmWNaErWN1LLfC66dSldOM9manX7+vrbWrJaVhrK8WkymJud4Udcu01mDvD0f65tfl8trHHlSINWXIHjgy8lYrdxrB+HVqTT1gfk1iuCZbPvkfk05VaNzyJu0umfXh9Z7U4/lwcGJOQPhL/zBtCdbFJD0VfDkWAE4d53bWPUfEXmfJoMBKJVsrXCaBxFq6hw6eV6KN5NP8NNFSgaOYV4A6SlPYtCU9vWKHdWCE/f0cRZTOG5Sx5XrrLaA==","691f8ca61c6b4dcbb0aeb5f4","691f8ff0a585db83fa79a5c8","index1","<span style='color:red'>Fail,<span style='color:red'>Fail,<span style='color:green'>Lift,<span style='color:green'>Lift,<span style='color:red'>Fail,<span style='color:red'>Fail,<span style='color:red'>Fail,<span style='color:red'>Fail,<span style='color:red'>Fail,<span style='color:green'>Lift,<span style='color:green'>Lift,<span style='color:red'>Fail","<span style='color:red'>Fail,<span style='color:red'>Fail,<span style='color:green'>Lift,<span style='color:green'>Lift,<span style='color:green'>Lift,<span style='color:green'>Lift,<span style='color:red'>Fail,<span style='color:green'>Lift,<span style='color:green'>Lift,<span style='color:green'>Lift,<span style='color:green'>Lift,<span style='color:red'>Fail","<span style='color:red'>Fail,<span style='color:green'>Lift,<span style='color:green'>Lift,<span style='color:red'>Fail,<span style='color:green'>Lift,<span style='color:green'>Lift","0,0,1,1,0,0,0,0,0,1,1,0","0,0,1,1,1,1,0,1,1,1,1,0","0,1,1,0,1,1",10,20,20,"true","","","","","",NA,"",NA,NA,NA,NA,NA,NA,NA,NA,NA,NA,NA,NA,NA,NA,NA,NA,NA,NA,NA,NA,NA,NA,NA,NA,NA,NA,NA,NA,NA,NA,NA,NA,NA,NA,NA,NA,NA,NA,NA,NA,"",NA,NA,NA,NA,NA,NA,NA,NA,NA,2025-11-20 22:13:04
"150360.79999995232","https://psyc-201.github.io/xiang2023/exp/index1.html?PROLIFIC_PID=REDACTED&STUDY_ID=691f8ca61c6b4dcbb0aeb5f4&SESSION_ID=691f8ff0a585db83fa79a5c8","instructions",2,169376,"0.0-2.0","XW2avBpwxnbis+BVW/BHOaLnhqMcig+wLJUFdK7XYyyp6IbbcExGOQvrbX/fa3e4z/6VqSu6P4sV1KKAfE8ofjzQwzEPmDmWNaErWN1LLfC66dSldOM9manX7+vrbWrJaVhrK8WkymJud4Udcu01mDvD0f65tfl8trHHlSINWXIHjgy8lYrdxrB+HVqTT1gfk1iuCZbPvkfk05VaNzyJu0umfXh9Z7U4/lwcGJOQPhL/zBtCdbFJD0VfDkWAE4d53bWPUfEXmfJoMBKJVsrXCaBxFq6hw6eV6KN5NP8NNFSgaOYV4A6SlPYtCU9vWKHdWCE/f0cRZTOG5Sx5XrrLaA==","691f8ca61c6b4dcbb0aeb5f4","691f8ff0a585db83fa79a5c8","index1","<span style='color:red'>Fail,<span style='color:red'>Fail,<span style='color:green'>Lift,<span style='color:green'>Lift,<span style='color:red'>Fail,<span style='color:red'>Fail,<span style='color:red'>Fail,<span style='color:red'>Fail,<span style='color:red'>Fail,<span style='color:green'>Lift,<span style='color:green'>Lift,<span style='color:red'>Fail","<span style='color:red'>Fail,<span style='color:red'>Fail,<span style='color:green'>Lift,<span style='color:green'>Lift,<span style='color:green'>Lift,<span style='color:green'>Lift,<span style='color:red'>Fail,<span style='color:green'>Lift,<span style='color:green'>Lift,<span style='color:green'>Lift,<span style='color:green'>Lift,<span style='color:red'>Fail","<span style='color:red'>Fail,<span style='color:green'>Lift,<span style='color:green'>Lift,<span style='color:red'>Fail,<span style='color:green'>Lift,<span style='color:green'>Lift","0,0,1,1,0,0,0,0,0,1,1,0","0,0,1,1,1,1,0,1,1,1,1,0","0,1,1,0,1,1",10,20,20,"","[{""page_index"":0,""viewing_time"":44819.5},{""page_index"":1,""viewing_time"":19965.799999952316},{""page_index"":2,""viewing_time"":17007.399999976158},{""page_index"":3,""viewing_time"":25347.899999976158},{""page_index"":4,""viewing_time"":26747.200000047684},{""page_index"":5,""viewing_time"":10882.899999976158},{""page_index"":6,""viewing_time"":5589.800000071526}]","","","","",NA,"",NA,NA,NA,NA,NA,NA,NA,NA,NA,NA,NA,NA,NA,NA,NA,NA,NA,NA,NA,NA,NA,NA,NA,NA,NA,NA,NA,NA,NA,NA,NA,NA,NA,NA,NA,NA,NA,NA,NA,NA,"",NA,NA,NA,NA,NA,NA,NA,NA,NA,2025-11-20 22:13:04
"null","https://psyc-201.github.io/xiang2023/exp/index1.html?PROLIFIC_PID=REDACTED&STUDY_ID=691f8ca61c6b4dcbb0aeb5f4&SESSION_ID=691f8ff0a585db83fa79a5c8","html-keyboard-response",3,170386,"0.0-3.0","XW2avBpwxnbis+BVW/BHOaLnhqMcig+wLJUFdK7XYyyp6IbbcExGOQvrbX/fa3e4z/6VqSu6P4sV1KKAfE8ofjzQwzEPmDmWNaErWN1LLfC66dSldOM9manX7+vrbWrJaVhrK8WkymJud4Udcu01mDvD0f65tfl8trHHlSINWXIHjgy8lYrdxrB+HVqTT1gfk1iuCZbPvkfk05VaNzyJu0umfXh9Z7U4/lwcGJOQPhL/zBtCdbFJD0VfDkWAE4d53bWPUfEXmfJoMBKJVsrXCaBxFq6hw6eV6KN5NP8NNFSgaOYV4A6SlPYtCU9vWKHdWCE/f0cRZTOG5Sx5XrrLaA==","691f8ca61c6b4dcbb0aeb5f4","691f8ff0a585db83fa79a5c8","index1","<span style='color:red'>Fail,<span style='color:red'>Fail,<span style='color:green'>Lift,<span style='color:green'>Lift,<span style='color:red'>Fail,<span style='color:red'>Fail,<span style='color:red'>Fail,<span style='color:red'>Fail,<span style='color:red'>Fail,<span style='color:green'>Lift,<span style='color:green'>Lift,<span style='color:red'>Fail","<span style='color:red'>Fail,<span style='color:red'>Fail,<span style='color:green'>Lift,<span style='color:green'>Lift,<span style='color:green'>Lift,<span style='color:green'>Lift,<span style='color:red'>Fail,<span style='color:green'>Lift,<span style='color:green'>Lift,<span style='color:green'>Lift,<span style='color:green'>Lift,<span style='color:red'>Fail","<span style='color:red'>Fail,<span style='color:green'>Lift,<span style='color:green'>Lift,<span style='color:red'>Fail,<span style='color:green'>Lift,<span style='color:green'>Lift","0,0,1,1,0,0,0,0,0,1,1,0","0,0,1,1,1,1,0,1,1,1,1,0","0,1,1,0,1,1",10,20,20,"",""," ","null","","",NA,"",NA,NA,NA,NA,NA,NA,NA,NA,NA,NA,NA,NA,NA,NA,NA,NA,NA,NA,NA,NA,NA,NA,NA,NA,NA,NA,NA,NA,NA,NA,NA,NA,NA,NA,NA,NA,NA,NA,NA,NA,"",NA,NA,NA,NA,NA,NA,NA,NA,NA,2025-11-20 22:13:04
"43760.5","https://psyc-201.github.io/xiang2023/exp/index1.html?PROLIFIC_PID=REDACTED&STUDY_ID=691f8ca61c6b4dcbb0aeb5f4&SESSION_ID=691f8ff0a585db83fa79a5c8","survey-multi-choice",4,214149,"0.0-4.0","XW2avBpwxnbis+BVW/BHOaLnhqMcig+wLJUFdK7XYyyp6IbbcExGOQvrbX/fa3e4z/6VqSu6P4sV1KKAfE8ofjzQwzEPmDmWNaErWN1LLfC66dSldOM9manX7+vrbWrJaVhrK8WkymJud4Udcu01mDvD0f65tfl8trHHlSINWXIHjgy8lYrdxrB+HVqTT1gfk1iuCZbPvkfk05VaNzyJu0umfXh9Z7U4/lwcGJOQPhL/zBtCdbFJD0VfDkWAE4d53bWPUfEXmfJoMBKJVsrXCaBxFq6hw6eV6KN5NP8NNFSgaOYV4A6SlPYtCU9vWKHdWCE/f0cRZTOG5Sx5XrrLaA==","691f8ca61c6b4dcbb0aeb5f4","691f8ff0a585db83fa79a5c8","index1","<span style='color:red'>Fail,<span style='color:red'>Fail,<span style='color:green'>Lift,<span style='color:green'>Lift,<span style='color:red'>Fail,<span style='color:red'>Fail,<span style='color:red'>Fail,<span style='color:red'>Fail,<span style='color:red'>Fail,<span style='color:green'>Lift,<span style='color:green'>Lift,<span style='color:red'>Fail","<span style='color:red'>Fail,<span style='color:red'>Fail,<span style='color:green'>Lift,<span style='color:green'>Lift,<span style='color:green'>Lift,<span style='color:green'>Lift,<span style='color:red'>Fail,<span style='color:green'>Lift,<span style='color:green'>Lift,<span style='color:green'>Lift,<span style='color:green'>Lift,<span style='color:red'>Fail","<span style='color:red'>Fail,<span style='color:green'>Lift,<span style='color:green'>Lift,<span style='color:red'>Fail,<span style='color:green'>Lift,<span style='color:green'>Lift","0,0,1,1,0,0,0,0,0,1,1,0","0,0,1,1,1,1,0,1,1,1,1,0","0,1,1,0,1,1",10,20,20,"","","","","{""Q0"":""It consists of multiple contests, each contest with three rounds."",""Q1"":""When a new contest begins."",""Q2"":""The box weight always stays the same (equivalent to strength of 5)."",""Q3"":""Each will get $20."",""Q4"":""How close my guesses are to the actual outcome.""}","[0,1,2,3,4]",NA,"",NA,NA,NA,NA,NA,NA,NA,NA,NA,NA,NA,NA,NA,NA,NA,NA,NA,NA,NA,NA,NA,NA,NA,NA,NA,NA,NA,NA,NA,NA,NA,NA,NA,NA,NA,NA,NA,NA,NA,NA,"",NA,NA,NA,NA,NA,NA,NA,NA,NA,2025-11-20 22:13:04
"9235.5","https://psyc-201.github.io/xiang2023/exp/index1.html?PROLIFIC_PID=REDACTED&STUDY_ID=691f8ca61c6b4dcbb0aeb5f4&SESSION_ID=691f8ff0a585db83fa79a5c8","instructions",5,223388,"0.0-305.0","XW2avBpwxnbis+BVW/BHOaLnhqMcig+wLJUFdK7XYyyp6IbbcExGOQvrbX/fa3e4z/6VqSu6P4sV1KKAfE8ofjzQwzEPmDmWNaErWN1LLfC66dSldOM9manX7+vrbWrJaVhrK8WkymJud4Udcu01mDvD0f65tfl8trHHlSINWXIHjgy8lYrdxrB+HVqTT1gfk1iuCZbPvkfk05VaNzyJu0umfXh9Z7U4/lwcGJOQPhL/zBtCdbFJD0VfDkWAE4d53bWPUfEXmfJoMBKJVsrXCaBxFq6hw6eV6KN5NP8NNFSgaOYV4A6SlPYtCU9vWKHdWCE/f0cRZTOG5Sx5XrrLaA==","691f8ca61c6b4dcbb0aeb5f4","691f8ff0a585db83fa79a5c8","index1","<span style='color:red'>Fail,<span style='color:red'>Fail,<span style='color:green'>Lift,<span style='color:green'>Lift,<span style='color:red'>Fail,<span style='color:red'>Fail,<span style='color:red'>Fail,<span style='color:red'>Fail,<span style='color:red'>Fail,<span style='color:green'>Lift,<span style='color:green'>Lift,<span style='color:red'>Fail","<span style='color:red'>Fail,<span style='color:red'>Fail,<span style='color:green'>Lift,<span style='color:green'>Lift,<span style='color:green'>Lift,<span style='color:green'>Lift,<span style='color:red'>Fail,<span style='color:green'>Lift,<span style='color:green'>Lift,<span style='color:green'>Lift,<span style='color:green'>Lift,<span style='color:red'>Fail","<span style='color:red'>Fail,<span style='color:green'>Lift,<span style='color:green'>Lift,<span style='color:red'>Fail,<span style='color:green'>Lift,<span style='color:green'>Lift","0,0,1,1,0,0,0,0,0,1,1,0","0,0,1,1,1,1,0,1,1,1,1,0","0,1,1,0,1,1",10,20,20,"","[{""page_index"":0,""viewing_time"":4105.200000047684},{""page_index"":1,""viewing_time"":5130}]","","","","",NA,"",NA,NA,NA,NA,NA,NA,NA,NA,NA,NA,NA,NA,NA,NA,NA,NA,NA,NA,NA,NA,NA,NA,NA,NA,NA,NA,NA,NA,NA,NA,NA,NA,NA,NA,NA,NA,NA,NA,NA,NA,"",NA,NA,NA,NA,NA,NA,NA,NA,NA,2025-11-20 22:13:04
"null","https://psyc-201.github.io/xiang2023/exp/index1.html?PROLIFIC_PID=REDACTED&STUDY_ID=691f8ca61c6b4dcbb0aeb5f4&SESSION_ID=691f8ff0a585db83fa79a5c8","html-keyboard-response",6,224398,"0.0-306.0","XW2avBpwxnbis+BVW/BHOaLnhqMcig+wLJUFdK7XYyyp6IbbcExGOQvrbX/fa3e4z/6VqSu6P4sV1KKAfE8ofjzQwzEPmDmWNaErWN1LLfC66dSldOM9manX7+vrbWrJaVhrK8WkymJud4Udcu01mDvD0f65tfl8trHHlSINWXIHjgy8lYrdxrB+HVqTT1gfk1iuCZbPvkfk05VaNzyJu0umfXh9Z7U4/lwcGJOQPhL/zBtCdbFJD0VfDkWAE4d53bWPUfEXmfJoMBKJVsrXCaBxFq6hw6eV6KN5NP8NNFSgaOYV4A6SlPYtCU9vWKHdWCE/f0cRZTOG5Sx5XrrLaA==","691f8ca61c6b4dcbb0aeb5f4","691f8ff0a585db83fa79a5c8","index1","<span style='color:red'>Fail,<span style='color:red'>Fail,<span style='color:green'>Lift,<span style='color:green'>Lift,<span style='color:red'>Fail,<span style='color:red'>Fail,<span style='color:red'>Fail,<span style='color:red'>Fail,<span style='color:red'>Fail,<span style='color:green'>Lift,<span style='color:green'>Lift,<span style='color:red'>Fail","<span style='color:red'>Fail,<span style='color:red'>Fail,<span style='color:green'>Lift,<span style='color:green'>Lift,<span style='color:green'>Lift,<span style='color:green'>Lift,<span style='color:red'>Fail,<span style='color:green'>Lift,<span style='color:green'>Lift,<span style='color:green'>Lift,<span style='color:green'>Lift,<span style='color:red'>Fail","<span style='color:red'>Fail,<span style='color:green'>Lift,<span style='color:green'>Lift,<span style='color:red'>Fail,<span style='color:green'>Lift,<span style='color:green'>Lift","0,0,1,1,0,0,0,0,0,1,1,0","0,0,1,1,1,1,0,1,1,1,1,0","0,1,1,0,1,1",10,20,20,"",""," ","null","","",1,"",NA,NA,NA,NA,NA,NA,NA,NA,NA,NA,NA,NA,NA,NA,NA,NA,NA,NA,NA,NA,NA,NA,NA,NA,NA,NA,NA,NA,NA,NA,NA,NA,NA,NA,NA,NA,NA,NA,NA,NA,"",NA,NA,NA,NA,NA,NA,NA,NA,NA,2025-11-20 22:13:04
"null","https://psyc-201.github.io/xiang2023/exp/index1.html?PROLIFIC_PID=REDACTED&STUDY_ID=691f8ca61c6b4dcbb0aeb5f4&SESSION_ID=691f8ff0a585db83fa79a5c8","html-keyboard-response",7,227407,"0.0-307.0","XW2avBpwxnbis+BVW/BHOaLnhqMcig+wLJUFdK7XYyyp6IbbcExGOQvrbX/fa3e4z/6VqSu6P4sV1KKAfE8ofjzQwzEPmDmWNaErWN1LLfC66dSldOM9manX7+vrbWrJaVhrK8WkymJud4Udcu01mDvD0f65tfl8trHHlSINWXIHjgy8lYrdxrB+HVqTT1gfk1iuCZbPvkfk05VaNzyJu0umfXh9Z7U4/lwcGJOQPhL/zBtCdbFJD0VfDkWAE4d53bWPUfEXmfJoMBKJVsrXCaBxFq6hw6eV6KN5NP8NNFSgaOYV4A6SlPYtCU9vWKHdWCE/f0cRZTOG5Sx5XrrLaA==","691f8ca61c6b4dcbb0aeb5f4","691f8ff0a585db83fa79a5c8","index1","<span style='color:red'>Fail,<span style='color:red'>Fail,<span style='color:green'>Lift,<span style='color:green'>Lift,<span style='color:red'>Fail,<span style='color:red'>Fail,<span style='color:red'>Fail,<span style='color:red'>Fail,<span style='color:red'>Fail,<span style='color:green'>Lift,<span style='color:green'>Lift,<span style='color:red'>Fail","<span style='color:red'>Fail,<span style='color:red'>Fail,<span style='color:green'>Lift,<span style='color:green'>Lift,<span style='color:green'>Lift,<span style='color:green'>Lift,<span style='color:red'>Fail,<span style='color:green'>Lift,<span style='color:green'>Lift,<span style='color:green'>Lift,<span style='color:green'>Lift,<span style='color:red'>Fail","<span style='color:red'>Fail,<span style='color:green'>Lift,<span style='color:green'>Lift,<span style='color:red'>Fail,<span style='color:green'>Lift,<span style='color:green'>Lift","0,0,1,1,0,0,0,0,0,1,1,0","0,0,1,1,1,1,0,1,1,1,1,0","0,1,1,0,1,1",10,20,20,"","","<p style='font-size:30px'><b> New Contest! </b></p>","null","","",1,"",NA,NA,NA,NA,NA,NA,NA,NA,NA,NA,NA,NA,NA,NA,NA,NA,NA,NA,NA,NA,NA,NA,NA,NA,NA,NA,NA,NA,NA,NA,NA,NA,NA,NA,NA,NA,NA,NA,NA,NA,"",NA,NA,NA,NA,NA,NA,NA,NA,NA,2025-11-20 22:13:04
"20097.600000023842","https://psyc-201.github.io/xiang2023/exp/index1.html?PROLIFIC_PID=REDACTED&STUDY_ID=691f8ca61c6b4dcbb0aeb5f4&SESSION_ID=691f8ff0a585db83fa79a5c8","survey-html-form",8,247506,"0.0-308.0","XW2avBpwxnbis+BVW/BHOaLnhqMcig+wLJUFdK7XYyyp6IbbcExGOQvrbX/fa3e4z/6VqSu6P4sV1KKAfE8ofjzQwzEPmDmWNaErWN1LLfC66dSldOM9manX7+vrbWrJaVhrK8WkymJud4Udcu01mDvD0f65tfl8trHHlSINWXIHjgy8lYrdxrB+HVqTT1gfk1iuCZbPvkfk05VaNzyJu0umfXh9Z7U4/lwcGJOQPhL/zBtCdbFJD0VfDkWAE4d53bWPUfEXmfJoMBKJVsrXCaBxFq6hw6eV6KN5NP8NNFSgaOYV4A6SlPYtCU9vWKHdWCE/f0cRZTOG5Sx5XrrLaA==","691f8ca61c6b4dcbb0aeb5f4","691f8ff0a585db83fa79a5c8","index1","<span style='color:red'>Fail,<span style='color:red'>Fail,<span style='color:green'>Lift,<span style='color:green'>Lift,<span style='color:red'>Fail,<span style='color:red'>Fail,<span style='color:red'>Fail,<span style='color:red'>Fail,<span style='color:red'>Fail,<span style='color:green'>Lift,<span style='color:green'>Lift,<span style='color:red'>Fail","<span style='color:red'>Fail,<span style='color:red'>Fail,<span style='color:green'>Lift,<span style='color:green'>Lift,<span style='color:green'>Lift,<span style='color:green'>Lift,<span style='color:red'>Fail,<span style='color:green'>Lift,<span style='color:green'>Lift,<span style='color:green'>Lift,<span style='color:green'>Lift,<span style='color:red'>Fail","<span style='color:red'>Fail,<span style='color:green'>Lift,<span style='color:green'>Lift,<span style='color:red'>Fail,<span style='color:green'>Lift,<span style='color:green'>Lift","0,0,1,1,0,0,0,0,0,1,1,0","0,0,1,1,1,1,0,1,1,1,1,0","0,1,1,0,1,1",10,20,20,"","","","","{""box1"":""7"",""box2"":""3"",""box3"":""60""}","",1,"round1_outcome",1,1,1,7,3,60,NA,1,0,10,7,3,60,NA,1,0,10,NA,NA,NA,NA,NA,NA,NA,NA,NA,NA,NA,NA,NA,NA,NA,NA,NA,NA,NA,NA,NA,NA,NA,"",NA,NA,NA,NA,NA,NA,NA,NA,NA,2025-11-20 22:13:04
"13000.299999952316","https://psyc-201.github.io/xiang2023/exp/index1.html?PROLIFIC_PID=REDACTED&STUDY_ID=691f8ca61c6b4dcbb0aeb5f4&SESSION_ID=691f8ff0a585db83fa79a5c8","survey-html-form",9,260510,"0.0-309.0","XW2avBpwxnbis+BVW/BHOaLnhqMcig+wLJUFdK7XYyyp6IbbcExGOQvrbX/fa3e4z/6VqSu6P4sV1KKAfE8ofjzQwzEPmDmWNaErWN1LLfC66dSldOM9manX7+vrbWrJaVhrK8WkymJud4Udcu01mDvD0f65tfl8trHHlSINWXIHjgy8lYrdxrB+HVqTT1gfk1iuCZbPvkfk05VaNzyJu0umfXh9Z7U4/lwcGJOQPhL/zBtCdbFJD0VfDkWAE4d53bWPUfEXmfJoMBKJVsrXCaBxFq6hw6eV6KN5NP8NNFSgaOYV4A6SlPYtCU9vWKHdWCE/f0cRZTOG5Sx5XrrLaA==","691f8ca61c6b4dcbb0aeb5f4","691f8ff0a585db83fa79a5c8","index1","<span style='color:red'>Fail,<span style='color:red'>Fail,<span style='color:green'>Lift,<span style='color:green'>Lift,<span style='color:red'>Fail,<span style='color:red'>Fail,<span style='color:red'>Fail,<span style='color:red'>Fail,<span style='color:red'>Fail,<span style='color:green'>Lift,<span style='color:green'>Lift,<span style='color:red'>Fail","<span style='color:red'>Fail,<span style='color:red'>Fail,<span style='color:green'>Lift,<span style='color:green'>Lift,<span style='color:green'>Lift,<span style='color:green'>Lift,<span style='color:red'>Fail,<span style='color:green'>Lift,<span style='color:green'>Lift,<span style='color:green'>Lift,<span style='color:green'>Lift,<span style='color:red'>Fail","<span style='color:red'>Fail,<span style='color:green'>Lift,<span style='color:green'>Lift,<span style='color:red'>Fail,<span style='color:green'>Lift,<span style='color:green'>Lift","0,0,1,1,0,0,0,0,0,1,1,0","0,0,1,1,1,1,0,1,1,1,1,0","0,1,1,0,1,1",10,20,20,"","","","","{""box1"":""80"",""box2"":""30""}","",1,"round2_ready",2,1,2,NA,NA,NA,NA,NA,NA,NA,NA,NA,NA,NA,NA,NA,NA,80,30,80,30,NA,NA,NA,NA,NA,NA,NA,NA,NA,NA,NA,NA,NA,NA,NA,NA,NA,NA,NA,"",NA,NA,NA,NA,NA,NA,NA,NA,NA,2025-11-20 22:13:04
"26527.799999952316","https://psyc-201.github.io/xiang2023/exp/index1.html?PROLIFIC_PID=REDACTED&STUDY_ID=691f8ca61c6b4dcbb0aeb5f4&SESSION_ID=691f8ff0a585db83fa79a5c8","survey-html-form",10,287040,"0.0-310.0","XW2avBpwxnbis+BVW/BHOaLnhqMcig+wLJUFdK7XYyyp6IbbcExGOQvrbX/fa3e4z/6VqSu6P4sV1KKAfE8ofjzQwzEPmDmWNaErWN1LLfC66dSldOM9manX7+vrbWrJaVhrK8WkymJud4Udcu01mDvD0f65tfl8trHHlSINWXIHjgy8lYrdxrB+HVqTT1gfk1iuCZbPvkfk05VaNzyJu0umfXh9Z7U4/lwcGJOQPhL/zBtCdbFJD0VfDkWAE4d53bWPUfEXmfJoMBKJVsrXCaBxFq6hw6eV6KN5NP8NNFSgaOYV4A6SlPYtCU9vWKHdWCE/f0cRZTOG5Sx5XrrLaA==","691f8ca61c6b4dcbb0aeb5f4","691f8ff0a585db83fa79a5c8","index1","<span style='color:red'>Fail,<span style='color:red'>Fail,<span style='color:green'>Lift,<span style='color:green'>Lift,<span style='color:red'>Fail,<span style='color:red'>Fail,<span style='color:red'>Fail,<span style='color:red'>Fail,<span style='color:red'>Fail,<span style='color:green'>Lift,<span style='color:green'>Lift,<span style='color:red'>Fail","<span style='color:red'>Fail,<span style='color:red'>Fail,<span style='color:green'>Lift,<span style='color:green'>Lift,<span style='color:green'>Lift,<span style='color:green'>Lift,<span style='color:red'>Fail,<span style='color:green'>Lift,<span style='color:green'>Lift,<span style='color:green'>Lift,<span style='color:green'>Lift,<span style='color:red'>Fail","<span style='color:red'>Fail,<span style='color:green'>Lift,<span style='color:green'>Lift,<span style='color:red'>Fail,<span style='color:green'>Lift,<span style='color:green'>Lift","0,0,1,1,0,0,0,0,0,1,1,0","0,0,1,1,1,1,0,1,1,1,1,0","0,1,1,0,1,1",10,20,20,"","","","","{""box1"":""7"",""box2"":""3"",""box3"":""70""}","",1,"round2_outcome",3,1,2,7,3,70,NA,1,0,20,NA,NA,NA,NA,NA,NA,NA,NA,NA,NA,NA,7,3,70,NA,1,0,20,NA,NA,NA,NA,NA,NA,NA,NA,NA,NA,NA,NA,"",NA,NA,NA,NA,NA,NA,NA,NA,NA,2025-11-20 22:13:04
"7671.100000023842","https://psyc-201.github.io/xiang2023/exp/index1.html?PROLIFIC_PID=REDACTED&STUDY_ID=691f8ca61c6b4dcbb0aeb5f4&SESSION_ID=691f8ff0a585db83fa79a5c8","survey-html-form",11,294713,"0.0-311.0","XW2avBpwxnbis+BVW/BHOaLnhqMcig+wLJUFdK7XYyyp6IbbcExGOQvrbX/fa3e4z/6VqSu6P4sV1KKAfE8ofjzQwzEPmDmWNaErWN1LLfC66dSldOM9manX7+vrbWrJaVhrK8WkymJud4Udcu01mDvD0f65tfl8trHHlSINWXIHjgy8lYrdxrB+HVqTT1gfk1iuCZbPvkfk05VaNzyJu0umfXh9Z7U4/lwcGJOQPhL/zBtCdbFJD0VfDkWAE4d53bWPUfEXmfJoMBKJVsrXCaBxFq6hw6eV6KN5NP8NNFSgaOYV4A6SlPYtCU9vWKHdWCE/f0cRZTOG5Sx5XrrLaA==","691f8ca61c6b4dcbb0aeb5f4","691f8ff0a585db83fa79a5c8","index1","<span style='color:red'>Fail,<span style='color:red'>Fail,<span style='color:green'>Lift,<span style='color:green'>Lift,<span style='color:red'>Fail,<span style='color:red'>Fail,<span style='color:red'>Fail,<span style='color:red'>Fail,<span style='color:red'>Fail,<span style='color:green'>Lift,<span style='color:green'>Lift,<span style='color:red'>Fail","<span style='color:red'>Fail,<span style='color:red'>Fail,<span style='color:green'>Lift,<span style='color:green'>Lift,<span style='color:green'>Lift,<span style='color:green'>Lift,<span style='color:red'>Fail,<span style='color:green'>Lift,<span style='color:green'>Lift,<span style='color:green'>Lift,<span style='color:green'>Lift,<span style='color:red'>Fail","<span style='color:red'>Fail,<span style='color:green'>Lift,<span style='color:green'>Lift,<span style='color:red'>Fail,<span style='color:green'>Lift,<span style='color:green'>Lift","0,0,1,1,0,0,0,0,0,1,1,0","0,0,1,1,1,1,0,1,1,1,1,0","0,1,1,0,1,1",10,20,20,"","","","","{""box1"":""70""}","",1,"round3_ready",4,1,3,NA,NA,NA,NA,NA,NA,NA,NA,NA,NA,NA,NA,NA,NA,70,70,NA,NA,NA,NA,NA,NA,NA,NA,NA,70,70,NA,NA,NA,NA,NA,NA,NA,NA,NA,NA,"",NA,NA,NA,NA,NA,NA,NA,NA,NA,2025-11-20 22:13:04
"10170.599999904633","https://psyc-201.github.io/xiang2023/exp/index1.html?PROLIFIC_PID=REDACTED&STUDY_ID=691f8ca61c6b4dcbb0aeb5f4&SESSION_ID=691f8ff0a585db83fa79a5c8","survey-html-form",12,304885,"0.0-312.0-0.0","XW2avBpwxnbis+BVW/BHOaLnhqMcig+wLJUFdK7XYyyp6IbbcExGOQvrbX/fa3e4z/6VqSu6P4sV1KKAfE8ofjzQwzEPmDmWNaErWN1LLfC66dSldOM9manX7+vrbWrJaVhrK8WkymJud4Udcu01mDvD0f65tfl8trHHlSINWXIHjgy8lYrdxrB+HVqTT1gfk1iuCZbPvkfk05VaNzyJu0umfXh9Z7U4/lwcGJOQPhL/zBtCdbFJD0VfDkWAE4d53bWPUfEXmfJoMBKJVsrXCaBxFq6hw6eV6KN5NP8NNFSgaOYV4A6SlPYtCU9vWKHdWCE/f0cRZTOG5Sx5XrrLaA==","691f8ca61c6b4dcbb0aeb5f4","691f8ff0a585db83fa79a5c8","index1","<span style='color:red'>Fail,<span style='color:red'>Fail,<span style='color:green'>Lift,<span style='color:green'>Lift,<span style='color:red'>Fail,<span style='color:red'>Fail,<span style='color:red'>Fail,<span style='color:red'>Fail,<span style='color:red'>Fail,<span style='color:green'>Lift,<span style='color:green'>Lift,<span style='color:red'>Fail","<span style='color:red'>Fail,<span style='color:red'>Fail,<span style='color:green'>Lift,<span style='color:green'>Lift,<span style='color:green'>Lift,<span style='color:green'>Lift,<span style='color:red'>Fail,<span style='color:green'>Lift,<span style='color:green'>Lift,<span style='color:green'>Lift,<span style='color:green'>Lift,<span style='color:red'>Fail","<span style='color:red'>Fail,<span style='color:green'>Lift,<span style='color:green'>Lift,<span style='color:red'>Fail,<span style='color:green'>Lift,<span style='color:green'>Lift","0,0,1,1,0,0,0,0,0,1,1,0","0,0,1,1,1,1,0,1,1,1,1,0","0,1,1,0,1,1",10,20,20,"","","","","{""box1"":""7"",""box2"":""3"",""box3"":""70"",""box4"":""80""}","",2,"round3_lift",5,1,3,7,3,70,80,1,1,20,NA,NA,NA,NA,NA,NA,NA,NA,NA,NA,NA,NA,NA,NA,NA,NA,NA,NA,NA,NA,7,3,70,80,1,1,20,NA,NA,NA,"",NA,NA,NA,NA,NA,NA,NA,NA,NA,2025-11-20 22:13:04
"null","https://psyc-201.github.io/xiang2023/exp/index1.html?PROLIFIC_PID=REDACTED&STUDY_ID=691f8ca61c6b4dcbb0aeb5f4&SESSION_ID=691f8ff0a585db83fa79a5c8","html-keyboard-response",13,307900,"0.0-316.0","XW2avBpwxnbis+BVW/BHOaLnhqMcig+wLJUFdK7XYyyp6IbbcExGOQvrbX/fa3e4z/6VqSu6P4sV1KKAfE8ofjzQwzEPmDmWNaErWN1LLfC66dSldOM9manX7+vrbWrJaVhrK8WkymJud4Udcu01mDvD0f65tfl8trHHlSINWXIHjgy8lYrdxrB+HVqTT1gfk1iuCZbPvkfk05VaNzyJu0umfXh9Z7U4/lwcGJOQPhL/zBtCdbFJD0VfDkWAE4d53bWPUfEXmfJoMBKJVsrXCaBxFq6hw6eV6KN5NP8NNFSgaOYV4A6SlPYtCU9vWKHdWCE/f0cRZTOG5Sx5XrrLaA==","691f8ca61c6b4dcbb0aeb5f4","691f8ff0a585db83fa79a5c8","index1","<span style='color:red'>Fail,<span style='color:red'>Fail,<span style='color:green'>Lift,<span style='color:green'>Lift,<span style='color:red'>Fail,<span style='color:red'>Fail,<span style='color:red'>Fail,<span style='color:red'>Fail,<span style='color:red'>Fail,<span style='color:green'>Lift,<span style='color:green'>Lift,<span style='color:red'>Fail","<span style='color:red'>Fail,<span style='color:red'>Fail,<span style='color:green'>Lift,<span style='color:green'>Lift,<span style='color:green'>Lift,<span style='color:green'>Lift,<span style='color:red'>Fail,<span style='color:green'>Lift,<span style='color:green'>Lift,<span style='color:green'>Lift,<span style='color:green'>Lift,<span style='color:red'>Fail","<span style='color:red'>Fail,<span style='color:green'>Lift,<span style='color:green'>Lift,<span style='color:red'>Fail,<span style='color:green'>Lift,<span style='color:green'>Lift","0,0,1,1,0,0,0,0,0,1,1,0","0,0,1,1,1,1,0,1,1,1,1,0","0,1,1,0,1,1",10,20,20,"","","<p style='font-size:30px'><b> New Contest! </b></p>","null","","",2,"",NA,NA,NA,NA,NA,NA,NA,NA,NA,NA,NA,NA,NA,NA,NA,NA,NA,NA,NA,NA,NA,NA,NA,NA,NA,NA,NA,NA,NA,NA,NA,NA,NA,NA,NA,NA,NA,NA,NA,NA,"",NA,NA,NA,NA,NA,NA,NA,NA,NA,2025-11-20 22:13:04
"5641.299999952316","https://psyc-201.github.io/xiang2023/exp/index1.html?PROLIFIC_PID=REDACTED&STUDY_ID=691f8ca61c6b4dcbb0aeb5f4&SESSION_ID=691f8ff0a585db83fa79a5c8","survey-html-form",14,313543,"0.0-317.0","XW2avBpwxnbis+BVW/BHOaLnhqMcig+wLJUFdK7XYyyp6IbbcExGOQvrbX/fa3e4z/6VqSu6P4sV1KKAfE8ofjzQwzEPmDmWNaErWN1LLfC66dSldOM9manX7+vrbWrJaVhrK8WkymJud4Udcu01mDvD0f65tfl8trHHlSINWXIHjgy8lYrdxrB+HVqTT1gfk1iuCZbPvkfk05VaNzyJu0umfXh9Z7U4/lwcGJOQPhL/zBtCdbFJD0VfDkWAE4d53bWPUfEXmfJoMBKJVsrXCaBxFq6hw6eV6KN5NP8NNFSgaOYV4A6SlPYtCU9vWKHdWCE/f0cRZTOG5Sx5XrrLaA==","691f8ca61c6b4dcbb0aeb5f4","691f8ff0a585db83fa79a5c8","index1","<span style='color:red'>Fail,<span style='color:red'>Fail,<span style='color:green'>Lift,<span style='color:green'>Lift,<span style='color:red'>Fail,<span style='color:red'>Fail,<span style='color:red'>Fail,<span style='color:red'>Fail,<span style='color:red'>Fail,<span style='color:green'>Lift,<span style='color:green'>Lift,<span style='color:red'>Fail","<span style='color:red'>Fail,<span style='color:red'>Fail,<span style='color:green'>Lift,<span style='color:green'>Lift,<span style='color:green'>Lift,<span style='color:green'>Lift,<span style='color:red'>Fail,<span style='color:green'>Lift,<span style='color:green'>Lift,<span style='color:green'>Lift,<span style='color:green'>Lift,<span style='color:red'>Fail","<span style='color:red'>Fail,<span style='color:green'>Lift,<span style='color:green'>Lift,<span style='color:red'>Fail,<span style='color:green'>Lift,<span style='color:green'>Lift","0,0,1,1,0,0,0,0,0,1,1,0","0,0,1,1,1,1,0,1,1,1,1,0","0,1,1,0,1,1",10,20,20,"","","","","{""box1"":""3"",""box2"":""3""}","",2,"round1_outcome",1,2,1,3,3,NA,NA,0,0,10,3,3,NA,NA,0,0,10,NA,NA,NA,NA,NA,NA,NA,NA,NA,NA,NA,NA,NA,NA,NA,NA,NA,NA,NA,NA,NA,NA,NA,"",NA,NA,NA,NA,NA,NA,NA,NA,NA,2025-11-20 22:13:04
"5825.899999976158","https://psyc-201.github.io/xiang2023/exp/index1.html?PROLIFIC_PID=REDACTED&STUDY_ID=691f8ca61c6b4dcbb0aeb5f4&SESSION_ID=691f8ff0a585db83fa79a5c8","survey-html-form",15,319371,"0.0-318.0","XW2avBpwxnbis+BVW/BHOaLnhqMcig+wLJUFdK7XYyyp6IbbcExGOQvrbX/fa3e4z/6VqSu6P4sV1KKAfE8ofjzQwzEPmDmWNaErWN1LLfC66dSldOM9manX7+vrbWrJaVhrK8WkymJud4Udcu01mDvD0f65tfl8trHHlSINWXIHjgy8lYrdxrB+HVqTT1gfk1iuCZbPvkfk05VaNzyJu0umfXh9Z7U4/lwcGJOQPhL/zBtCdbFJD0VfDkWAE4d53bWPUfEXmfJoMBKJVsrXCaBxFq6hw6eV6KN5NP8NNFSgaOYV4A6SlPYtCU9vWKHdWCE/f0cRZTOG5Sx5XrrLaA==","691f8ca61c6b4dcbb0aeb5f4","691f8ff0a585db83fa79a5c8","index1","<span style='color:red'>Fail,<span style='color:red'>Fail,<span style='color:green'>Lift,<span style='color:green'>Lift,<span style='color:red'>Fail,<span style='color:red'>Fail,<span style='color:red'>Fail,<span style='color:red'>Fail,<span style='color:red'>Fail,<span style='color:green'>Lift,<span style='color:green'>Lift,<span style='color:red'>Fail","<span style='color:red'>Fail,<span style='color:red'>Fail,<span style='color:green'>Lift,<span style='color:green'>Lift,<span style='color:green'>Lift,<span style='color:green'>Lift,<span style='color:red'>Fail,<span style='color:green'>Lift,<span style='color:green'>Lift,<span style='color:green'>Lift,<span style='color:green'>Lift,<span style='color:red'>Fail","<span style='color:red'>Fail,<span style='color:green'>Lift,<span style='color:green'>Lift,<span style='color:red'>Fail,<span style='color:green'>Lift,<span style='color:green'>Lift","0,0,1,1,0,0,0,0,0,1,1,0","0,0,1,1,1,1,0,1,1,1,1,0","0,1,1,0,1,1",10,20,20,"","","","","{""box1"":""30"",""box2"":""30""}","",2,"round2_ready",2,2,2,NA,NA,NA,NA,NA,NA,NA,NA,NA,NA,NA,NA,NA,NA,30,30,30,30,NA,NA,NA,NA,NA,NA,NA,NA,NA,NA,NA,NA,NA,NA,NA,NA,NA,NA,NA,"",NA,NA,NA,NA,NA,NA,NA,NA,NA,2025-11-20 22:13:04
"4357.5","https://psyc-201.github.io/xiang2023/exp/index1.html?PROLIFIC_PID=REDACTED&STUDY_ID=691f8ca61c6b4dcbb0aeb5f4&SESSION_ID=691f8ff0a585db83fa79a5c8","survey-html-form",16,323731,"0.0-319.0","XW2avBpwxnbis+BVW/BHOaLnhqMcig+wLJUFdK7XYyyp6IbbcExGOQvrbX/fa3e4z/6VqSu6P4sV1KKAfE8ofjzQwzEPmDmWNaErWN1LLfC66dSldOM9manX7+vrbWrJaVhrK8WkymJud4Udcu01mDvD0f65tfl8trHHlSINWXIHjgy8lYrdxrB+HVqTT1gfk1iuCZbPvkfk05VaNzyJu0umfXh9Z7U4/lwcGJOQPhL/zBtCdbFJD0VfDkWAE4d53bWPUfEXmfJoMBKJVsrXCaBxFq6hw6eV6KN5NP8NNFSgaOYV4A6SlPYtCU9vWKHdWCE/f0cRZTOG5Sx5XrrLaA==","691f8ca61c6b4dcbb0aeb5f4","691f8ff0a585db83fa79a5c8","index1","<span style='color:red'>Fail,<span style='color:red'>Fail,<span style='color:green'>Lift,<span style='color:green'>Lift,<span style='color:red'>Fail,<span style='color:red'>Fail,<span style='color:red'>Fail,<span style='color:red'>Fail,<span style='color:red'>Fail,<span style='color:green'>Lift,<span style='color:green'>Lift,<span style='color:red'>Fail","<span style='color:red'>Fail,<span style='color:red'>Fail,<span style='color:green'>Lift,<span style='color:green'>Lift,<span style='color:green'>Lift,<span style='color:green'>Lift,<span style='color:red'>Fail,<span style='color:green'>Lift,<span style='color:green'>Lift,<span style='color:green'>Lift,<span style='color:green'>Lift,<span style='color:red'>Fail","<span style='color:red'>Fail,<span style='color:green'>Lift,<span style='color:green'>Lift,<span style='color:red'>Fail,<span style='color:green'>Lift,<span style='color:green'>Lift","0,0,1,1,0,0,0,0,0,1,1,0","0,0,1,1,1,1,0,1,1,1,1,0","0,1,1,0,1,1",10,20,20,"","","","","{""box1"":""3"",""box2"":""3""}","",2,"round2_outcome",3,2,2,3,3,NA,NA,0,0,20,NA,NA,NA,NA,NA,NA,NA,NA,NA,NA,NA,3,3,NA,NA,0,0,20,NA,NA,NA,NA,NA,NA,NA,NA,NA,NA,NA,NA,"",NA,NA,NA,NA,NA,NA,NA,NA,NA,2025-11-20 22:13:04
"4128.699999928474","https://psyc-201.github.io/xiang2023/exp/index1.html?PROLIFIC_PID=REDACTED&STUDY_ID=691f8ca61c6b4dcbb0aeb5f4&SESSION_ID=691f8ff0a585db83fa79a5c8","survey-html-form",17,327861,"0.0-320.0","XW2avBpwxnbis+BVW/BHOaLnhqMcig+wLJUFdK7XYyyp6IbbcExGOQvrbX/fa3e4z/6VqSu6P4sV1KKAfE8ofjzQwzEPmDmWNaErWN1LLfC66dSldOM9manX7+vrbWrJaVhrK8WkymJud4Udcu01mDvD0f65tfl8trHHlSINWXIHjgy8lYrdxrB+HVqTT1gfk1iuCZbPvkfk05VaNzyJu0umfXh9Z7U4/lwcGJOQPhL/zBtCdbFJD0VfDkWAE4d53bWPUfEXmfJoMBKJVsrXCaBxFq6hw6eV6KN5NP8NNFSgaOYV4A6SlPYtCU9vWKHdWCE/f0cRZTOG5Sx5XrrLaA==","691f8ca61c6b4dcbb0aeb5f4","691f8ff0a585db83fa79a5c8","index1","<span style='color:red'>Fail,<span style='color:red'>Fail,<span style='color:green'>Lift,<span style='color:green'>Lift,<span style='color:red'>Fail,<span style='color:red'>Fail,<span style='color:red'>Fail,<span style='color:red'>Fail,<span style='color:red'>Fail,<span style='color:green'>Lift,<span style='color:green'>Lift,<span style='color:red'>Fail","<span style='color:red'>Fail,<span style='color:red'>Fail,<span style='color:green'>Lift,<span style='color:green'>Lift,<span style='color:green'>Lift,<span style='color:green'>Lift,<span style='color:red'>Fail,<span style='color:green'>Lift,<span style='color:green'>Lift,<span style='color:green'>Lift,<span style='color:green'>Lift,<span style='color:red'>Fail","<span style='color:red'>Fail,<span style='color:green'>Lift,<span style='color:green'>Lift,<span style='color:red'>Fail,<span style='color:green'>Lift,<span style='color:green'>Lift","0,0,1,1,0,0,0,0,0,1,1,0","0,0,1,1,1,1,0,1,1,1,1,0","0,1,1,0,1,1",10,20,20,"","","","","{""box1"":""0""}","",2,"round3_ready",4,2,3,NA,NA,NA,NA,NA,NA,NA,NA,NA,NA,NA,NA,NA,NA,0,0,NA,NA,NA,NA,NA,NA,NA,NA,NA,0,0,NA,NA,NA,NA,NA,NA,NA,NA,NA,NA,"",NA,NA,NA,NA,NA,NA,NA,NA,NA,2025-11-20 22:13:04
"8311.700000047684","https://psyc-201.github.io/xiang2023/exp/index1.html?PROLIFIC_PID=REDACTED&STUDY_ID=691f8ca61c6b4dcbb0aeb5f4&SESSION_ID=691f8ff0a585db83fa79a5c8","survey-html-form",18,336175,"0.0-322.0-0.0","XW2avBpwxnbis+BVW/BHOaLnhqMcig+wLJUFdK7XYyyp6IbbcExGOQvrbX/fa3e4z/6VqSu6P4sV1KKAfE8ofjzQwzEPmDmWNaErWN1LLfC66dSldOM9manX7+vrbWrJaVhrK8WkymJud4Udcu01mDvD0f65tfl8trHHlSINWXIHjgy8lYrdxrB+HVqTT1gfk1iuCZbPvkfk05VaNzyJu0umfXh9Z7U4/lwcGJOQPhL/zBtCdbFJD0VfDkWAE4d53bWPUfEXmfJoMBKJVsrXCaBxFq6hw6eV6KN5NP8NNFSgaOYV4A6SlPYtCU9vWKHdWCE/f0cRZTOG5Sx5XrrLaA==","691f8ca61c6b4dcbb0aeb5f4","691f8ff0a585db83fa79a5c8","index1","<span style='color:red'>Fail,<span style='color:red'>Fail,<span style='color:green'>Lift,<span style='color:green'>Lift,<span style='color:red'>Fail,<span style='color:red'>Fail,<span style='color:red'>Fail,<span style='color:red'>Fail,<span style='color:red'>Fail,<span style='color:green'>Lift,<span style='color:green'>Lift,<span style='color:red'>Fail","<span style='color:red'>Fail,<span style='color:red'>Fail,<span style='color:green'>Lift,<span style='color:green'>Lift,<span style='color:green'>Lift,<span style='color:green'>Lift,<span style='color:red'>Fail,<span style='color:green'>Lift,<span style='color:green'>Lift,<span style='color:green'>Lift,<span style='color:green'>Lift,<span style='color:red'>Fail","<span style='color:red'>Fail,<span style='color:green'>Lift,<span style='color:green'>Lift,<span style='color:red'>Fail,<span style='color:green'>Lift,<span style='color:green'>Lift","0,0,1,1,0,0,0,0,0,1,1,0","0,0,1,1,1,1,0,1,1,1,1,0","0,1,1,0,1,1",10,20,20,"","","","","{""box1"":""3"",""box2"":""3"",""box3"":""60"",""box4"":""60""}","",2,"round3_fail",5,2,3,3,3,NA,NA,0,0,20,NA,NA,NA,NA,NA,NA,NA,NA,NA,NA,NA,NA,NA,NA,NA,NA,NA,NA,NA,NA,3,3,NA,NA,0,0,20,0,1,NA,"",NA,NA,NA,NA,NA,NA,NA,NA,NA,2025-11-20 22:13:04
"null","https://psyc-201.github.io/xiang2023/exp/index1.html?PROLIFIC_PID=REDACTED&STUDY_ID=691f8ca61c6b4dcbb0aeb5f4&SESSION_ID=691f8ff0a585db83fa79a5c8","html-keyboard-response",19,341182,"0.0-323.0-0.0","XW2avBpwxnbis+BVW/BHOaLnhqMcig+wLJUFdK7XYyyp6IbbcExGOQvrbX/fa3e4z/6VqSu6P4sV1KKAfE8ofjzQwzEPmDmWNaErWN1LLfC66dSldOM9manX7+vrbWrJaVhrK8WkymJud4Udcu01mDvD0f65tfl8trHHlSINWXIHjgy8lYrdxrB+HVqTT1gfk1iuCZbPvkfk05VaNzyJu0umfXh9Z7U4/lwcGJOQPhL/zBtCdbFJD0VfDkWAE4d53bWPUfEXmfJoMBKJVsrXCaBxFq6hw6eV6KN5NP8NNFSgaOYV4A6SlPYtCU9vWKHdWCE/f0cRZTOG5Sx5XrrLaA==","691f8ca61c6b4dcbb0aeb5f4","691f8ff0a585db83fa79a5c8","index1","<span style='color:red'>Fail,<span style='color:red'>Fail,<span style='color:green'>Lift,<span style='color:green'>Lift,<span style='color:red'>Fail,<span style='color:red'>Fail,<span style='color:red'>Fail,<span style='color:red'>Fail,<span style='color:red'>Fail,<span style='color:green'>Lift,<span style='color:green'>Lift,<span style='color:red'>Fail","<span style='color:red'>Fail,<span style='color:red'>Fail,<span style='color:green'>Lift,<span style='color:green'>Lift,<span style='color:green'>Lift,<span style='color:green'>Lift,<span style='color:red'>Fail,<span style='color:green'>Lift,<span style='color:green'>Lift,<span style='color:green'>Lift,<span style='color:green'>Lift,<span style='color:red'>Fail","<span style='color:red'>Fail,<span style='color:green'>Lift,<span style='color:green'>Lift,<span style='color:red'>Fail,<span style='color:green'>Lift,<span style='color:green'>Lift","0,0,1,1,0,0,0,0,0,1,1,0","0,0,1,1,1,1,0,1,1,1,1,0","0,1,1,0,1,1",10,20,20,"","","<p> <b>Oops you failed an attention check!</b> </p><p> <b>We will have to discard your data if you fail another one.</b> </p><p> <b>Please pay more attention!</b> </p>","null","","",3,"warning",NA,NA,NA,NA,NA,NA,NA,NA,NA,NA,NA,NA,NA,NA,NA,NA,NA,NA,NA,NA,NA,NA,NA,NA,NA,NA,NA,NA,NA,NA,NA,NA,NA,NA,NA,NA,NA,NA,NA,1,"",NA,NA,NA,NA,NA,NA,NA,NA,NA,2025-11-20 22:13:04
"null","https://psyc-201.github.io/xiang2023/exp/index1.html?PROLIFIC_PID=REDACTED&STUDY_ID=691f8ca61c6b4dcbb0aeb5f4&SESSION_ID=691f8ff0a585db83fa79a5c8","html-keyboard-response",20,344190,"0.0-325.0","XW2avBpwxnbis+BVW/BHOaLnhqMcig+wLJUFdK7XYyyp6IbbcExGOQvrbX/fa3e4z/6VqSu6P4sV1KKAfE8ofjzQwzEPmDmWNaErWN1LLfC66dSldOM9manX7+vrbWrJaVhrK8WkymJud4Udcu01mDvD0f65tfl8trHHlSINWXIHjgy8lYrdxrB+HVqTT1gfk1iuCZbPvkfk05VaNzyJu0umfXh9Z7U4/lwcGJOQPhL/zBtCdbFJD0VfDkWAE4d53bWPUfEXmfJoMBKJVsrXCaBxFq6hw6eV6KN5NP8NNFSgaOYV4A6SlPYtCU9vWKHdWCE/f0cRZTOG5Sx5XrrLaA==","691f8ca61c6b4dcbb0aeb5f4","691f8ff0a585db83fa79a5c8","index1","<span style='color:red'>Fail,<span style='color:red'>Fail,<span style='color:green'>Lift,<span style='color:green'>Lift,<span style='color:red'>Fail,<span style='color:red'>Fail,<span style='color:red'>Fail,<span style='color:red'>Fail,<span style='color:red'>Fail,<span style='color:green'>Lift,<span style='color:green'>Lift,<span style='color:red'>Fail","<span style='color:red'>Fail,<span style='color:red'>Fail,<span style='color:green'>Lift,<span style='color:green'>Lift,<span style='color:green'>Lift,<span style='color:green'>Lift,<span style='color:red'>Fail,<span style='color:green'>Lift,<span style='color:green'>Lift,<span style='color:green'>Lift,<span style='color:green'>Lift,<span style='color:red'>Fail","<span style='color:red'>Fail,<span style='color:green'>Lift,<span style='color:green'>Lift,<span style='color:red'>Fail,<span style='color:green'>Lift,<span style='color:green'>Lift","0,0,1,1,0,0,0,0,0,1,1,0","0,0,1,1,1,1,0,1,1,1,1,0","0,1,1,0,1,1",10,20,20,"","","<p style='font-size:30px'><b> New Contest! </b></p>","null","","",3,"",NA,NA,NA,NA,NA,NA,NA,NA,NA,NA,NA,NA,NA,NA,NA,NA,NA,NA,NA,NA,NA,NA,NA,NA,NA,NA,NA,NA,NA,NA,NA,NA,NA,NA,NA,NA,NA,NA,NA,NA,"",NA,NA,NA,NA,NA,NA,NA,NA,NA,2025-11-20 22:13:04
"8405.100000023842","https://psyc-201.github.io/xiang2023/exp/index1.html?PROLIFIC_PID=REDACTED&STUDY_ID=691f8ca61c6b4dcbb0aeb5f4&SESSION_ID=691f8ff0a585db83fa79a5c8","survey-html-form",21,352597,"0.0-326.0","XW2avBpwxnbis+BVW/BHOaLnhqMcig+wLJUFdK7XYyyp6IbbcExGOQvrbX/fa3e4z/6VqSu6P4sV1KKAfE8ofjzQwzEPmDmWNaErWN1LLfC66dSldOM9manX7+vrbWrJaVhrK8WkymJud4Udcu01mDvD0f65tfl8trHHlSINWXIHjgy8lYrdxrB+HVqTT1gfk1iuCZbPvkfk05VaNzyJu0umfXh9Z7U4/lwcGJOQPhL/zBtCdbFJD0VfDkWAE4d53bWPUfEXmfJoMBKJVsrXCaBxFq6hw6eV6KN5NP8NNFSgaOYV4A6SlPYtCU9vWKHdWCE/f0cRZTOG5Sx5XrrLaA==","691f8ca61c6b4dcbb0aeb5f4","691f8ff0a585db83fa79a5c8","index1","<span style='color:red'>Fail,<span style='color:red'>Fail,<span style='color:green'>Lift,<span style='color:green'>Lift,<span style='color:red'>Fail,<span style='color:red'>Fail,<span style='color:red'>Fail,<span style='color:red'>Fail,<span style='color:red'>Fail,<span style='color:green'>Lift,<span style='color:green'>Lift,<span style='color:red'>Fail","<span style='color:red'>Fail,<span style='color:red'>Fail,<span style='color:green'>Lift,<span style='color:green'>Lift,<span style='color:green'>Lift,<span style='color:green'>Lift,<span style='color:red'>Fail,<span style='color:green'>Lift,<span style='color:green'>Lift,<span style='color:green'>Lift,<span style='color:green'>Lift,<span style='color:red'>Fail","<span style='color:red'>Fail,<span style='color:green'>Lift,<span style='color:green'>Lift,<span style='color:red'>Fail,<span style='color:green'>Lift,<span style='color:green'>Lift","0,0,1,1,0,0,0,0,0,1,1,0","0,0,1,1,1,1,0,1,1,1,1,0","0,1,1,0,1,1",10,20,20,"","","","","{""box1"":""3"",""box2"":""3""}","",3,"round1_outcome",1,3,1,3,3,NA,NA,0,0,10,3,3,NA,NA,0,0,10,NA,NA,NA,NA,NA,NA,NA,NA,NA,NA,NA,NA,NA,NA,NA,NA,NA,NA,NA,NA,NA,NA,NA,"",NA,NA,NA,NA,NA,NA,NA,NA,NA,2025-11-20 22:13:04
"11483.600000023842","https://psyc-201.github.io/xiang2023/exp/index1.html?PROLIFIC_PID=REDACTED&STUDY_ID=691f8ca61c6b4dcbb0aeb5f4&SESSION_ID=691f8ff0a585db83fa79a5c8","survey-html-form",22,364084,"0.0-327.0","XW2avBpwxnbis+BVW/BHOaLnhqMcig+wLJUFdK7XYyyp6IbbcExGOQvrbX/fa3e4z/6VqSu6P4sV1KKAfE8ofjzQwzEPmDmWNaErWN1LLfC66dSldOM9manX7+vrbWrJaVhrK8WkymJud4Udcu01mDvD0f65tfl8trHHlSINWXIHjgy8lYrdxrB+HVqTT1gfk1iuCZbPvkfk05VaNzyJu0umfXh9Z7U4/lwcGJOQPhL/zBtCdbFJD0VfDkWAE4d53bWPUfEXmfJoMBKJVsrXCaBxFq6hw6eV6KN5NP8NNFSgaOYV4A6SlPYtCU9vWKHdWCE/f0cRZTOG5Sx5XrrLaA==","691f8ca61c6b4dcbb0aeb5f4","691f8ff0a585db83fa79a5c8","index1","<span style='color:red'>Fail,<span style='color:red'>Fail,<span style='color:green'>Lift,<span style='color:green'>Lift,<span style='color:red'>Fail,<span style='color:red'>Fail,<span style='color:red'>Fail,<span style='color:red'>Fail,<span style='color:red'>Fail,<span style='color:green'>Lift,<span style='color:green'>Lift,<span style='color:red'>Fail","<span style='color:red'>Fail,<span style='color:red'>Fail,<span style='color:green'>Lift,<span style='color:green'>Lift,<span style='color:green'>Lift,<span style='color:green'>Lift,<span style='color:red'>Fail,<span style='color:green'>Lift,<span style='color:green'>Lift,<span style='color:green'>Lift,<span style='color:green'>Lift,<span style='color:red'>Fail","<span style='color:red'>Fail,<span style='color:green'>Lift,<span style='color:green'>Lift,<span style='color:red'>Fail,<span style='color:green'>Lift,<span style='color:green'>Lift","0,0,1,1,0,0,0,0,0,1,1,0","0,0,1,1,1,1,0,1,1,1,1,0","0,1,1,0,1,1",10,20,20,"","","","","{""box1"":""40"",""box2"":""40""}","",3,"round2_ready",2,3,2,NA,NA,NA,NA,NA,NA,NA,NA,NA,NA,NA,NA,NA,NA,40,40,40,40,NA,NA,NA,NA,NA,NA,NA,NA,NA,NA,NA,NA,NA,NA,NA,NA,NA,NA,NA,"",NA,NA,NA,NA,NA,NA,NA,NA,NA,2025-11-20 22:13:04
"12586","https://psyc-201.github.io/xiang2023/exp/index1.html?PROLIFIC_PID=REDACTED&STUDY_ID=691f8ca61c6b4dcbb0aeb5f4&SESSION_ID=691f8ff0a585db83fa79a5c8","survey-html-form",23,376671,"0.0-328.0","XW2avBpwxnbis+BVW/BHOaLnhqMcig+wLJUFdK7XYyyp6IbbcExGOQvrbX/fa3e4z/6VqSu6P4sV1KKAfE8ofjzQwzEPmDmWNaErWN1LLfC66dSldOM9manX7+vrbWrJaVhrK8WkymJud4Udcu01mDvD0f65tfl8trHHlSINWXIHjgy8lYrdxrB+HVqTT1gfk1iuCZbPvkfk05VaNzyJu0umfXh9Z7U4/lwcGJOQPhL/zBtCdbFJD0VfDkWAE4d53bWPUfEXmfJoMBKJVsrXCaBxFq6hw6eV6KN5NP8NNFSgaOYV4A6SlPYtCU9vWKHdWCE/f0cRZTOG5Sx5XrrLaA==","691f8ca61c6b4dcbb0aeb5f4","691f8ff0a585db83fa79a5c8","index1","<span style='color:red'>Fail,<span style='color:red'>Fail,<span style='color:green'>Lift,<span style='color:green'>Lift,<span style='color:red'>Fail,<span style='color:red'>Fail,<span style='color:red'>Fail,<span style='color:red'>Fail,<span style='color:red'>Fail,<span style='color:green'>Lift,<span style='color:green'>Lift,<span style='color:red'>Fail","<span style='color:red'>Fail,<span style='color:red'>Fail,<span style='color:green'>Lift,<span style='color:green'>Lift,<span style='color:green'>Lift,<span style='color:green'>Lift,<span style='color:red'>Fail,<span style='color:green'>Lift,<span style='color:green'>Lift,<span style='color:green'>Lift,<span style='color:green'>Lift,<span style='color:red'>Fail","<span style='color:red'>Fail,<span style='color:green'>Lift,<span style='color:green'>Lift,<span style='color:red'>Fail,<span style='color:green'>Lift,<span style='color:green'>Lift","0,0,1,1,0,0,0,0,0,1,1,0","0,0,1,1,1,1,0,1,1,1,1,0","0,1,1,0,1,1",10,20,20,"","","","","{""box1"":""7"",""box2"":""7"",""box3"":""80"",""box4"":""80""}","",3,"round2_outcome",3,3,2,7,7,80,80,1,1,20,NA,NA,NA,NA,NA,NA,NA,NA,NA,NA,NA,7,7,80,80,1,1,20,NA,NA,NA,NA,NA,NA,NA,NA,NA,NA,NA,NA,"",NA,NA,NA,NA,NA,NA,NA,NA,NA,2025-11-20 22:13:04
"6787.199999928474","https://psyc-201.github.io/xiang2023/exp/index1.html?PROLIFIC_PID=REDACTED&STUDY_ID=691f8ca61c6b4dcbb0aeb5f4&SESSION_ID=691f8ff0a585db83fa79a5c8","survey-html-form",24,383460,"0.0-329.0","XW2avBpwxnbis+BVW/BHOaLnhqMcig+wLJUFdK7XYyyp6IbbcExGOQvrbX/fa3e4z/6VqSu6P4sV1KKAfE8ofjzQwzEPmDmWNaErWN1LLfC66dSldOM9manX7+vrbWrJaVhrK8WkymJud4Udcu01mDvD0f65tfl8trHHlSINWXIHjgy8lYrdxrB+HVqTT1gfk1iuCZbPvkfk05VaNzyJu0umfXh9Z7U4/lwcGJOQPhL/zBtCdbFJD0VfDkWAE4d53bWPUfEXmfJoMBKJVsrXCaBxFq6hw6eV6KN5NP8NNFSgaOYV4A6SlPYtCU9vWKHdWCE/f0cRZTOG5Sx5XrrLaA==","691f8ca61c6b4dcbb0aeb5f4","691f8ff0a585db83fa79a5c8","index1","<span style='color:red'>Fail,<span style='color:red'>Fail,<span style='color:green'>Lift,<span style='color:green'>Lift,<span style='color:red'>Fail,<span style='color:red'>Fail,<span style='color:red'>Fail,<span style='color:red'>Fail,<span style='color:red'>Fail,<span style='color:green'>Lift,<span style='color:green'>Lift,<span style='color:red'>Fail","<span style='color:red'>Fail,<span style='color:red'>Fail,<span style='color:green'>Lift,<span style='color:green'>Lift,<span style='color:green'>Lift,<span style='color:green'>Lift,<span style='color:red'>Fail,<span style='color:green'>Lift,<span style='color:green'>Lift,<span style='color:green'>Lift,<span style='color:green'>Lift,<span style='color:red'>Fail","<span style='color:red'>Fail,<span style='color:green'>Lift,<span style='color:green'>Lift,<span style='color:red'>Fail,<span style='color:green'>Lift,<span style='color:green'>Lift","0,0,1,1,0,0,0,0,0,1,1,0","0,0,1,1,1,1,0,1,1,1,1,0","0,1,1,0,1,1",10,20,20,"","","","","{""box1"":""90""}","",3,"round3_ready",4,3,3,NA,NA,NA,NA,NA,NA,NA,NA,NA,NA,NA,NA,NA,NA,90,90,NA,NA,NA,NA,NA,NA,NA,NA,NA,90,90,NA,NA,NA,NA,NA,NA,NA,NA,NA,NA,"",NA,NA,NA,NA,NA,NA,NA,NA,NA,2025-11-20 22:13:04
"10215.600000023842","https://psyc-201.github.io/xiang2023/exp/index1.html?PROLIFIC_PID=REDACTED&STUDY_ID=691f8ca61c6b4dcbb0aeb5f4&SESSION_ID=691f8ff0a585db83fa79a5c8","survey-html-form",25,393677,"0.0-330.0-0.0","XW2avBpwxnbis+BVW/BHOaLnhqMcig+wLJUFdK7XYyyp6IbbcExGOQvrbX/fa3e4z/6VqSu6P4sV1KKAfE8ofjzQwzEPmDmWNaErWN1LLfC66dSldOM9manX7+vrbWrJaVhrK8WkymJud4Udcu01mDvD0f65tfl8trHHlSINWXIHjgy8lYrdxrB+HVqTT1gfk1iuCZbPvkfk05VaNzyJu0umfXh9Z7U4/lwcGJOQPhL/zBtCdbFJD0VfDkWAE4d53bWPUfEXmfJoMBKJVsrXCaBxFq6hw6eV6KN5NP8NNFSgaOYV4A6SlPYtCU9vWKHdWCE/f0cRZTOG5Sx5XrrLaA==","691f8ca61c6b4dcbb0aeb5f4","691f8ff0a585db83fa79a5c8","index1","<span style='color:red'>Fail,<span style='color:red'>Fail,<span style='color:green'>Lift,<span style='color:green'>Lift,<span style='color:red'>Fail,<span style='color:red'>Fail,<span style='color:red'>Fail,<span style='color:red'>Fail,<span style='color:red'>Fail,<span style='color:green'>Lift,<span style='color:green'>Lift,<span style='color:red'>Fail","<span style='color:red'>Fail,<span style='color:red'>Fail,<span style='color:green'>Lift,<span style='color:green'>Lift,<span style='color:green'>Lift,<span style='color:green'>Lift,<span style='color:red'>Fail,<span style='color:green'>Lift,<span style='color:green'>Lift,<span style='color:green'>Lift,<span style='color:green'>Lift,<span style='color:red'>Fail","<span style='color:red'>Fail,<span style='color:green'>Lift,<span style='color:green'>Lift,<span style='color:red'>Fail,<span style='color:green'>Lift,<span style='color:green'>Lift","0,0,1,1,0,0,0,0,0,1,1,0","0,0,1,1,1,1,0,1,1,1,1,0","0,1,1,0,1,1",10,20,20,"","","","","{""box1"":""7"",""box2"":""7"",""box3"":""80"",""box4"":""80""}","",4,"round3_lift",5,3,3,7,7,80,80,1,1,20,NA,NA,NA,NA,NA,NA,NA,NA,NA,NA,NA,NA,NA,NA,NA,NA,NA,NA,NA,NA,7,7,80,80,1,1,20,NA,NA,NA,"",NA,NA,NA,NA,NA,NA,NA,NA,NA,2025-11-20 22:13:04
"null","https://psyc-201.github.io/xiang2023/exp/index1.html?PROLIFIC_PID=REDACTED&STUDY_ID=691f8ca61c6b4dcbb0aeb5f4&SESSION_ID=691f8ff0a585db83fa79a5c8","html-keyboard-response",26,396680,"0.0-334.0","XW2avBpwxnbis+BVW/BHOaLnhqMcig+wLJUFdK7XYyyp6IbbcExGOQvrbX/fa3e4z/6VqSu6P4sV1KKAfE8ofjzQwzEPmDmWNaErWN1LLfC66dSldOM9manX7+vrbWrJaVhrK8WkymJud4Udcu01mDvD0f65tfl8trHHlSINWXIHjgy8lYrdxrB+HVqTT1gfk1iuCZbPvkfk05VaNzyJu0umfXh9Z7U4/lwcGJOQPhL/zBtCdbFJD0VfDkWAE4d53bWPUfEXmfJoMBKJVsrXCaBxFq6hw6eV6KN5NP8NNFSgaOYV4A6SlPYtCU9vWKHdWCE/f0cRZTOG5Sx5XrrLaA==","691f8ca61c6b4dcbb0aeb5f4","691f8ff0a585db83fa79a5c8","index1","<span style='color:red'>Fail,<span style='color:red'>Fail,<span style='color:green'>Lift,<span style='color:green'>Lift,<span style='color:red'>Fail,<span style='color:red'>Fail,<span style='color:red'>Fail,<span style='color:red'>Fail,<span style='color:red'>Fail,<span style='color:green'>Lift,<span style='color:green'>Lift,<span style='color:red'>Fail","<span style='color:red'>Fail,<span style='color:red'>Fail,<span style='color:green'>Lift,<span style='color:green'>Lift,<span style='color:green'>Lift,<span style='color:green'>Lift,<span style='color:red'>Fail,<span style='color:green'>Lift,<span style='color:green'>Lift,<span style='color:green'>Lift,<span style='color:green'>Lift,<span style='color:red'>Fail","<span style='color:red'>Fail,<span style='color:green'>Lift,<span style='color:green'>Lift,<span style='color:red'>Fail,<span style='color:green'>Lift,<span style='color:green'>Lift","0,0,1,1,0,0,0,0,0,1,1,0","0,0,1,1,1,1,0,1,1,1,1,0","0,1,1,0,1,1",10,20,20,"","","<p style='font-size:30px'><b> New Contest! </b></p>","null","","",4,"",NA,NA,NA,NA,NA,NA,NA,NA,NA,NA,NA,NA,NA,NA,NA,NA,NA,NA,NA,NA,NA,NA,NA,NA,NA,NA,NA,NA,NA,NA,NA,NA,NA,NA,NA,NA,NA,NA,NA,NA,"",NA,NA,NA,NA,NA,NA,NA,NA,NA,2025-11-20 22:13:04
"11248","https://psyc-201.github.io/xiang2023/exp/index1.html?PROLIFIC_PID=REDACTED&STUDY_ID=691f8ca61c6b4dcbb0aeb5f4&SESSION_ID=691f8ff0a585db83fa79a5c8","survey-html-form",27,407930,"0.0-335.0","XW2avBpwxnbis+BVW/BHOaLnhqMcig+wLJUFdK7XYyyp6IbbcExGOQvrbX/fa3e4z/6VqSu6P4sV1KKAfE8ofjzQwzEPmDmWNaErWN1LLfC66dSldOM9manX7+vrbWrJaVhrK8WkymJud4Udcu01mDvD0f65tfl8trHHlSINWXIHjgy8lYrdxrB+HVqTT1gfk1iuCZbPvkfk05VaNzyJu0umfXh9Z7U4/lwcGJOQPhL/zBtCdbFJD0VfDkWAE4d53bWPUfEXmfJoMBKJVsrXCaBxFq6hw6eV6KN5NP8NNFSgaOYV4A6SlPYtCU9vWKHdWCE/f0cRZTOG5Sx5XrrLaA==","691f8ca61c6b4dcbb0aeb5f4","691f8ff0a585db83fa79a5c8","index1","<span style='color:red'>Fail,<span style='color:red'>Fail,<span style='color:green'>Lift,<span style='color:green'>Lift,<span style='color:red'>Fail,<span style='color:red'>Fail,<span style='color:red'>Fail,<span style='color:red'>Fail,<span style='color:red'>Fail,<span style='color:green'>Lift,<span style='color:green'>Lift,<span style='color:red'>Fail","<span style='color:red'>Fail,<span style='color:red'>Fail,<span style='color:green'>Lift,<span style='color:green'>Lift,<span style='color:green'>Lift,<span style='color:green'>Lift,<span style='color:red'>Fail,<span style='color:green'>Lift,<span style='color:green'>Lift,<span style='color:green'>Lift,<span style='color:green'>Lift,<span style='color:red'>Fail","<span style='color:red'>Fail,<span style='color:green'>Lift,<span style='color:green'>Lift,<span style='color:red'>Fail,<span style='color:green'>Lift,<span style='color:green'>Lift","0,0,1,1,0,0,0,0,0,1,1,0","0,0,1,1,1,1,0,1,1,1,1,0","0,1,1,0,1,1",10,20,20,"","","","","{""box1"":""3"",""box2"":""7"",""box4"":""80""}","",4,"round1_outcome",1,4,1,3,7,NA,80,0,1,10,3,7,NA,80,0,1,10,NA,NA,NA,NA,NA,NA,NA,NA,NA,NA,NA,NA,NA,NA,NA,NA,NA,NA,NA,NA,NA,NA,NA,"",NA,NA,NA,NA,NA,NA,NA,NA,NA,2025-11-20 22:13:04
"10429.799999952316","https://psyc-201.github.io/xiang2023/exp/index1.html?PROLIFIC_PID=REDACTED&STUDY_ID=691f8ca61c6b4dcbb0aeb5f4&SESSION_ID=691f8ff0a585db83fa79a5c8","survey-html-form",28,418361,"0.0-336.0","XW2avBpwxnbis+BVW/BHOaLnhqMcig+wLJUFdK7XYyyp6IbbcExGOQvrbX/fa3e4z/6VqSu6P4sV1KKAfE8ofjzQwzEPmDmWNaErWN1LLfC66dSldOM9manX7+vrbWrJaVhrK8WkymJud4Udcu01mDvD0f65tfl8trHHlSINWXIHjgy8lYrdxrB+HVqTT1gfk1iuCZbPvkfk05VaNzyJu0umfXh9Z7U4/lwcGJOQPhL/zBtCdbFJD0VfDkWAE4d53bWPUfEXmfJoMBKJVsrXCaBxFq6hw6eV6KN5NP8NNFSgaOYV4A6SlPYtCU9vWKHdWCE/f0cRZTOG5Sx5XrrLaA==","691f8ca61c6b4dcbb0aeb5f4","691f8ff0a585db83fa79a5c8","index1","<span style='color:red'>Fail,<span style='color:red'>Fail,<span style='color:green'>Lift,<span style='color:green'>Lift,<span style='color:red'>Fail,<span style='color:red'>Fail,<span style='color:red'>Fail,<span style='color:red'>Fail,<span style='color:red'>Fail,<span style='color:green'>Lift,<span style='color:green'>Lift,<span style='color:red'>Fail","<span style='color:red'>Fail,<span style='color:red'>Fail,<span style='color:green'>Lift,<span style='color:green'>Lift,<span style='color:green'>Lift,<span style='color:green'>Lift,<span style='color:red'>Fail,<span style='color:green'>Lift,<span style='color:green'>Lift,<span style='color:green'>Lift,<span style='color:green'>Lift,<span style='color:red'>Fail","<span style='color:red'>Fail,<span style='color:green'>Lift,<span style='color:green'>Lift,<span style='color:red'>Fail,<span style='color:green'>Lift,<span style='color:green'>Lift","0,0,1,1,0,0,0,0,0,1,1,0","0,0,1,1,1,1,0,1,1,1,1,0","0,1,1,0,1,1",10,20,20,"","","","","{""box1"":""30"",""box2"":""80""}","",4,"round2_ready",2,4,2,NA,NA,NA,NA,NA,NA,NA,NA,NA,NA,NA,NA,NA,NA,30,80,30,80,NA,NA,NA,NA,NA,NA,NA,NA,NA,NA,NA,NA,NA,NA,NA,NA,NA,NA,NA,"",NA,NA,NA,NA,NA,NA,NA,NA,NA,2025-11-20 22:13:04
"14776.399999976158","https://psyc-201.github.io/xiang2023/exp/index1.html?PROLIFIC_PID=REDACTED&STUDY_ID=691f8ca61c6b4dcbb0aeb5f4&SESSION_ID=691f8ff0a585db83fa79a5c8","survey-html-form",29,433140,"0.0-337.0","XW2avBpwxnbis+BVW/BHOaLnhqMcig+wLJUFdK7XYyyp6IbbcExGOQvrbX/fa3e4z/6VqSu6P4sV1KKAfE8ofjzQwzEPmDmWNaErWN1LLfC66dSldOM9manX7+vrbWrJaVhrK8WkymJud4Udcu01mDvD0f65tfl8trHHlSINWXIHjgy8lYrdxrB+HVqTT1gfk1iuCZbPvkfk05VaNzyJu0umfXh9Z7U4/lwcGJOQPhL/zBtCdbFJD0VfDkWAE4d53bWPUfEXmfJoMBKJVsrXCaBxFq6hw6eV6KN5NP8NNFSgaOYV4A6SlPYtCU9vWKHdWCE/f0cRZTOG5Sx5XrrLaA==","691f8ca61c6b4dcbb0aeb5f4","691f8ff0a585db83fa79a5c8","index1","<span style='color:red'>Fail,<span style='color:red'>Fail,<span style='color:green'>Lift,<span style='color:green'>Lift,<span style='color:red'>Fail,<span style='color:red'>Fail,<span style='color:red'>Fail,<span style='color:red'>Fail,<span style='color:red'>Fail,<span style='color:green'>Lift,<span style='color:green'>Lift,<span style='color:red'>Fail","<span style='color:red'>Fail,<span style='color:red'>Fail,<span style='color:green'>Lift,<span style='color:green'>Lift,<span style='color:green'>Lift,<span style='color:green'>Lift,<span style='color:red'>Fail,<span style='color:green'>Lift,<span style='color:green'>Lift,<span style='color:green'>Lift,<span style='color:green'>Lift,<span style='color:red'>Fail","<span style='color:red'>Fail,<span style='color:green'>Lift,<span style='color:green'>Lift,<span style='color:red'>Fail,<span style='color:green'>Lift,<span style='color:green'>Lift","0,0,1,1,0,0,0,0,0,1,1,0","0,0,1,1,1,1,0,1,1,1,1,0","0,1,1,0,1,1",10,20,20,"","","","","{""box1"":""5"",""box2"":""8"",""box3"":""80"",""box4"":""80""}","",4,"round2_outcome",3,4,2,5,8,80,80,1,1,20,NA,NA,NA,NA,NA,NA,NA,NA,NA,NA,NA,5,8,80,80,1,1,20,NA,NA,NA,NA,NA,NA,NA,NA,NA,NA,NA,NA,"",NA,NA,NA,NA,NA,NA,NA,NA,NA,2025-11-20 22:13:04
"8209.399999976158","https://psyc-201.github.io/xiang2023/exp/index1.html?PROLIFIC_PID=REDACTED&STUDY_ID=691f8ca61c6b4dcbb0aeb5f4&SESSION_ID=691f8ff0a585db83fa79a5c8","survey-html-form",30,441351,"0.0-338.0","XW2avBpwxnbis+BVW/BHOaLnhqMcig+wLJUFdK7XYyyp6IbbcExGOQvrbX/fa3e4z/6VqSu6P4sV1KKAfE8ofjzQwzEPmDmWNaErWN1LLfC66dSldOM9manX7+vrbWrJaVhrK8WkymJud4Udcu01mDvD0f65tfl8trHHlSINWXIHjgy8lYrdxrB+HVqTT1gfk1iuCZbPvkfk05VaNzyJu0umfXh9Z7U4/lwcGJOQPhL/zBtCdbFJD0VfDkWAE4d53bWPUfEXmfJoMBKJVsrXCaBxFq6hw6eV6KN5NP8NNFSgaOYV4A6SlPYtCU9vWKHdWCE/f0cRZTOG5Sx5XrrLaA==","691f8ca61c6b4dcbb0aeb5f4","691f8ff0a585db83fa79a5c8","index1","<span style='color:red'>Fail,<span style='color:red'>Fail,<span style='color:green'>Lift,<span style='color:green'>Lift,<span style='color:red'>Fail,<span style='color:red'>Fail,<span style='color:red'>Fail,<span style='color:red'>Fail,<span style='color:red'>Fail,<span style='color:green'>Lift,<span style='color:green'>Lift,<span style='color:red'>Fail","<span style='color:red'>Fail,<span style='color:red'>Fail,<span style='color:green'>Lift,<span style='color:green'>Lift,<span style='color:green'>Lift,<span style='color:green'>Lift,<span style='color:red'>Fail,<span style='color:green'>Lift,<span style='color:green'>Lift,<span style='color:green'>Lift,<span style='color:green'>Lift,<span style='color:red'>Fail","<span style='color:red'>Fail,<span style='color:green'>Lift,<span style='color:green'>Lift,<span style='color:red'>Fail,<span style='color:green'>Lift,<span style='color:green'>Lift","0,0,1,1,0,0,0,0,0,1,1,0","0,0,1,1,1,1,0,1,1,1,1,0","0,1,1,0,1,1",10,20,20,"","","","","{""box1"":""100""}","",4,"round3_ready",4,4,3,NA,NA,NA,NA,NA,NA,NA,NA,NA,NA,NA,NA,NA,NA,100,100,NA,NA,NA,NA,NA,NA,NA,NA,NA,100,100,NA,NA,NA,NA,NA,NA,NA,NA,NA,NA,"",NA,NA,NA,NA,NA,NA,NA,NA,NA,2025-11-20 22:13:04
"11249.100000023842","https://psyc-201.github.io/xiang2023/exp/index1.html?PROLIFIC_PID=REDACTED&STUDY_ID=691f8ca61c6b4dcbb0aeb5f4&SESSION_ID=691f8ff0a585db83fa79a5c8","survey-html-form",31,452601,"0.0-339.0-0.0","XW2avBpwxnbis+BVW/BHOaLnhqMcig+wLJUFdK7XYyyp6IbbcExGOQvrbX/fa3e4z/6VqSu6P4sV1KKAfE8ofjzQwzEPmDmWNaErWN1LLfC66dSldOM9manX7+vrbWrJaVhrK8WkymJud4Udcu01mDvD0f65tfl8trHHlSINWXIHjgy8lYrdxrB+HVqTT1gfk1iuCZbPvkfk05VaNzyJu0umfXh9Z7U4/lwcGJOQPhL/zBtCdbFJD0VfDkWAE4d53bWPUfEXmfJoMBKJVsrXCaBxFq6hw6eV6KN5NP8NNFSgaOYV4A6SlPYtCU9vWKHdWCE/f0cRZTOG5Sx5XrrLaA==","691f8ca61c6b4dcbb0aeb5f4","691f8ff0a585db83fa79a5c8","index1","<span style='color:red'>Fail,<span style='color:red'>Fail,<span style='color:green'>Lift,<span style='color:green'>Lift,<span style='color:red'>Fail,<span style='color:red'>Fail,<span style='color:red'>Fail,<span style='color:red'>Fail,<span style='color:red'>Fail,<span style='color:green'>Lift,<span style='color:green'>Lift,<span style='color:red'>Fail","<span style='color:red'>Fail,<span style='color:red'>Fail,<span style='color:green'>Lift,<span style='color:green'>Lift,<span style='color:green'>Lift,<span style='color:green'>Lift,<span style='color:red'>Fail,<span style='color:green'>Lift,<span style='color:green'>Lift,<span style='color:green'>Lift,<span style='color:green'>Lift,<span style='color:red'>Fail","<span style='color:red'>Fail,<span style='color:green'>Lift,<span style='color:green'>Lift,<span style='color:red'>Fail,<span style='color:green'>Lift,<span style='color:green'>Lift","0,0,1,1,0,0,0,0,0,1,1,0","0,0,1,1,1,1,0,1,1,1,1,0","0,1,1,0,1,1",10,20,20,"","","","","{""box1"":""8"",""box2"":""8"",""box3"":""80"",""box4"":""80""}","",5,"round3_lift",5,4,3,8,8,80,80,1,1,20,NA,NA,NA,NA,NA,NA,NA,NA,NA,NA,NA,NA,NA,NA,NA,NA,NA,NA,NA,NA,8,8,80,80,1,1,20,NA,NA,NA,"",NA,NA,NA,NA,NA,NA,NA,NA,NA,2025-11-20 22:13:04
"null","https://psyc-201.github.io/xiang2023/exp/index1.html?PROLIFIC_PID=REDACTED&STUDY_ID=691f8ca61c6b4dcbb0aeb5f4&SESSION_ID=691f8ff0a585db83fa79a5c8","html-keyboard-response",32,455608,"0.0-343.0","XW2avBpwxnbis+BVW/BHOaLnhqMcig+wLJUFdK7XYyyp6IbbcExGOQvrbX/fa3e4z/6VqSu6P4sV1KKAfE8ofjzQwzEPmDmWNaErWN1LLfC66dSldOM9manX7+vrbWrJaVhrK8WkymJud4Udcu01mDvD0f65tfl8trHHlSINWXIHjgy8lYrdxrB+HVqTT1gfk1iuCZbPvkfk05VaNzyJu0umfXh9Z7U4/lwcGJOQPhL/zBtCdbFJD0VfDkWAE4d53bWPUfEXmfJoMBKJVsrXCaBxFq6hw6eV6KN5NP8NNFSgaOYV4A6SlPYtCU9vWKHdWCE/f0cRZTOG5Sx5XrrLaA==","691f8ca61c6b4dcbb0aeb5f4","691f8ff0a585db83fa79a5c8","index1","<span style='color:red'>Fail,<span style='color:red'>Fail,<span style='color:green'>Lift,<span style='color:green'>Lift,<span style='color:red'>Fail,<span style='color:red'>Fail,<span style='color:red'>Fail,<span style='color:red'>Fail,<span style='color:red'>Fail,<span style='color:green'>Lift,<span style='color:green'>Lift,<span style='color:red'>Fail","<span style='color:red'>Fail,<span style='color:red'>Fail,<span style='color:green'>Lift,<span style='color:green'>Lift,<span style='color:green'>Lift,<span style='color:green'>Lift,<span style='color:red'>Fail,<span style='color:green'>Lift,<span style='color:green'>Lift,<span style='color:green'>Lift,<span style='color:green'>Lift,<span style='color:red'>Fail","<span style='color:red'>Fail,<span style='color:green'>Lift,<span style='color:green'>Lift,<span style='color:red'>Fail,<span style='color:green'>Lift,<span style='color:green'>Lift","0,0,1,1,0,0,0,0,0,1,1,0","0,0,1,1,1,1,0,1,1,1,1,0","0,1,1,0,1,1",10,20,20,"","","<p style='font-size:30px'><b> New Contest! </b></p>","null","","",5,"",NA,NA,NA,NA,NA,NA,NA,NA,NA,NA,NA,NA,NA,NA,NA,NA,NA,NA,NA,NA,NA,NA,NA,NA,NA,NA,NA,NA,NA,NA,NA,NA,NA,NA,NA,NA,NA,NA,NA,NA,"",NA,NA,NA,NA,NA,NA,NA,NA,NA,2025-11-20 22:13:04
"11236.399999976158","https://psyc-201.github.io/xiang2023/exp/index1.html?PROLIFIC_PID=REDACTED&STUDY_ID=691f8ca61c6b4dcbb0aeb5f4&SESSION_ID=691f8ff0a585db83fa79a5c8","survey-html-form",33,466846,"0.0-344.0","XW2avBpwxnbis+BVW/BHOaLnhqMcig+wLJUFdK7XYyyp6IbbcExGOQvrbX/fa3e4z/6VqSu6P4sV1KKAfE8ofjzQwzEPmDmWNaErWN1LLfC66dSldOM9manX7+vrbWrJaVhrK8WkymJud4Udcu01mDvD0f65tfl8trHHlSINWXIHjgy8lYrdxrB+HVqTT1gfk1iuCZbPvkfk05VaNzyJu0umfXh9Z7U4/lwcGJOQPhL/zBtCdbFJD0VfDkWAE4d53bWPUfEXmfJoMBKJVsrXCaBxFq6hw6eV6KN5NP8NNFSgaOYV4A6SlPYtCU9vWKHdWCE/f0cRZTOG5Sx5XrrLaA==","691f8ca61c6b4dcbb0aeb5f4","691f8ff0a585db83fa79a5c8","index1","<span style='color:red'>Fail,<span style='color:red'>Fail,<span style='color:green'>Lift,<span style='color:green'>Lift,<span style='color:red'>Fail,<span style='color:red'>Fail,<span style='color:red'>Fail,<span style='color:red'>Fail,<span style='color:red'>Fail,<span style='color:green'>Lift,<span style='color:green'>Lift,<span style='color:red'>Fail","<span style='color:red'>Fail,<span style='color:red'>Fail,<span style='color:green'>Lift,<span style='color:green'>Lift,<span style='color:green'>Lift,<span style='color:green'>Lift,<span style='color:red'>Fail,<span style='color:green'>Lift,<span style='color:green'>Lift,<span style='color:green'>Lift,<span style='color:green'>Lift,<span style='color:red'>Fail","<span style='color:red'>Fail,<span style='color:green'>Lift,<span style='color:green'>Lift,<span style='color:red'>Fail,<span style='color:green'>Lift,<span style='color:green'>Lift","0,0,1,1,0,0,0,0,0,1,1,0","0,0,1,1,1,1,0,1,1,1,1,0","0,1,1,0,1,1",10,20,20,"","","","","{""box1"":""7"",""box2"":""7"",""box3"":""70"",""box4"":""70""}","",5,"round1_outcome",1,5,1,7,7,70,70,1,1,10,7,7,70,70,1,1,10,NA,NA,NA,NA,NA,NA,NA,NA,NA,NA,NA,NA,NA,NA,NA,NA,NA,NA,NA,NA,NA,NA,NA,"",NA,NA,NA,NA,NA,NA,NA,NA,NA,2025-11-20 22:13:04
"8742.700000047684","https://psyc-201.github.io/xiang2023/exp/index1.html?PROLIFIC_PID=REDACTED&STUDY_ID=691f8ca61c6b4dcbb0aeb5f4&SESSION_ID=691f8ff0a585db83fa79a5c8","survey-html-form",34,475590,"0.0-345.0","XW2avBpwxnbis+BVW/BHOaLnhqMcig+wLJUFdK7XYyyp6IbbcExGOQvrbX/fa3e4z/6VqSu6P4sV1KKAfE8ofjzQwzEPmDmWNaErWN1LLfC66dSldOM9manX7+vrbWrJaVhrK8WkymJud4Udcu01mDvD0f65tfl8trHHlSINWXIHjgy8lYrdxrB+HVqTT1gfk1iuCZbPvkfk05VaNzyJu0umfXh9Z7U4/lwcGJOQPhL/zBtCdbFJD0VfDkWAE4d53bWPUfEXmfJoMBKJVsrXCaBxFq6hw6eV6KN5NP8NNFSgaOYV4A6SlPYtCU9vWKHdWCE/f0cRZTOG5Sx5XrrLaA==","691f8ca61c6b4dcbb0aeb5f4","691f8ff0a585db83fa79a5c8","index1","<span style='color:red'>Fail,<span style='color:red'>Fail,<span style='color:green'>Lift,<span style='color:green'>Lift,<span style='color:red'>Fail,<span style='color:red'>Fail,<span style='color:red'>Fail,<span style='color:red'>Fail,<span style='color:red'>Fail,<span style='color:green'>Lift,<span style='color:green'>Lift,<span style='color:red'>Fail","<span style='color:red'>Fail,<span style='color:red'>Fail,<span style='color:green'>Lift,<span style='color:green'>Lift,<span style='color:green'>Lift,<span style='color:green'>Lift,<span style='color:red'>Fail,<span style='color:green'>Lift,<span style='color:green'>Lift,<span style='color:green'>Lift,<span style='color:green'>Lift,<span style='color:red'>Fail","<span style='color:red'>Fail,<span style='color:green'>Lift,<span style='color:green'>Lift,<span style='color:red'>Fail,<span style='color:green'>Lift,<span style='color:green'>Lift","0,0,1,1,0,0,0,0,0,1,1,0","0,0,1,1,1,1,0,1,1,1,1,0","0,1,1,0,1,1",10,20,20,"","","","","{""box1"":""90"",""box2"":""90""}","",5,"round2_ready",2,5,2,NA,NA,NA,NA,NA,NA,NA,NA,NA,NA,NA,NA,NA,NA,90,90,90,90,NA,NA,NA,NA,NA,NA,NA,NA,NA,NA,NA,NA,NA,NA,NA,NA,NA,NA,NA,"",NA,NA,NA,NA,NA,NA,NA,NA,NA,2025-11-20 22:13:04
"10155.800000071526","https://psyc-201.github.io/xiang2023/exp/index1.html?PROLIFIC_PID=REDACTED&STUDY_ID=691f8ca61c6b4dcbb0aeb5f4&SESSION_ID=691f8ff0a585db83fa79a5c8","survey-html-form",35,485748,"0.0-346.0","XW2avBpwxnbis+BVW/BHOaLnhqMcig+wLJUFdK7XYyyp6IbbcExGOQvrbX/fa3e4z/6VqSu6P4sV1KKAfE8ofjzQwzEPmDmWNaErWN1LLfC66dSldOM9manX7+vrbWrJaVhrK8WkymJud4Udcu01mDvD0f65tfl8trHHlSINWXIHjgy8lYrdxrB+HVqTT1gfk1iuCZbPvkfk05VaNzyJu0umfXh9Z7U4/lwcGJOQPhL/zBtCdbFJD0VfDkWAE4d53bWPUfEXmfJoMBKJVsrXCaBxFq6hw6eV6KN5NP8NNFSgaOYV4A6SlPYtCU9vWKHdWCE/f0cRZTOG5Sx5XrrLaA==","691f8ca61c6b4dcbb0aeb5f4","691f8ff0a585db83fa79a5c8","index1","<span style='color:red'>Fail,<span style='color:red'>Fail,<span style='color:green'>Lift,<span style='color:green'>Lift,<span style='color:red'>Fail,<span style='color:red'>Fail,<span style='color:red'>Fail,<span style='color:red'>Fail,<span style='color:red'>Fail,<span style='color:green'>Lift,<span style='color:green'>Lift,<span style='color:red'>Fail","<span style='color:red'>Fail,<span style='color:red'>Fail,<span style='color:green'>Lift,<span style='color:green'>Lift,<span style='color:green'>Lift,<span style='color:green'>Lift,<span style='color:red'>Fail,<span style='color:green'>Lift,<span style='color:green'>Lift,<span style='color:green'>Lift,<span style='color:green'>Lift,<span style='color:red'>Fail","<span style='color:red'>Fail,<span style='color:green'>Lift,<span style='color:green'>Lift,<span style='color:red'>Fail,<span style='color:green'>Lift,<span style='color:green'>Lift","0,0,1,1,0,0,0,0,0,1,1,0","0,0,1,1,1,1,0,1,1,1,1,0","0,1,1,0,1,1",10,20,20,"","","","","{""box1"":""7"",""box2"":""7"",""box3"":""80"",""box4"":""80""}","",5,"round2_outcome",3,5,2,7,7,80,80,1,1,20,NA,NA,NA,NA,NA,NA,NA,NA,NA,NA,NA,7,7,80,80,1,1,20,NA,NA,NA,NA,NA,NA,NA,NA,NA,NA,NA,NA,"",NA,NA,NA,NA,NA,NA,NA,NA,NA,2025-11-20 22:13:04
"4963.700000047684","https://psyc-201.github.io/xiang2023/exp/index1.html?PROLIFIC_PID=REDACTED&STUDY_ID=691f8ca61c6b4dcbb0aeb5f4&SESSION_ID=691f8ff0a585db83fa79a5c8","survey-html-form",36,490713,"0.0-347.0","XW2avBpwxnbis+BVW/BHOaLnhqMcig+wLJUFdK7XYyyp6IbbcExGOQvrbX/fa3e4z/6VqSu6P4sV1KKAfE8ofjzQwzEPmDmWNaErWN1LLfC66dSldOM9manX7+vrbWrJaVhrK8WkymJud4Udcu01mDvD0f65tfl8trHHlSINWXIHjgy8lYrdxrB+HVqTT1gfk1iuCZbPvkfk05VaNzyJu0umfXh9Z7U4/lwcGJOQPhL/zBtCdbFJD0VfDkWAE4d53bWPUfEXmfJoMBKJVsrXCaBxFq6hw6eV6KN5NP8NNFSgaOYV4A6SlPYtCU9vWKHdWCE/f0cRZTOG5Sx5XrrLaA==","691f8ca61c6b4dcbb0aeb5f4","691f8ff0a585db83fa79a5c8","index1","<span style='color:red'>Fail,<span style='color:red'>Fail,<span style='color:green'>Lift,<span style='color:green'>Lift,<span style='color:red'>Fail,<span style='color:red'>Fail,<span style='color:red'>Fail,<span style='color:red'>Fail,<span style='color:red'>Fail,<span style='color:green'>Lift,<span style='color:green'>Lift,<span style='color:red'>Fail","<span style='color:red'>Fail,<span style='color:red'>Fail,<span style='color:green'>Lift,<span style='color:green'>Lift,<span style='color:green'>Lift,<span style='color:green'>Lift,<span style='color:red'>Fail,<span style='color:green'>Lift,<span style='color:green'>Lift,<span style='color:green'>Lift,<span style='color:green'>Lift,<span style='color:red'>Fail","<span style='color:red'>Fail,<span style='color:green'>Lift,<span style='color:green'>Lift,<span style='color:red'>Fail,<span style='color:green'>Lift,<span style='color:green'>Lift","0,0,1,1,0,0,0,0,0,1,1,0","0,0,1,1,1,1,0,1,1,1,1,0","0,1,1,0,1,1",10,20,20,"","","","","{""box1"":""100""}","",5,"round3_ready",4,5,3,NA,NA,NA,NA,NA,NA,NA,NA,NA,NA,NA,NA,NA,NA,100,100,NA,NA,NA,NA,NA,NA,NA,NA,NA,100,100,NA,NA,NA,NA,NA,NA,NA,NA,NA,NA,"",NA,NA,NA,NA,NA,NA,NA,NA,NA,2025-11-20 22:13:04
"10802.799999952316","https://psyc-201.github.io/xiang2023/exp/index1.html?PROLIFIC_PID=REDACTED&STUDY_ID=691f8ca61c6b4dcbb0aeb5f4&SESSION_ID=691f8ff0a585db83fa79a5c8","survey-html-form",37,501518,"0.0-348.0-0.0","XW2avBpwxnbis+BVW/BHOaLnhqMcig+wLJUFdK7XYyyp6IbbcExGOQvrbX/fa3e4z/6VqSu6P4sV1KKAfE8ofjzQwzEPmDmWNaErWN1LLfC66dSldOM9manX7+vrbWrJaVhrK8WkymJud4Udcu01mDvD0f65tfl8trHHlSINWXIHjgy8lYrdxrB+HVqTT1gfk1iuCZbPvkfk05VaNzyJu0umfXh9Z7U4/lwcGJOQPhL/zBtCdbFJD0VfDkWAE4d53bWPUfEXmfJoMBKJVsrXCaBxFq6hw6eV6KN5NP8NNFSgaOYV4A6SlPYtCU9vWKHdWCE/f0cRZTOG5Sx5XrrLaA==","691f8ca61c6b4dcbb0aeb5f4","691f8ff0a585db83fa79a5c8","index1","<span style='color:red'>Fail,<span style='color:red'>Fail,<span style='color:green'>Lift,<span style='color:green'>Lift,<span style='color:red'>Fail,<span style='color:red'>Fail,<span style='color:red'>Fail,<span style='color:red'>Fail,<span style='color:red'>Fail,<span style='color:green'>Lift,<span style='color:green'>Lift,<span style='color:red'>Fail","<span style='color:red'>Fail,<span style='color:red'>Fail,<span style='color:green'>Lift,<span style='color:green'>Lift,<span style='color:green'>Lift,<span style='color:green'>Lift,<span style='color:red'>Fail,<span style='color:green'>Lift,<span style='color:green'>Lift,<span style='color:green'>Lift,<span style='color:green'>Lift,<span style='color:red'>Fail","<span style='color:red'>Fail,<span style='color:green'>Lift,<span style='color:green'>Lift,<span style='color:red'>Fail,<span style='color:green'>Lift,<span style='color:green'>Lift","0,0,1,1,0,0,0,0,0,1,1,0","0,0,1,1,1,1,0,1,1,1,1,0","0,1,1,0,1,1",10,20,20,"","","","","{""box1"":""8"",""box2"":""8"",""box3"":""80"",""box4"":""80""}","",6,"round3_lift",5,5,3,8,8,80,80,1,1,20,NA,NA,NA,NA,NA,NA,NA,NA,NA,NA,NA,NA,NA,NA,NA,NA,NA,NA,NA,NA,8,8,80,80,1,1,20,NA,NA,NA,"",NA,NA,NA,NA,NA,NA,NA,NA,NA,2025-11-20 22:13:04
"null","https://psyc-201.github.io/xiang2023/exp/index1.html?PROLIFIC_PID=REDACTED&STUDY_ID=691f8ca61c6b4dcbb0aeb5f4&SESSION_ID=691f8ff0a585db83fa79a5c8","html-keyboard-response",38,504529,"0.0-352.0","XW2avBpwxnbis+BVW/BHOaLnhqMcig+wLJUFdK7XYyyp6IbbcExGOQvrbX/fa3e4z/6VqSu6P4sV1KKAfE8ofjzQwzEPmDmWNaErWN1LLfC66dSldOM9manX7+vrbWrJaVhrK8WkymJud4Udcu01mDvD0f65tfl8trHHlSINWXIHjgy8lYrdxrB+HVqTT1gfk1iuCZbPvkfk05VaNzyJu0umfXh9Z7U4/lwcGJOQPhL/zBtCdbFJD0VfDkWAE4d53bWPUfEXmfJoMBKJVsrXCaBxFq6hw6eV6KN5NP8NNFSgaOYV4A6SlPYtCU9vWKHdWCE/f0cRZTOG5Sx5XrrLaA==","691f8ca61c6b4dcbb0aeb5f4","691f8ff0a585db83fa79a5c8","index1","<span style='color:red'>Fail,<span style='color:red'>Fail,<span style='color:green'>Lift,<span style='color:green'>Lift,<span style='color:red'>Fail,<span style='color:red'>Fail,<span style='color:red'>Fail,<span style='color:red'>Fail,<span style='color:red'>Fail,<span style='color:green'>Lift,<span style='color:green'>Lift,<span style='color:red'>Fail","<span style='color:red'>Fail,<span style='color:red'>Fail,<span style='color:green'>Lift,<span style='color:green'>Lift,<span style='color:green'>Lift,<span style='color:green'>Lift,<span style='color:red'>Fail,<span style='color:green'>Lift,<span style='color:green'>Lift,<span style='color:green'>Lift,<span style='color:green'>Lift,<span style='color:red'>Fail","<span style='color:red'>Fail,<span style='color:green'>Lift,<span style='color:green'>Lift,<span style='color:red'>Fail,<span style='color:green'>Lift,<span style='color:green'>Lift","0,0,1,1,0,0,0,0,0,1,1,0","0,0,1,1,1,1,0,1,1,1,1,0","0,1,1,0,1,1",10,20,20,"","","<p style='font-size:30px'><b> New Contest! </b></p>","null","","",6,"",NA,NA,NA,NA,NA,NA,NA,NA,NA,NA,NA,NA,NA,NA,NA,NA,NA,NA,NA,NA,NA,NA,NA,NA,NA,NA,NA,NA,NA,NA,NA,NA,NA,NA,NA,NA,NA,NA,NA,NA,"",NA,NA,NA,NA,NA,NA,NA,NA,NA,2025-11-20 22:13:04
"12908.799999952316","https://psyc-201.github.io/xiang2023/exp/index1.html?PROLIFIC_PID=REDACTED&STUDY_ID=691f8ca61c6b4dcbb0aeb5f4&SESSION_ID=691f8ff0a585db83fa79a5c8","survey-html-form",39,517440,"0.0-353.0","XW2avBpwxnbis+BVW/BHOaLnhqMcig+wLJUFdK7XYyyp6IbbcExGOQvrbX/fa3e4z/6VqSu6P4sV1KKAfE8ofjzQwzEPmDmWNaErWN1LLfC66dSldOM9manX7+vrbWrJaVhrK8WkymJud4Udcu01mDvD0f65tfl8trHHlSINWXIHjgy8lYrdxrB+HVqTT1gfk1iuCZbPvkfk05VaNzyJu0umfXh9Z7U4/lwcGJOQPhL/zBtCdbFJD0VfDkWAE4d53bWPUfEXmfJoMBKJVsrXCaBxFq6hw6eV6KN5NP8NNFSgaOYV4A6SlPYtCU9vWKHdWCE/f0cRZTOG5Sx5XrrLaA==","691f8ca61c6b4dcbb0aeb5f4","691f8ff0a585db83fa79a5c8","index1","<span style='color:red'>Fail,<span style='color:red'>Fail,<span style='color:green'>Lift,<span style='color:green'>Lift,<span style='color:red'>Fail,<span style='color:red'>Fail,<span style='color:red'>Fail,<span style='color:red'>Fail,<span style='color:red'>Fail,<span style='color:green'>Lift,<span style='color:green'>Lift,<span style='color:red'>Fail","<span style='color:red'>Fail,<span style='color:red'>Fail,<span style='color:green'>Lift,<span style='color:green'>Lift,<span style='color:green'>Lift,<span style='color:green'>Lift,<span style='color:red'>Fail,<span style='color:green'>Lift,<span style='color:green'>Lift,<span style='color:green'>Lift,<span style='color:green'>Lift,<span style='color:red'>Fail","<span style='color:red'>Fail,<span style='color:green'>Lift,<span style='color:green'>Lift,<span style='color:red'>Fail,<span style='color:green'>Lift,<span style='color:green'>Lift","0,0,1,1,0,0,0,0,0,1,1,0","0,0,1,1,1,1,0,1,1,1,1,0","0,1,1,0,1,1",10,20,20,"","","","","{""box1"":""3"",""box2"":""3""}","",6,"round1_outcome",1,6,1,3,3,NA,NA,0,0,10,3,3,NA,NA,0,0,10,NA,NA,NA,NA,NA,NA,NA,NA,NA,NA,NA,NA,NA,NA,NA,NA,NA,NA,NA,NA,NA,NA,NA,"",NA,NA,NA,NA,NA,NA,NA,NA,NA,2025-11-20 22:13:04
"14672.700000047684","https://psyc-201.github.io/xiang2023/exp/index1.html?PROLIFIC_PID=REDACTED&STUDY_ID=691f8ca61c6b4dcbb0aeb5f4&SESSION_ID=691f8ff0a585db83fa79a5c8","survey-html-form",40,532114,"0.0-354.0","XW2avBpwxnbis+BVW/BHOaLnhqMcig+wLJUFdK7XYyyp6IbbcExGOQvrbX/fa3e4z/6VqSu6P4sV1KKAfE8ofjzQwzEPmDmWNaErWN1LLfC66dSldOM9manX7+vrbWrJaVhrK8WkymJud4Udcu01mDvD0f65tfl8trHHlSINWXIHjgy8lYrdxrB+HVqTT1gfk1iuCZbPvkfk05VaNzyJu0umfXh9Z7U4/lwcGJOQPhL/zBtCdbFJD0VfDkWAE4d53bWPUfEXmfJoMBKJVsrXCaBxFq6hw6eV6KN5NP8NNFSgaOYV4A6SlPYtCU9vWKHdWCE/f0cRZTOG5Sx5XrrLaA==","691f8ca61c6b4dcbb0aeb5f4","691f8ff0a585db83fa79a5c8","index1","<span style='color:red'>Fail,<span style='color:red'>Fail,<span style='color:green'>Lift,<span style='color:green'>Lift,<span style='color:red'>Fail,<span style='color:red'>Fail,<span style='color:red'>Fail,<span style='color:red'>Fail,<span style='color:red'>Fail,<span style='color:green'>Lift,<span style='color:green'>Lift,<span style='color:red'>Fail","<span style='color:red'>Fail,<span style='color:red'>Fail,<span style='color:green'>Lift,<span style='color:green'>Lift,<span style='color:green'>Lift,<span style='color:green'>Lift,<span style='color:red'>Fail,<span style='color:green'>Lift,<span style='color:green'>Lift,<span style='color:green'>Lift,<span style='color:green'>Lift,<span style='color:red'>Fail","<span style='color:red'>Fail,<span style='color:green'>Lift,<span style='color:green'>Lift,<span style='color:red'>Fail,<span style='color:green'>Lift,<span style='color:green'>Lift","0,0,1,1,0,0,0,0,0,1,1,0","0,0,1,1,1,1,0,1,1,1,1,0","0,1,1,0,1,1",10,20,20,"","","","","{""box1"":""30"",""box2"":""30""}","",6,"round2_ready",2,6,2,NA,NA,NA,NA,NA,NA,NA,NA,NA,NA,NA,NA,NA,NA,30,30,30,30,NA,NA,NA,NA,NA,NA,NA,NA,NA,NA,NA,NA,NA,NA,NA,NA,NA,NA,NA,"",NA,NA,NA,NA,NA,NA,NA,NA,NA,2025-11-20 22:13:04
"14997.100000023842","https://psyc-201.github.io/xiang2023/exp/index1.html?PROLIFIC_PID=REDACTED&STUDY_ID=691f8ca61c6b4dcbb0aeb5f4&SESSION_ID=691f8ff0a585db83fa79a5c8","survey-html-form",41,547113,"0.0-355.0","XW2avBpwxnbis+BVW/BHOaLnhqMcig+wLJUFdK7XYyyp6IbbcExGOQvrbX/fa3e4z/6VqSu6P4sV1KKAfE8ofjzQwzEPmDmWNaErWN1LLfC66dSldOM9manX7+vrbWrJaVhrK8WkymJud4Udcu01mDvD0f65tfl8trHHlSINWXIHjgy8lYrdxrB+HVqTT1gfk1iuCZbPvkfk05VaNzyJu0umfXh9Z7U4/lwcGJOQPhL/zBtCdbFJD0VfDkWAE4d53bWPUfEXmfJoMBKJVsrXCaBxFq6hw6eV6KN5NP8NNFSgaOYV4A6SlPYtCU9vWKHdWCE/f0cRZTOG5Sx5XrrLaA==","691f8ca61c6b4dcbb0aeb5f4","691f8ff0a585db83fa79a5c8","index1","<span style='color:red'>Fail,<span style='color:red'>Fail,<span style='color:green'>Lift,<span style='color:green'>Lift,<span style='color:red'>Fail,<span style='color:red'>Fail,<span style='color:red'>Fail,<span style='color:red'>Fail,<span style='color:red'>Fail,<span style='color:green'>Lift,<span style='color:green'>Lift,<span style='color:red'>Fail","<span style='color:red'>Fail,<span style='color:red'>Fail,<span style='color:green'>Lift,<span style='color:green'>Lift,<span style='color:green'>Lift,<span style='color:green'>Lift,<span style='color:red'>Fail,<span style='color:green'>Lift,<span style='color:green'>Lift,<span style='color:green'>Lift,<span style='color:green'>Lift,<span style='color:red'>Fail","<span style='color:red'>Fail,<span style='color:green'>Lift,<span style='color:green'>Lift,<span style='color:red'>Fail,<span style='color:green'>Lift,<span style='color:green'>Lift","0,0,1,1,0,0,0,0,0,1,1,0","0,0,1,1,1,1,0,1,1,1,1,0","0,1,1,0,1,1",10,20,20,"","","","","{""box1"":""3"",""box2"":""7"",""box4"":""80""}","",6,"round2_outcome",3,6,2,3,7,NA,80,0,1,20,NA,NA,NA,NA,NA,NA,NA,NA,NA,NA,NA,3,7,NA,80,0,1,20,NA,NA,NA,NA,NA,NA,NA,NA,NA,NA,NA,NA,"",NA,NA,NA,NA,NA,NA,NA,NA,NA,2025-11-20 22:13:04
"10098.700000047684","https://psyc-201.github.io/xiang2023/exp/index1.html?PROLIFIC_PID=REDACTED&STUDY_ID=691f8ca61c6b4dcbb0aeb5f4&SESSION_ID=691f8ff0a585db83fa79a5c8","survey-html-form",42,557214,"0.0-356.0","XW2avBpwxnbis+BVW/BHOaLnhqMcig+wLJUFdK7XYyyp6IbbcExGOQvrbX/fa3e4z/6VqSu6P4sV1KKAfE8ofjzQwzEPmDmWNaErWN1LLfC66dSldOM9manX7+vrbWrJaVhrK8WkymJud4Udcu01mDvD0f65tfl8trHHlSINWXIHjgy8lYrdxrB+HVqTT1gfk1iuCZbPvkfk05VaNzyJu0umfXh9Z7U4/lwcGJOQPhL/zBtCdbFJD0VfDkWAE4d53bWPUfEXmfJoMBKJVsrXCaBxFq6hw6eV6KN5NP8NNFSgaOYV4A6SlPYtCU9vWKHdWCE/f0cRZTOG5Sx5XrrLaA==","691f8ca61c6b4dcbb0aeb5f4","691f8ff0a585db83fa79a5c8","index1","<span style='color:red'>Fail,<span style='color:red'>Fail,<span style='color:green'>Lift,<span style='color:green'>Lift,<span style='color:red'>Fail,<span style='color:red'>Fail,<span style='color:red'>Fail,<span style='color:red'>Fail,<span style='color:red'>Fail,<span style='color:green'>Lift,<span style='color:green'>Lift,<span style='color:red'>Fail","<span style='color:red'>Fail,<span style='color:red'>Fail,<span style='color:green'>Lift,<span style='color:green'>Lift,<span style='color:green'>Lift,<span style='color:green'>Lift,<span style='color:red'>Fail,<span style='color:green'>Lift,<span style='color:green'>Lift,<span style='color:green'>Lift,<span style='color:green'>Lift,<span style='color:red'>Fail","<span style='color:red'>Fail,<span style='color:green'>Lift,<span style='color:green'>Lift,<span style='color:red'>Fail,<span style='color:green'>Lift,<span style='color:green'>Lift","0,0,1,1,0,0,0,0,0,1,1,0","0,0,1,1,1,1,0,1,1,1,1,0","0,1,1,0,1,1",10,20,20,"","","","","{""box1"":""30""}","",6,"round3_ready",4,6,3,NA,NA,NA,NA,NA,NA,NA,NA,NA,NA,NA,NA,NA,NA,30,30,NA,NA,NA,NA,NA,NA,NA,NA,NA,30,30,NA,NA,NA,NA,NA,NA,NA,NA,NA,NA,"",NA,NA,NA,NA,NA,NA,NA,NA,NA,2025-11-20 22:13:04
"20657.600000023842","https://psyc-201.github.io/xiang2023/exp/index1.html?PROLIFIC_PID=REDACTED&STUDY_ID=691f8ca61c6b4dcbb0aeb5f4&SESSION_ID=691f8ff0a585db83fa79a5c8","survey-html-form",43,577873,"0.0-358.0-0.0","XW2avBpwxnbis+BVW/BHOaLnhqMcig+wLJUFdK7XYyyp6IbbcExGOQvrbX/fa3e4z/6VqSu6P4sV1KKAfE8ofjzQwzEPmDmWNaErWN1LLfC66dSldOM9manX7+vrbWrJaVhrK8WkymJud4Udcu01mDvD0f65tfl8trHHlSINWXIHjgy8lYrdxrB+HVqTT1gfk1iuCZbPvkfk05VaNzyJu0umfXh9Z7U4/lwcGJOQPhL/zBtCdbFJD0VfDkWAE4d53bWPUfEXmfJoMBKJVsrXCaBxFq6hw6eV6KN5NP8NNFSgaOYV4A6SlPYtCU9vWKHdWCE/f0cRZTOG5Sx5XrrLaA==","691f8ca61c6b4dcbb0aeb5f4","691f8ff0a585db83fa79a5c8","index1","<span style='color:red'>Fail,<span style='color:red'>Fail,<span style='color:green'>Lift,<span style='color:green'>Lift,<span style='color:red'>Fail,<span style='color:red'>Fail,<span style='color:red'>Fail,<span style='color:red'>Fail,<span style='color:red'>Fail,<span style='color:green'>Lift,<span style='color:green'>Lift,<span style='color:red'>Fail","<span style='color:red'>Fail,<span style='color:red'>Fail,<span style='color:green'>Lift,<span style='color:green'>Lift,<span style='color:green'>Lift,<span style='color:green'>Lift,<span style='color:red'>Fail,<span style='color:green'>Lift,<span style='color:green'>Lift,<span style='color:green'>Lift,<span style='color:green'>Lift,<span style='color:red'>Fail","<span style='color:red'>Fail,<span style='color:green'>Lift,<span style='color:green'>Lift,<span style='color:red'>Fail,<span style='color:green'>Lift,<span style='color:green'>Lift","0,0,1,1,0,0,0,0,0,1,1,0","0,0,1,1,1,1,0,1,1,1,1,0","0,1,1,0,1,1",10,20,20,"","","","","{""box1"":""3"",""box2"":""7"",""box3"":""999"",""box4"":""999""}","",6,"round3_fail",5,6,3,3,7,NA,NA,0,0,20,NA,NA,NA,NA,NA,NA,NA,NA,NA,NA,NA,NA,NA,NA,NA,NA,NA,NA,NA,NA,3,7,NA,NA,0,0,20,1,1,NA,"",NA,NA,NA,NA,NA,NA,NA,NA,NA,2025-11-20 22:13:04
"37929.89999997616","https://psyc-201.github.io/xiang2023/exp/index1.html?PROLIFIC_PID=REDACTED&STUDY_ID=691f8ca61c6b4dcbb0aeb5f4&SESSION_ID=691f8ff0a585db83fa79a5c8","survey-text",44,615805,"0.0-361.0","XW2avBpwxnbis+BVW/BHOaLnhqMcig+wLJUFdK7XYyyp6IbbcExGOQvrbX/fa3e4z/6VqSu6P4sV1KKAfE8ofjzQwzEPmDmWNaErWN1LLfC66dSldOM9manX7+vrbWrJaVhrK8WkymJud4Udcu01mDvD0f65tfl8trHHlSINWXIHjgy8lYrdxrB+HVqTT1gfk1iuCZbPvkfk05VaNzyJu0umfXh9Z7U4/lwcGJOQPhL/zBtCdbFJD0VfDkWAE4d53bWPUfEXmfJoMBKJVsrXCaBxFq6hw6eV6KN5NP8NNFSgaOYV4A6SlPYtCU9vWKHdWCE/f0cRZTOG5Sx5XrrLaA==","691f8ca61c6b4dcbb0aeb5f4","691f8ff0a585db83fa79a5c8","index1","<span style='color:red'>Fail,<span style='color:red'>Fail,<span style='color:green'>Lift,<span style='color:green'>Lift,<span style='color:red'>Fail,<span style='color:red'>Fail,<span style='color:red'>Fail,<span style='color:red'>Fail,<span style='color:red'>Fail,<span style='color:green'>Lift,<span style='color:green'>Lift,<span style='color:red'>Fail","<span style='color:red'>Fail,<span style='color:red'>Fail,<span style='color:green'>Lift,<span style='color:green'>Lift,<span style='color:green'>Lift,<span style='color:green'>Lift,<span style='color:red'>Fail,<span style='color:green'>Lift,<span style='color:green'>Lift,<span style='color:green'>Lift,<span style='color:green'>Lift,<span style='color:red'>Fail","<span style='color:red'>Fail,<span style='color:green'>Lift,<span style='color:green'>Lift,<span style='color:red'>Fail,<span style='color:green'>Lift,<span style='color:green'>Lift","0,0,1,1,0,0,0,0,0,1,1,0","0,0,1,1,1,1,0,1,1,1,1,0","0,1,1,0,1,1",10,20,20,"","","","","{""Q0"":""I judged if contestants would be able to lift a box.  I also judged how strong they were and how much effort they gave.""}","",NA,"",NA,NA,NA,NA,NA,NA,NA,NA,NA,NA,NA,NA,NA,NA,NA,NA,NA,NA,NA,NA,NA,NA,NA,NA,NA,NA,NA,NA,NA,NA,NA,NA,NA,NA,NA,NA,NA,NA,NA,NA,"",NA,NA,NA,NA,NA,NA,NA,NA,NA,2025-11-20 22:13:04
"5685","https://psyc-201.github.io/xiang2023/exp/index1.html?PROLIFIC_PID=REDACTED&STUDY_ID=691f8ca61c6b4dcbb0aeb5f4&SESSION_ID=691f8ff0a585db83fa79a5c8","survey-text",45,621494,"0.0-362.0","XW2avBpwxnbis+BVW/BHOaLnhqMcig+wLJUFdK7XYyyp6IbbcExGOQvrbX/fa3e4z/6VqSu6P4sV1KKAfE8ofjzQwzEPmDmWNaErWN1LLfC66dSldOM9manX7+vrbWrJaVhrK8WkymJud4Udcu01mDvD0f65tfl8trHHlSINWXIHjgy8lYrdxrB+HVqTT1gfk1iuCZbPvkfk05VaNzyJu0umfXh9Z7U4/lwcGJOQPhL/zBtCdbFJD0VfDkWAE4d53bWPUfEXmfJoMBKJVsrXCaBxFq6hw6eV6KN5NP8NNFSgaOYV4A6SlPYtCU9vWKHdWCE/f0cRZTOG5Sx5XrrLaA==","691f8ca61c6b4dcbb0aeb5f4","691f8ff0a585db83fa79a5c8","index1","<span style='color:red'>Fail,<span style='color:red'>Fail,<span style='color:green'>Lift,<span style='color:green'>Lift,<span style='color:red'>Fail,<span style='color:red'>Fail,<span style='color:red'>Fail,<span style='color:red'>Fail,<span style='color:red'>Fail,<span style='color:green'>Lift,<span style='color:green'>Lift,<span style='color:red'>Fail","<span style='color:red'>Fail,<span style='color:red'>Fail,<span style='color:green'>Lift,<span style='color:green'>Lift,<span style='color:green'>Lift,<span style='color:green'>Lift,<span style='color:red'>Fail,<span style='color:green'>Lift,<span style='color:green'>Lift,<span style='color:green'>Lift,<span style='color:green'>Lift,<span style='color:red'>Fail","<span style='color:red'>Fail,<span style='color:green'>Lift,<span style='color:green'>Lift,<span style='color:red'>Fail,<span style='color:green'>Lift,<span style='color:green'>Lift","0,0,1,1,0,0,0,0,0,1,1,0","0,0,1,1,1,1,0,1,1,1,1,0","0,1,1,0,1,1",10,20,20,"","","","","{""Q0"":""""}","",NA,"",NA,NA,NA,NA,NA,NA,NA,NA,NA,NA,NA,NA,NA,NA,NA,NA,NA,NA,NA,NA,NA,NA,NA,NA,NA,NA,NA,NA,NA,NA,NA,NA,NA,NA,NA,NA,NA,NA,NA,NA,"[{""event"":""fullscreenenter"",""trial"":1,""time"":18061}]",3,3,NA,90,1,0.9,NA,NA,NA,2025-11-20 22:13:04
"7886.300000071526","https://psyc-201.github.io/xiang2023/exp/index1.html?PROLIFIC_PID=REDACTED&STUDY_ID=691f8ca61c6b4dcbb0aeb5f4&SESSION_ID=691f8ff0a585db83fa79a5c8","html-button-response",46,629381,"0.0-363.0","XW2avBpwxnbis+BVW/BHOaLnhqMcig+wLJUFdK7XYyyp6IbbcExGOQvrbX/fa3e4z/6VqSu6P4sV1KKAfE8ofjzQwzEPmDmWNaErWN1LLfC66dSldOM9manX7+vrbWrJaVhrK8WkymJud4Udcu01mDvD0f65tfl8trHHlSINWXIHjgy8lYrdxrB+HVqTT1gfk1iuCZbPvkfk05VaNzyJu0umfXh9Z7U4/lwcGJOQPhL/zBtCdbFJD0VfDkWAE4d53bWPUfEXmfJoMBKJVsrXCaBxFq6hw6eV6KN5NP8NNFSgaOYV4A6SlPYtCU9vWKHdWCE/f0cRZTOG5Sx5XrrLaA==","691f8ca61c6b4dcbb0aeb5f4","691f8ff0a585db83fa79a5c8","index1","<span style='color:red'>Fail,<span style='color:red'>Fail,<span style='color:green'>Lift,<span style='color:green'>Lift,<span style='color:red'>Fail,<span style='color:red'>Fail,<span style='color:red'>Fail,<span style='color:red'>Fail,<span style='color:red'>Fail,<span style='color:green'>Lift,<span style='color:green'>Lift,<span style='color:red'>Fail","<span style='color:red'>Fail,<span style='color:red'>Fail,<span style='color:green'>Lift,<span style='color:green'>Lift,<span style='color:green'>Lift,<span style='color:green'>Lift,<span style='color:red'>Fail,<span style='color:green'>Lift,<span style='color:green'>Lift,<span style='color:green'>Lift,<span style='color:green'>Lift,<span style='color:red'>Fail","<span style='color:red'>Fail,<span style='color:green'>Lift,<span style='color:green'>Lift,<span style='color:red'>Fail,<span style='color:green'>Lift,<span style='color:green'>Lift","0,0,1,1,0,0,0,0,0,1,1,0","0,0,1,1,1,1,0,1,1,1,1,0","0,1,1,0,1,1",10,20,20,"","","<p> We randomly picked <b>Contest 3, Round 3</b> to calculate your bonus. </p><p> The outcome of Contestant E and F on that round is <span style='color:green'>Lift</span>. </p><p> The probability you entered was 90. </p><p><b> You won a bonus of $0.90!</b></p><p> IMPORTANT: Please click 'Next' to complete the game. </p>","","","",NA,"",NA,NA,NA,NA,NA,NA,NA,NA,NA,NA,NA,NA,NA,NA,NA,NA,NA,NA,NA,NA,NA,NA,NA,NA,NA,NA,NA,NA,NA,NA,NA,NA,NA,NA,NA,NA,NA,NA,NA,NA,"",NA,NA,NA,NA,NA,NA,0,1,0,2025-11-20 22:13:04
