"rt","url","trial_type","trial_index","time_elapsed","internal_node_id","encryptedProlificId","studyId","sessionId","expIndex","round1_outcomes","round2_outcomes","round3_outcomes","round1_o","round2_o","round3_o","round1_reward","round2_reward","round3_reward","success","view_history","stimulus","key_press","responses","question_order","j","Stage","stage","contest","round","strength_a","strength_b","effort_a","effort_b","outcome_a","outcome_b","reward","r1_strength_a","r1_strength_b","r1_effort_a","r1_effort_b","r1_outcome_a","r1_outcome_b","r1_reward","probability_a","probability_b","r2_prob_a","r2_prob_b","r2_strength_a","r2_strength_b","r2_effort_a","r2_effort_b","r2_outcome_a","r2_outcome_b","r2_reward","r3_prob_a","r3_prob_b","r3_strength_a","r3_strength_b","r3_effort_a","r3_effort_b","r3_outcome_a","r3_outcome_b","r3_reward","attention_check","count","screen","pick_contest","pick_round","pick_side","trial_probability","trial_outcome","bonus","button_pressed","attention_sum","attention","datapipe_meta.attributes.date_modified"
"5152","https://psyc-201.github.io/xiang2023/exp/index1.html?PROLIFIC_PID=REDACTED&STUDY_ID=691f8ca61c6b4dcbb0aeb5f4&SESSION_ID=691fb3d33445aeef08ca733b","external-html",0,5211,"0.0-0.0","FHZwx1p/S4iHha3He3XHZnqeoZBAzONuZeG34L7ELfG2FxNGGwmHAmTlArgRtJXhgY8eTE6Hu5eKCx980qrXg5noYI6YoaWueZYAPLBXGSmFBONmpdZdpG8OV89L1jjPOG3vR30ZApL0scGqte/oVyS+Sv3AMhZDBSZ8j4tl0BGKaHyETff516NrU1WQhK0DKzvL+/MYl70SFVxCBjPMtwWzOC8GdulGvDqJhRXG/J+LRW4+/SWsmS1CcK5uGiqe3KXYvvLgYwXdhFBIpOoFvE5OJrsmeQLtZQlUUDKWAl3UfqSDAQ7SPgGzUf/bk5d6H2RtUzxIAEMgRLjAmXop0g==","691f8ca61c6b4dcbb0aeb5f4","691fb3d33445aeef08ca733b","index1","<span style='color:red'>Fail,<span style='color:red'>Fail,<span style='color:green'>Lift,<span style='color:green'>Lift,<span style='color:red'>Fail,<span style='color:red'>Fail,<span style='color:red'>Fail,<span style='color:red'>Fail,<span style='color:green'>Lift,<span style='color:red'>Fail,<span style='color:red'>Fail,<span style='color:green'>Lift","<span style='color:red'>Fail,<span style='color:red'>Fail,<span style='color:green'>Lift,<span style='color:green'>Lift,<span style='color:green'>Lift,<span style='color:green'>Lift,<span style='color:red'>Fail,<span style='color:green'>Lift,<span style='color:green'>Lift,<span style='color:green'>Lift,<span style='color:red'>Fail,<span style='color:green'>Lift","<span style='color:red'>Fail,<span style='color:green'>Lift,<span style='color:green'>Lift,<span style='color:red'>Fail,<span style='color:green'>Lift,<span style='color:green'>Lift","0,0,1,1,0,0,0,0,1,0,0,1","0,0,1,1,1,1,0,1,1,1,0,1","0,1,1,0,1,1",10,20,20,"","","","","","",NA,"",NA,NA,NA,NA,NA,NA,NA,NA,NA,NA,NA,NA,NA,NA,NA,NA,NA,NA,NA,NA,NA,NA,NA,NA,NA,NA,NA,NA,NA,NA,NA,NA,NA,NA,NA,NA,NA,NA,NA,"",NA,NA,NA,NA,NA,NA,NA,NA,NA,2025-11-21 00:56:30
"","https://psyc-201.github.io/xiang2023/exp/index1.html?PROLIFIC_PID=REDACTED&STUDY_ID=691f8ca61c6b4dcbb0aeb5f4&SESSION_ID=691fb3d33445aeef08ca733b","fullscreen",1,20934,"0.0-1.0","FHZwx1p/S4iHha3He3XHZnqeoZBAzONuZeG34L7ELfG2FxNGGwmHAmTlArgRtJXhgY8eTE6Hu5eKCx980qrXg5noYI6YoaWueZYAPLBXGSmFBONmpdZdpG8OV89L1jjPOG3vR30ZApL0scGqte/oVyS+Sv3AMhZDBSZ8j4tl0BGKaHyETff516NrU1WQhK0DKzvL+/MYl70SFVxCBjPMtwWzOC8GdulGvDqJhRXG/J+LRW4+/SWsmS1CcK5uGiqe3KXYvvLgYwXdhFBIpOoFvE5OJrsmeQLtZQlUUDKWAl3UfqSDAQ7SPgGzUf/bk5d6H2RtUzxIAEMgRLjAmXop0g==","691f8ca61c6b4dcbb0aeb5f4","691fb3d33445aeef08ca733b","index1","<span style='color:red'>Fail,<span style='color:red'>Fail,<span style='color:green'>Lift,<span style='color:green'>Lift,<span style='color:red'>Fail,<span style='color:red'>Fail,<span style='color:red'>Fail,<span style='color:red'>Fail,<span style='color:green'>Lift,<span style='color:red'>Fail,<span style='color:red'>Fail,<span style='color:green'>Lift","<span style='color:red'>Fail,<span style='color:red'>Fail,<span style='color:green'>Lift,<span style='color:green'>Lift,<span style='color:green'>Lift,<span style='color:green'>Lift,<span style='color:red'>Fail,<span style='color:green'>Lift,<span style='color:green'>Lift,<span style='color:green'>Lift,<span style='color:red'>Fail,<span style='color:green'>Lift","<span style='color:red'>Fail,<span style='color:green'>Lift,<span style='color:green'>Lift,<span style='color:red'>Fail,<span style='color:green'>Lift,<span style='color:green'>Lift","0,0,1,1,0,0,0,0,1,0,0,1","0,0,1,1,1,1,0,1,1,1,0,1","0,1,1,0,1,1",10,20,20,"true","","","","","",NA,"",NA,NA,NA,NA,NA,NA,NA,NA,NA,NA,NA,NA,NA,NA,NA,NA,NA,NA,NA,NA,NA,NA,NA,NA,NA,NA,NA,NA,NA,NA,NA,NA,NA,NA,NA,NA,NA,NA,NA,"",NA,NA,NA,NA,NA,NA,NA,NA,NA,2025-11-21 00:56:30
"124957.5","https://psyc-201.github.io/xiang2023/exp/index1.html?PROLIFIC_PID=REDACTED&STUDY_ID=691f8ca61c6b4dcbb0aeb5f4&SESSION_ID=691fb3d33445aeef08ca733b","instructions",2,145892,"0.0-2.0","FHZwx1p/S4iHha3He3XHZnqeoZBAzONuZeG34L7ELfG2FxNGGwmHAmTlArgRtJXhgY8eTE6Hu5eKCx980qrXg5noYI6YoaWueZYAPLBXGSmFBONmpdZdpG8OV89L1jjPOG3vR30ZApL0scGqte/oVyS+Sv3AMhZDBSZ8j4tl0BGKaHyETff516NrU1WQhK0DKzvL+/MYl70SFVxCBjPMtwWzOC8GdulGvDqJhRXG/J+LRW4+/SWsmS1CcK5uGiqe3KXYvvLgYwXdhFBIpOoFvE5OJrsmeQLtZQlUUDKWAl3UfqSDAQ7SPgGzUf/bk5d6H2RtUzxIAEMgRLjAmXop0g==","691f8ca61c6b4dcbb0aeb5f4","691fb3d33445aeef08ca733b","index1","<span style='color:red'>Fail,<span style='color:red'>Fail,<span style='color:green'>Lift,<span style='color:green'>Lift,<span style='color:red'>Fail,<span style='color:red'>Fail,<span style='color:red'>Fail,<span style='color:red'>Fail,<span style='color:green'>Lift,<span style='color:red'>Fail,<span style='color:red'>Fail,<span style='color:green'>Lift","<span style='color:red'>Fail,<span style='color:red'>Fail,<span style='color:green'>Lift,<span style='color:green'>Lift,<span style='color:green'>Lift,<span style='color:green'>Lift,<span style='color:red'>Fail,<span style='color:green'>Lift,<span style='color:green'>Lift,<span style='color:green'>Lift,<span style='color:red'>Fail,<span style='color:green'>Lift","<span style='color:red'>Fail,<span style='color:green'>Lift,<span style='color:green'>Lift,<span style='color:red'>Fail,<span style='color:green'>Lift,<span style='color:green'>Lift","0,0,1,1,0,0,0,0,1,0,0,1","0,0,1,1,1,1,0,1,1,1,0,1","0,1,1,0,1,1",10,20,20,"","[{""page_index"":0,""viewing_time"":59099.39999999851},{""page_index"":1,""viewing_time"":12017.80000000447},{""page_index"":2,""viewing_time"":8546.29999999702},{""page_index"":3,""viewing_time"":10518.29999999702},{""page_index"":4,""viewing_time"":5939.70000000298},{""page_index"":5,""viewing_time"":9319.5},{""page_index"":6,""viewing_time"":19516.20000000298}]","","","","",NA,"",NA,NA,NA,NA,NA,NA,NA,NA,NA,NA,NA,NA,NA,NA,NA,NA,NA,NA,NA,NA,NA,NA,NA,NA,NA,NA,NA,NA,NA,NA,NA,NA,NA,NA,NA,NA,NA,NA,NA,"",NA,NA,NA,NA,NA,NA,NA,NA,NA,2025-11-21 00:56:30
"null","https://psyc-201.github.io/xiang2023/exp/index1.html?PROLIFIC_PID=REDACTED&STUDY_ID=691f8ca61c6b4dcbb0aeb5f4&SESSION_ID=691fb3d33445aeef08ca733b","html-keyboard-response",3,146904,"0.0-3.0","FHZwx1p/S4iHha3He3XHZnqeoZBAzONuZeG34L7ELfG2FxNGGwmHAmTlArgRtJXhgY8eTE6Hu5eKCx980qrXg5noYI6YoaWueZYAPLBXGSmFBONmpdZdpG8OV89L1jjPOG3vR30ZApL0scGqte/oVyS+Sv3AMhZDBSZ8j4tl0BGKaHyETff516NrU1WQhK0DKzvL+/MYl70SFVxCBjPMtwWzOC8GdulGvDqJhRXG/J+LRW4+/SWsmS1CcK5uGiqe3KXYvvLgYwXdhFBIpOoFvE5OJrsmeQLtZQlUUDKWAl3UfqSDAQ7SPgGzUf/bk5d6H2RtUzxIAEMgRLjAmXop0g==","691f8ca61c6b4dcbb0aeb5f4","691fb3d33445aeef08ca733b","index1","<span style='color:red'>Fail,<span style='color:red'>Fail,<span style='color:green'>Lift,<span style='color:green'>Lift,<span style='color:red'>Fail,<span style='color:red'>Fail,<span style='color:red'>Fail,<span style='color:red'>Fail,<span style='color:green'>Lift,<span style='color:red'>Fail,<span style='color:red'>Fail,<span style='color:green'>Lift","<span style='color:red'>Fail,<span style='color:red'>Fail,<span style='color:green'>Lift,<span style='color:green'>Lift,<span style='color:green'>Lift,<span style='color:green'>Lift,<span style='color:red'>Fail,<span style='color:green'>Lift,<span style='color:green'>Lift,<span style='color:green'>Lift,<span style='color:red'>Fail,<span style='color:green'>Lift","<span style='color:red'>Fail,<span style='color:green'>Lift,<span style='color:green'>Lift,<span style='color:red'>Fail,<span style='color:green'>Lift,<span style='color:green'>Lift","0,0,1,1,0,0,0,0,1,0,0,1","0,0,1,1,1,1,0,1,1,1,0,1","0,1,1,0,1,1",10,20,20,"",""," ","null","","",NA,"",NA,NA,NA,NA,NA,NA,NA,NA,NA,NA,NA,NA,NA,NA,NA,NA,NA,NA,NA,NA,NA,NA,NA,NA,NA,NA,NA,NA,NA,NA,NA,NA,NA,NA,NA,NA,NA,NA,NA,"",NA,NA,NA,NA,NA,NA,NA,NA,NA,2025-11-21 00:56:30
"36556.10000000149","https://psyc-201.github.io/xiang2023/exp/index1.html?PROLIFIC_PID=REDACTED&STUDY_ID=691f8ca61c6b4dcbb0aeb5f4&SESSION_ID=691fb3d33445aeef08ca733b","survey-multi-choice",4,183463,"0.0-4.0","FHZwx1p/S4iHha3He3XHZnqeoZBAzONuZeG34L7ELfG2FxNGGwmHAmTlArgRtJXhgY8eTE6Hu5eKCx980qrXg5noYI6YoaWueZYAPLBXGSmFBONmpdZdpG8OV89L1jjPOG3vR30ZApL0scGqte/oVyS+Sv3AMhZDBSZ8j4tl0BGKaHyETff516NrU1WQhK0DKzvL+/MYl70SFVxCBjPMtwWzOC8GdulGvDqJhRXG/J+LRW4+/SWsmS1CcK5uGiqe3KXYvvLgYwXdhFBIpOoFvE5OJrsmeQLtZQlUUDKWAl3UfqSDAQ7SPgGzUf/bk5d6H2RtUzxIAEMgRLjAmXop0g==","691f8ca61c6b4dcbb0aeb5f4","691fb3d33445aeef08ca733b","index1","<span style='color:red'>Fail,<span style='color:red'>Fail,<span style='color:green'>Lift,<span style='color:green'>Lift,<span style='color:red'>Fail,<span style='color:red'>Fail,<span style='color:red'>Fail,<span style='color:red'>Fail,<span style='color:green'>Lift,<span style='color:red'>Fail,<span style='color:red'>Fail,<span style='color:green'>Lift","<span style='color:red'>Fail,<span style='color:red'>Fail,<span style='color:green'>Lift,<span style='color:green'>Lift,<span style='color:green'>Lift,<span style='color:green'>Lift,<span style='color:red'>Fail,<span style='color:green'>Lift,<span style='color:green'>Lift,<span style='color:green'>Lift,<span style='color:red'>Fail,<span style='color:green'>Lift","<span style='color:red'>Fail,<span style='color:green'>Lift,<span style='color:green'>Lift,<span style='color:red'>Fail,<span style='color:green'>Lift,<span style='color:green'>Lift","0,0,1,1,0,0,0,0,1,0,0,1","0,0,1,1,1,1,0,1,1,1,0,1","0,1,1,0,1,1",10,20,20,"","","","","{""Q0"":""It consists of multiple contests, each contest with three rounds."",""Q1"":""When a new contest begins."",""Q2"":""The box weight always stays the same (equivalent to strength of 5)."",""Q3"":""Each will get $20."",""Q4"":""How close my guesses are to the actual outcome.""}","[0,1,2,3,4]",NA,"",NA,NA,NA,NA,NA,NA,NA,NA,NA,NA,NA,NA,NA,NA,NA,NA,NA,NA,NA,NA,NA,NA,NA,NA,NA,NA,NA,NA,NA,NA,NA,NA,NA,NA,NA,NA,NA,NA,NA,"",NA,NA,NA,NA,NA,NA,NA,NA,NA,2025-11-21 00:56:30
"38629","https://psyc-201.github.io/xiang2023/exp/index1.html?PROLIFIC_PID=REDACTED&STUDY_ID=691f8ca61c6b4dcbb0aeb5f4&SESSION_ID=691fb3d33445aeef08ca733b","instructions",5,222099,"0.0-305.0","FHZwx1p/S4iHha3He3XHZnqeoZBAzONuZeG34L7ELfG2FxNGGwmHAmTlArgRtJXhgY8eTE6Hu5eKCx980qrXg5noYI6YoaWueZYAPLBXGSmFBONmpdZdpG8OV89L1jjPOG3vR30ZApL0scGqte/oVyS+Sv3AMhZDBSZ8j4tl0BGKaHyETff516NrU1WQhK0DKzvL+/MYl70SFVxCBjPMtwWzOC8GdulGvDqJhRXG/J+LRW4+/SWsmS1CcK5uGiqe3KXYvvLgYwXdhFBIpOoFvE5OJrsmeQLtZQlUUDKWAl3UfqSDAQ7SPgGzUf/bk5d6H2RtUzxIAEMgRLjAmXop0g==","691f8ca61c6b4dcbb0aeb5f4","691fb3d33445aeef08ca733b","index1","<span style='color:red'>Fail,<span style='color:red'>Fail,<span style='color:green'>Lift,<span style='color:green'>Lift,<span style='color:red'>Fail,<span style='color:red'>Fail,<span style='color:red'>Fail,<span style='color:red'>Fail,<span style='color:green'>Lift,<span style='color:red'>Fail,<span style='color:red'>Fail,<span style='color:green'>Lift","<span style='color:red'>Fail,<span style='color:red'>Fail,<span style='color:green'>Lift,<span style='color:green'>Lift,<span style='color:green'>Lift,<span style='color:green'>Lift,<span style='color:red'>Fail,<span style='color:green'>Lift,<span style='color:green'>Lift,<span style='color:green'>Lift,<span style='color:red'>Fail,<span style='color:green'>Lift","<span style='color:red'>Fail,<span style='color:green'>Lift,<span style='color:green'>Lift,<span style='color:red'>Fail,<span style='color:green'>Lift,<span style='color:green'>Lift","0,0,1,1,0,0,0,0,1,0,0,1","0,0,1,1,1,1,0,1,1,1,0,1","0,1,1,0,1,1",10,20,20,"","[{""page_index"":0,""viewing_time"":28708.60000000149},{""page_index"":1,""viewing_time"":9920}]","","","","",NA,"",NA,NA,NA,NA,NA,NA,NA,NA,NA,NA,NA,NA,NA,NA,NA,NA,NA,NA,NA,NA,NA,NA,NA,NA,NA,NA,NA,NA,NA,NA,NA,NA,NA,NA,NA,NA,NA,NA,NA,"",NA,NA,NA,NA,NA,NA,NA,NA,NA,2025-11-21 00:56:30
"null","https://psyc-201.github.io/xiang2023/exp/index1.html?PROLIFIC_PID=REDACTED&STUDY_ID=691f8ca61c6b4dcbb0aeb5f4&SESSION_ID=691fb3d33445aeef08ca733b","html-keyboard-response",6,223102,"0.0-306.0","FHZwx1p/S4iHha3He3XHZnqeoZBAzONuZeG34L7ELfG2FxNGGwmHAmTlArgRtJXhgY8eTE6Hu5eKCx980qrXg5noYI6YoaWueZYAPLBXGSmFBONmpdZdpG8OV89L1jjPOG3vR30ZApL0scGqte/oVyS+Sv3AMhZDBSZ8j4tl0BGKaHyETff516NrU1WQhK0DKzvL+/MYl70SFVxCBjPMtwWzOC8GdulGvDqJhRXG/J+LRW4+/SWsmS1CcK5uGiqe3KXYvvLgYwXdhFBIpOoFvE5OJrsmeQLtZQlUUDKWAl3UfqSDAQ7SPgGzUf/bk5d6H2RtUzxIAEMgRLjAmXop0g==","691f8ca61c6b4dcbb0aeb5f4","691fb3d33445aeef08ca733b","index1","<span style='color:red'>Fail,<span style='color:red'>Fail,<span style='color:green'>Lift,<span style='color:green'>Lift,<span style='color:red'>Fail,<span style='color:red'>Fail,<span style='color:red'>Fail,<span style='color:red'>Fail,<span style='color:green'>Lift,<span style='color:red'>Fail,<span style='color:red'>Fail,<span style='color:green'>Lift","<span style='color:red'>Fail,<span style='color:red'>Fail,<span style='color:green'>Lift,<span style='color:green'>Lift,<span style='color:green'>Lift,<span style='color:green'>Lift,<span style='color:red'>Fail,<span style='color:green'>Lift,<span style='color:green'>Lift,<span style='color:green'>Lift,<span style='color:red'>Fail,<span style='color:green'>Lift","<span style='color:red'>Fail,<span style='color:green'>Lift,<span style='color:green'>Lift,<span style='color:red'>Fail,<span style='color:green'>Lift,<span style='color:green'>Lift","0,0,1,1,0,0,0,0,1,0,0,1","0,0,1,1,1,1,0,1,1,1,0,1","0,1,1,0,1,1",10,20,20,"",""," ","null","","",1,"",NA,NA,NA,NA,NA,NA,NA,NA,NA,NA,NA,NA,NA,NA,NA,NA,NA,NA,NA,NA,NA,NA,NA,NA,NA,NA,NA,NA,NA,NA,NA,NA,NA,NA,NA,NA,NA,NA,NA,"",NA,NA,NA,NA,NA,NA,NA,NA,NA,2025-11-21 00:56:30
"null","https://psyc-201.github.io/xiang2023/exp/index1.html?PROLIFIC_PID=REDACTED&STUDY_ID=691f8ca61c6b4dcbb0aeb5f4&SESSION_ID=691fb3d33445aeef08ca733b","html-keyboard-response",7,226114,"0.0-307.0","FHZwx1p/S4iHha3He3XHZnqeoZBAzONuZeG34L7ELfG2FxNGGwmHAmTlArgRtJXhgY8eTE6Hu5eKCx980qrXg5noYI6YoaWueZYAPLBXGSmFBONmpdZdpG8OV89L1jjPOG3vR30ZApL0scGqte/oVyS+Sv3AMhZDBSZ8j4tl0BGKaHyETff516NrU1WQhK0DKzvL+/MYl70SFVxCBjPMtwWzOC8GdulGvDqJhRXG/J+LRW4+/SWsmS1CcK5uGiqe3KXYvvLgYwXdhFBIpOoFvE5OJrsmeQLtZQlUUDKWAl3UfqSDAQ7SPgGzUf/bk5d6H2RtUzxIAEMgRLjAmXop0g==","691f8ca61c6b4dcbb0aeb5f4","691fb3d33445aeef08ca733b","index1","<span style='color:red'>Fail,<span style='color:red'>Fail,<span style='color:green'>Lift,<span style='color:green'>Lift,<span style='color:red'>Fail,<span style='color:red'>Fail,<span style='color:red'>Fail,<span style='color:red'>Fail,<span style='color:green'>Lift,<span style='color:red'>Fail,<span style='color:red'>Fail,<span style='color:green'>Lift","<span style='color:red'>Fail,<span style='color:red'>Fail,<span style='color:green'>Lift,<span style='color:green'>Lift,<span style='color:green'>Lift,<span style='color:green'>Lift,<span style='color:red'>Fail,<span style='color:green'>Lift,<span style='color:green'>Lift,<span style='color:green'>Lift,<span style='color:red'>Fail,<span style='color:green'>Lift","<span style='color:red'>Fail,<span style='color:green'>Lift,<span style='color:green'>Lift,<span style='color:red'>Fail,<span style='color:green'>Lift,<span style='color:green'>Lift","0,0,1,1,0,0,0,0,1,0,0,1","0,0,1,1,1,1,0,1,1,1,0,1","0,1,1,0,1,1",10,20,20,"","","<p style='font-size:30px'><b> New Contest! </b></p>","null","","",1,"",NA,NA,NA,NA,NA,NA,NA,NA,NA,NA,NA,NA,NA,NA,NA,NA,NA,NA,NA,NA,NA,NA,NA,NA,NA,NA,NA,NA,NA,NA,NA,NA,NA,NA,NA,NA,NA,NA,NA,"",NA,NA,NA,NA,NA,NA,NA,NA,NA,2025-11-21 00:56:30
"24380.40000000596","https://psyc-201.github.io/xiang2023/exp/index1.html?PROLIFIC_PID=REDACTED&STUDY_ID=691f8ca61c6b4dcbb0aeb5f4&SESSION_ID=691fb3d33445aeef08ca733b","survey-html-form",8,250497,"0.0-308.0","FHZwx1p/S4iHha3He3XHZnqeoZBAzONuZeG34L7ELfG2FxNGGwmHAmTlArgRtJXhgY8eTE6Hu5eKCx980qrXg5noYI6YoaWueZYAPLBXGSmFBONmpdZdpG8OV89L1jjPOG3vR30ZApL0scGqte/oVyS+Sv3AMhZDBSZ8j4tl0BGKaHyETff516NrU1WQhK0DKzvL+/MYl70SFVxCBjPMtwWzOC8GdulGvDqJhRXG/J+LRW4+/SWsmS1CcK5uGiqe3KXYvvLgYwXdhFBIpOoFvE5OJrsmeQLtZQlUUDKWAl3UfqSDAQ7SPgGzUf/bk5d6H2RtUzxIAEMgRLjAmXop0g==","691f8ca61c6b4dcbb0aeb5f4","691fb3d33445aeef08ca733b","index1","<span style='color:red'>Fail,<span style='color:red'>Fail,<span style='color:green'>Lift,<span style='color:green'>Lift,<span style='color:red'>Fail,<span style='color:red'>Fail,<span style='color:red'>Fail,<span style='color:red'>Fail,<span style='color:green'>Lift,<span style='color:red'>Fail,<span style='color:red'>Fail,<span style='color:green'>Lift","<span style='color:red'>Fail,<span style='color:red'>Fail,<span style='color:green'>Lift,<span style='color:green'>Lift,<span style='color:green'>Lift,<span style='color:green'>Lift,<span style='color:red'>Fail,<span style='color:green'>Lift,<span style='color:green'>Lift,<span style='color:green'>Lift,<span style='color:red'>Fail,<span style='color:green'>Lift","<span style='color:red'>Fail,<span style='color:green'>Lift,<span style='color:green'>Lift,<span style='color:red'>Fail,<span style='color:green'>Lift,<span style='color:green'>Lift","0,0,1,1,0,0,0,0,1,0,0,1","0,0,1,1,1,1,0,1,1,1,0,1","0,1,1,0,1,1",10,20,20,"","","","","{""box1"":""4"",""box2"":""4""}","",1,"round1_outcome",1,1,1,4,4,NA,NA,0,0,10,4,4,NA,NA,0,0,10,NA,NA,NA,NA,NA,NA,NA,NA,NA,NA,NA,NA,NA,NA,NA,NA,NA,NA,NA,NA,NA,NA,"",NA,NA,NA,NA,NA,NA,NA,NA,NA,2025-11-21 00:56:30
"18724","https://psyc-201.github.io/xiang2023/exp/index1.html?PROLIFIC_PID=REDACTED&STUDY_ID=691f8ca61c6b4dcbb0aeb5f4&SESSION_ID=691fb3d33445aeef08ca733b","survey-html-form",9,269222,"0.0-309.0","FHZwx1p/S4iHha3He3XHZnqeoZBAzONuZeG34L7ELfG2FxNGGwmHAmTlArgRtJXhgY8eTE6Hu5eKCx980qrXg5noYI6YoaWueZYAPLBXGSmFBONmpdZdpG8OV89L1jjPOG3vR30ZApL0scGqte/oVyS+Sv3AMhZDBSZ8j4tl0BGKaHyETff516NrU1WQhK0DKzvL+/MYl70SFVxCBjPMtwWzOC8GdulGvDqJhRXG/J+LRW4+/SWsmS1CcK5uGiqe3KXYvvLgYwXdhFBIpOoFvE5OJrsmeQLtZQlUUDKWAl3UfqSDAQ7SPgGzUf/bk5d6H2RtUzxIAEMgRLjAmXop0g==","691f8ca61c6b4dcbb0aeb5f4","691fb3d33445aeef08ca733b","index1","<span style='color:red'>Fail,<span style='color:red'>Fail,<span style='color:green'>Lift,<span style='color:green'>Lift,<span style='color:red'>Fail,<span style='color:red'>Fail,<span style='color:red'>Fail,<span style='color:red'>Fail,<span style='color:green'>Lift,<span style='color:red'>Fail,<span style='color:red'>Fail,<span style='color:green'>Lift","<span style='color:red'>Fail,<span style='color:red'>Fail,<span style='color:green'>Lift,<span style='color:green'>Lift,<span style='color:green'>Lift,<span style='color:green'>Lift,<span style='color:red'>Fail,<span style='color:green'>Lift,<span style='color:green'>Lift,<span style='color:green'>Lift,<span style='color:red'>Fail,<span style='color:green'>Lift","<span style='color:red'>Fail,<span style='color:green'>Lift,<span style='color:green'>Lift,<span style='color:red'>Fail,<span style='color:green'>Lift,<span style='color:green'>Lift","0,0,1,1,0,0,0,0,1,0,0,1","0,0,1,1,1,1,0,1,1,1,0,1","0,1,1,0,1,1",10,20,20,"","","","","{""box1"":""0"",""box2"":""0""}","",1,"round2_ready",2,1,2,NA,NA,NA,NA,NA,NA,NA,NA,NA,NA,NA,NA,NA,NA,0,0,0,0,NA,NA,NA,NA,NA,NA,NA,NA,NA,NA,NA,NA,NA,NA,NA,NA,NA,NA,"",NA,NA,NA,NA,NA,NA,NA,NA,NA,2025-11-21 00:56:30
"19718.60000000149","https://psyc-201.github.io/xiang2023/exp/index1.html?PROLIFIC_PID=REDACTED&STUDY_ID=691f8ca61c6b4dcbb0aeb5f4&SESSION_ID=691fb3d33445aeef08ca733b","survey-html-form",10,288943,"0.0-310.0","FHZwx1p/S4iHha3He3XHZnqeoZBAzONuZeG34L7ELfG2FxNGGwmHAmTlArgRtJXhgY8eTE6Hu5eKCx980qrXg5noYI6YoaWueZYAPLBXGSmFBONmpdZdpG8OV89L1jjPOG3vR30ZApL0scGqte/oVyS+Sv3AMhZDBSZ8j4tl0BGKaHyETff516NrU1WQhK0DKzvL+/MYl70SFVxCBjPMtwWzOC8GdulGvDqJhRXG/J+LRW4+/SWsmS1CcK5uGiqe3KXYvvLgYwXdhFBIpOoFvE5OJrsmeQLtZQlUUDKWAl3UfqSDAQ7SPgGzUf/bk5d6H2RtUzxIAEMgRLjAmXop0g==","691f8ca61c6b4dcbb0aeb5f4","691fb3d33445aeef08ca733b","index1","<span style='color:red'>Fail,<span style='color:red'>Fail,<span style='color:green'>Lift,<span style='color:green'>Lift,<span style='color:red'>Fail,<span style='color:red'>Fail,<span style='color:red'>Fail,<span style='color:red'>Fail,<span style='color:green'>Lift,<span style='color:red'>Fail,<span style='color:red'>Fail,<span style='color:green'>Lift","<span style='color:red'>Fail,<span style='color:red'>Fail,<span style='color:green'>Lift,<span style='color:green'>Lift,<span style='color:green'>Lift,<span style='color:green'>Lift,<span style='color:red'>Fail,<span style='color:green'>Lift,<span style='color:green'>Lift,<span style='color:green'>Lift,<span style='color:red'>Fail,<span style='color:green'>Lift","<span style='color:red'>Fail,<span style='color:green'>Lift,<span style='color:green'>Lift,<span style='color:red'>Fail,<span style='color:green'>Lift,<span style='color:green'>Lift","0,0,1,1,0,0,0,0,1,0,0,1","0,0,1,1,1,1,0,1,1,1,0,1","0,1,1,0,1,1",10,20,20,"","","","","{""box1"":""5"",""box2"":""5"",""box3"":""100"",""box4"":""100""}","",1,"round2_outcome",3,1,2,5,5,100,100,1,1,20,NA,NA,NA,NA,NA,NA,NA,NA,NA,NA,NA,5,5,100,100,1,1,20,NA,NA,NA,NA,NA,NA,NA,NA,NA,NA,NA,"",NA,NA,NA,NA,NA,NA,NA,NA,NA,2025-11-21 00:56:30
"17530","https://psyc-201.github.io/xiang2023/exp/index1.html?PROLIFIC_PID=REDACTED&STUDY_ID=691f8ca61c6b4dcbb0aeb5f4&SESSION_ID=691fb3d33445aeef08ca733b","survey-html-form",11,306474,"0.0-311.0","FHZwx1p/S4iHha3He3XHZnqeoZBAzONuZeG34L7ELfG2FxNGGwmHAmTlArgRtJXhgY8eTE6Hu5eKCx980qrXg5noYI6YoaWueZYAPLBXGSmFBONmpdZdpG8OV89L1jjPOG3vR30ZApL0scGqte/oVyS+Sv3AMhZDBSZ8j4tl0BGKaHyETff516NrU1WQhK0DKzvL+/MYl70SFVxCBjPMtwWzOC8GdulGvDqJhRXG/J+LRW4+/SWsmS1CcK5uGiqe3KXYvvLgYwXdhFBIpOoFvE5OJrsmeQLtZQlUUDKWAl3UfqSDAQ7SPgGzUf/bk5d6H2RtUzxIAEMgRLjAmXop0g==","691f8ca61c6b4dcbb0aeb5f4","691fb3d33445aeef08ca733b","index1","<span style='color:red'>Fail,<span style='color:red'>Fail,<span style='color:green'>Lift,<span style='color:green'>Lift,<span style='color:red'>Fail,<span style='color:red'>Fail,<span style='color:red'>Fail,<span style='color:red'>Fail,<span style='color:green'>Lift,<span style='color:red'>Fail,<span style='color:red'>Fail,<span style='color:green'>Lift","<span style='color:red'>Fail,<span style='color:red'>Fail,<span style='color:green'>Lift,<span style='color:green'>Lift,<span style='color:green'>Lift,<span style='color:green'>Lift,<span style='color:red'>Fail,<span style='color:green'>Lift,<span style='color:green'>Lift,<span style='color:green'>Lift,<span style='color:red'>Fail,<span style='color:green'>Lift","<span style='color:red'>Fail,<span style='color:green'>Lift,<span style='color:green'>Lift,<span style='color:red'>Fail,<span style='color:green'>Lift,<span style='color:green'>Lift","0,0,1,1,0,0,0,0,1,0,0,1","0,0,1,1,1,1,0,1,1,1,0,1","0,1,1,0,1,1",10,20,20,"","","","","{""box1"":""100""}","",1,"round3_ready",4,1,3,NA,NA,NA,NA,NA,NA,NA,NA,NA,NA,NA,NA,NA,NA,100,100,NA,NA,NA,NA,NA,NA,NA,NA,NA,100,100,NA,NA,NA,NA,NA,NA,NA,NA,NA,"",NA,NA,NA,NA,NA,NA,NA,NA,NA,2025-11-21 00:56:30
"21612.60000000149","https://psyc-201.github.io/xiang2023/exp/index1.html?PROLIFIC_PID=REDACTED&STUDY_ID=691f8ca61c6b4dcbb0aeb5f4&SESSION_ID=691fb3d33445aeef08ca733b","survey-html-form",12,328088,"0.0-312.0-0.0","FHZwx1p/S4iHha3He3XHZnqeoZBAzONuZeG34L7ELfG2FxNGGwmHAmTlArgRtJXhgY8eTE6Hu5eKCx980qrXg5noYI6YoaWueZYAPLBXGSmFBONmpdZdpG8OV89L1jjPOG3vR30ZApL0scGqte/oVyS+Sv3AMhZDBSZ8j4tl0BGKaHyETff516NrU1WQhK0DKzvL+/MYl70SFVxCBjPMtwWzOC8GdulGvDqJhRXG/J+LRW4+/SWsmS1CcK5uGiqe3KXYvvLgYwXdhFBIpOoFvE5OJrsmeQLtZQlUUDKWAl3UfqSDAQ7SPgGzUf/bk5d6H2RtUzxIAEMgRLjAmXop0g==","691f8ca61c6b4dcbb0aeb5f4","691fb3d33445aeef08ca733b","index1","<span style='color:red'>Fail,<span style='color:red'>Fail,<span style='color:green'>Lift,<span style='color:green'>Lift,<span style='color:red'>Fail,<span style='color:red'>Fail,<span style='color:red'>Fail,<span style='color:red'>Fail,<span style='color:green'>Lift,<span style='color:red'>Fail,<span style='color:red'>Fail,<span style='color:green'>Lift","<span style='color:red'>Fail,<span style='color:red'>Fail,<span style='color:green'>Lift,<span style='color:green'>Lift,<span style='color:green'>Lift,<span style='color:green'>Lift,<span style='color:red'>Fail,<span style='color:green'>Lift,<span style='color:green'>Lift,<span style='color:green'>Lift,<span style='color:red'>Fail,<span style='color:green'>Lift","<span style='color:red'>Fail,<span style='color:green'>Lift,<span style='color:green'>Lift,<span style='color:red'>Fail,<span style='color:green'>Lift,<span style='color:green'>Lift","0,0,1,1,0,0,0,0,1,0,0,1","0,0,1,1,1,1,0,1,1,1,0,1","0,1,1,0,1,1",10,20,20,"","","","","{""box1"":""5"",""box2"":""5"",""box3"":""50"",""box4"":""50""}","",2,"round3_lift",5,1,3,5,5,50,50,1,1,20,NA,NA,NA,NA,NA,NA,NA,NA,NA,NA,NA,NA,NA,NA,NA,NA,NA,NA,NA,NA,5,5,50,50,1,1,20,NA,NA,"",NA,NA,NA,NA,NA,NA,NA,NA,NA,2025-11-21 00:56:30
"null","https://psyc-201.github.io/xiang2023/exp/index1.html?PROLIFIC_PID=REDACTED&STUDY_ID=691f8ca61c6b4dcbb0aeb5f4&SESSION_ID=691fb3d33445aeef08ca733b","html-keyboard-response",13,331091,"0.0-316.0","FHZwx1p/S4iHha3He3XHZnqeoZBAzONuZeG34L7ELfG2FxNGGwmHAmTlArgRtJXhgY8eTE6Hu5eKCx980qrXg5noYI6YoaWueZYAPLBXGSmFBONmpdZdpG8OV89L1jjPOG3vR30ZApL0scGqte/oVyS+Sv3AMhZDBSZ8j4tl0BGKaHyETff516NrU1WQhK0DKzvL+/MYl70SFVxCBjPMtwWzOC8GdulGvDqJhRXG/J+LRW4+/SWsmS1CcK5uGiqe3KXYvvLgYwXdhFBIpOoFvE5OJrsmeQLtZQlUUDKWAl3UfqSDAQ7SPgGzUf/bk5d6H2RtUzxIAEMgRLjAmXop0g==","691f8ca61c6b4dcbb0aeb5f4","691fb3d33445aeef08ca733b","index1","<span style='color:red'>Fail,<span style='color:red'>Fail,<span style='color:green'>Lift,<span style='color:green'>Lift,<span style='color:red'>Fail,<span style='color:red'>Fail,<span style='color:red'>Fail,<span style='color:red'>Fail,<span style='color:green'>Lift,<span style='color:red'>Fail,<span style='color:red'>Fail,<span style='color:green'>Lift","<span style='color:red'>Fail,<span style='color:red'>Fail,<span style='color:green'>Lift,<span style='color:green'>Lift,<span style='color:green'>Lift,<span style='color:green'>Lift,<span style='color:red'>Fail,<span style='color:green'>Lift,<span style='color:green'>Lift,<span style='color:green'>Lift,<span style='color:red'>Fail,<span style='color:green'>Lift","<span style='color:red'>Fail,<span style='color:green'>Lift,<span style='color:green'>Lift,<span style='color:red'>Fail,<span style='color:green'>Lift,<span style='color:green'>Lift","0,0,1,1,0,0,0,0,1,0,0,1","0,0,1,1,1,1,0,1,1,1,0,1","0,1,1,0,1,1",10,20,20,"","","<p style='font-size:30px'><b> New Contest! </b></p>","null","","",2,"",NA,NA,NA,NA,NA,NA,NA,NA,NA,NA,NA,NA,NA,NA,NA,NA,NA,NA,NA,NA,NA,NA,NA,NA,NA,NA,NA,NA,NA,NA,NA,NA,NA,NA,NA,NA,NA,NA,NA,"",NA,NA,NA,NA,NA,NA,NA,NA,NA,2025-11-21 00:56:30
"35042.5","https://psyc-201.github.io/xiang2023/exp/index1.html?PROLIFIC_PID=REDACTED&STUDY_ID=691f8ca61c6b4dcbb0aeb5f4&SESSION_ID=691fb3d33445aeef08ca733b","survey-html-form",14,366136,"0.0-317.0","FHZwx1p/S4iHha3He3XHZnqeoZBAzONuZeG34L7ELfG2FxNGGwmHAmTlArgRtJXhgY8eTE6Hu5eKCx980qrXg5noYI6YoaWueZYAPLBXGSmFBONmpdZdpG8OV89L1jjPOG3vR30ZApL0scGqte/oVyS+Sv3AMhZDBSZ8j4tl0BGKaHyETff516NrU1WQhK0DKzvL+/MYl70SFVxCBjPMtwWzOC8GdulGvDqJhRXG/J+LRW4+/SWsmS1CcK5uGiqe3KXYvvLgYwXdhFBIpOoFvE5OJrsmeQLtZQlUUDKWAl3UfqSDAQ7SPgGzUf/bk5d6H2RtUzxIAEMgRLjAmXop0g==","691f8ca61c6b4dcbb0aeb5f4","691fb3d33445aeef08ca733b","index1","<span style='color:red'>Fail,<span style='color:red'>Fail,<span style='color:green'>Lift,<span style='color:green'>Lift,<span style='color:red'>Fail,<span style='color:red'>Fail,<span style='color:red'>Fail,<span style='color:red'>Fail,<span style='color:green'>Lift,<span style='color:red'>Fail,<span style='color:red'>Fail,<span style='color:green'>Lift","<span style='color:red'>Fail,<span style='color:red'>Fail,<span style='color:green'>Lift,<span style='color:green'>Lift,<span style='color:green'>Lift,<span style='color:green'>Lift,<span style='color:red'>Fail,<span style='color:green'>Lift,<span style='color:green'>Lift,<span style='color:green'>Lift,<span style='color:red'>Fail,<span style='color:green'>Lift","<span style='color:red'>Fail,<span style='color:green'>Lift,<span style='color:green'>Lift,<span style='color:red'>Fail,<span style='color:green'>Lift,<span style='color:green'>Lift","0,0,1,1,0,0,0,0,1,0,0,1","0,0,1,1,1,1,0,1,1,1,0,1","0,1,1,0,1,1",10,20,20,"","","","","{""box1"":""6"",""box2"":""4"",""box3"":""83""}","",2,"round1_outcome",1,2,1,6,4,83,NA,1,0,10,6,4,83,NA,1,0,10,NA,NA,NA,NA,NA,NA,NA,NA,NA,NA,NA,NA,NA,NA,NA,NA,NA,NA,NA,NA,NA,NA,"",NA,NA,NA,NA,NA,NA,NA,NA,NA,2025-11-21 00:56:30
"22101","https://psyc-201.github.io/xiang2023/exp/index1.html?PROLIFIC_PID=REDACTED&STUDY_ID=691f8ca61c6b4dcbb0aeb5f4&SESSION_ID=691fb3d33445aeef08ca733b","survey-html-form",15,388238,"0.0-318.0","FHZwx1p/S4iHha3He3XHZnqeoZBAzONuZeG34L7ELfG2FxNGGwmHAmTlArgRtJXhgY8eTE6Hu5eKCx980qrXg5noYI6YoaWueZYAPLBXGSmFBONmpdZdpG8OV89L1jjPOG3vR30ZApL0scGqte/oVyS+Sv3AMhZDBSZ8j4tl0BGKaHyETff516NrU1WQhK0DKzvL+/MYl70SFVxCBjPMtwWzOC8GdulGvDqJhRXG/J+LRW4+/SWsmS1CcK5uGiqe3KXYvvLgYwXdhFBIpOoFvE5OJrsmeQLtZQlUUDKWAl3UfqSDAQ7SPgGzUf/bk5d6H2RtUzxIAEMgRLjAmXop0g==","691f8ca61c6b4dcbb0aeb5f4","691fb3d33445aeef08ca733b","index1","<span style='color:red'>Fail,<span style='color:red'>Fail,<span style='color:green'>Lift,<span style='color:green'>Lift,<span style='color:red'>Fail,<span style='color:red'>Fail,<span style='color:red'>Fail,<span style='color:red'>Fail,<span style='color:green'>Lift,<span style='color:red'>Fail,<span style='color:red'>Fail,<span style='color:green'>Lift","<span style='color:red'>Fail,<span style='color:red'>Fail,<span style='color:green'>Lift,<span style='color:green'>Lift,<span style='color:green'>Lift,<span style='color:green'>Lift,<span style='color:red'>Fail,<span style='color:green'>Lift,<span style='color:green'>Lift,<span style='color:green'>Lift,<span style='color:red'>Fail,<span style='color:green'>Lift","<span style='color:red'>Fail,<span style='color:green'>Lift,<span style='color:green'>Lift,<span style='color:red'>Fail,<span style='color:green'>Lift,<span style='color:green'>Lift","0,0,1,1,0,0,0,0,1,0,0,1","0,0,1,1,1,1,0,1,1,1,0,1","0,1,1,0,1,1",10,20,20,"","","","","{""box1"":""100"",""box2"":""100""}","",2,"round2_ready",2,2,2,NA,NA,NA,NA,NA,NA,NA,NA,NA,NA,NA,NA,NA,NA,100,100,100,100,NA,NA,NA,NA,NA,NA,NA,NA,NA,NA,NA,NA,NA,NA,NA,NA,NA,NA,"",NA,NA,NA,NA,NA,NA,NA,NA,NA,2025-11-21 00:56:30
"30416.60000000149","https://psyc-201.github.io/xiang2023/exp/index1.html?PROLIFIC_PID=REDACTED&STUDY_ID=691f8ca61c6b4dcbb0aeb5f4&SESSION_ID=691fb3d33445aeef08ca733b","survey-html-form",16,418656,"0.0-319.0","FHZwx1p/S4iHha3He3XHZnqeoZBAzONuZeG34L7ELfG2FxNGGwmHAmTlArgRtJXhgY8eTE6Hu5eKCx980qrXg5noYI6YoaWueZYAPLBXGSmFBONmpdZdpG8OV89L1jjPOG3vR30ZApL0scGqte/oVyS+Sv3AMhZDBSZ8j4tl0BGKaHyETff516NrU1WQhK0DKzvL+/MYl70SFVxCBjPMtwWzOC8GdulGvDqJhRXG/J+LRW4+/SWsmS1CcK5uGiqe3KXYvvLgYwXdhFBIpOoFvE5OJrsmeQLtZQlUUDKWAl3UfqSDAQ7SPgGzUf/bk5d6H2RtUzxIAEMgRLjAmXop0g==","691f8ca61c6b4dcbb0aeb5f4","691fb3d33445aeef08ca733b","index1","<span style='color:red'>Fail,<span style='color:red'>Fail,<span style='color:green'>Lift,<span style='color:green'>Lift,<span style='color:red'>Fail,<span style='color:red'>Fail,<span style='color:red'>Fail,<span style='color:red'>Fail,<span style='color:green'>Lift,<span style='color:red'>Fail,<span style='color:red'>Fail,<span style='color:green'>Lift","<span style='color:red'>Fail,<span style='color:red'>Fail,<span style='color:green'>Lift,<span style='color:green'>Lift,<span style='color:green'>Lift,<span style='color:green'>Lift,<span style='color:red'>Fail,<span style='color:green'>Lift,<span style='color:green'>Lift,<span style='color:green'>Lift,<span style='color:red'>Fail,<span style='color:green'>Lift","<span style='color:red'>Fail,<span style='color:green'>Lift,<span style='color:green'>Lift,<span style='color:red'>Fail,<span style='color:green'>Lift,<span style='color:green'>Lift","0,0,1,1,0,0,0,0,1,0,0,1","0,0,1,1,1,1,0,1,1,1,0,1","0,1,1,0,1,1",10,20,20,"","","","","{""box1"":""6"",""box2"":""5"",""box3"":""83"",""box4"":""100""}","",2,"round2_outcome",3,2,2,6,5,83,100,1,1,20,NA,NA,NA,NA,NA,NA,NA,NA,NA,NA,NA,6,5,83,100,1,1,20,NA,NA,NA,NA,NA,NA,NA,NA,NA,NA,NA,"",NA,NA,NA,NA,NA,NA,NA,NA,NA,2025-11-21 00:56:30
"19770.60000000149","https://psyc-201.github.io/xiang2023/exp/index1.html?PROLIFIC_PID=REDACTED&STUDY_ID=691f8ca61c6b4dcbb0aeb5f4&SESSION_ID=691fb3d33445aeef08ca733b","survey-html-form",17,438428,"0.0-320.0","FHZwx1p/S4iHha3He3XHZnqeoZBAzONuZeG34L7ELfG2FxNGGwmHAmTlArgRtJXhgY8eTE6Hu5eKCx980qrXg5noYI6YoaWueZYAPLBXGSmFBONmpdZdpG8OV89L1jjPOG3vR30ZApL0scGqte/oVyS+Sv3AMhZDBSZ8j4tl0BGKaHyETff516NrU1WQhK0DKzvL+/MYl70SFVxCBjPMtwWzOC8GdulGvDqJhRXG/J+LRW4+/SWsmS1CcK5uGiqe3KXYvvLgYwXdhFBIpOoFvE5OJrsmeQLtZQlUUDKWAl3UfqSDAQ7SPgGzUf/bk5d6H2RtUzxIAEMgRLjAmXop0g==","691f8ca61c6b4dcbb0aeb5f4","691fb3d33445aeef08ca733b","index1","<span style='color:red'>Fail,<span style='color:red'>Fail,<span style='color:green'>Lift,<span style='color:green'>Lift,<span style='color:red'>Fail,<span style='color:red'>Fail,<span style='color:red'>Fail,<span style='color:red'>Fail,<span style='color:green'>Lift,<span style='color:red'>Fail,<span style='color:red'>Fail,<span style='color:green'>Lift","<span style='color:red'>Fail,<span style='color:red'>Fail,<span style='color:green'>Lift,<span style='color:green'>Lift,<span style='color:green'>Lift,<span style='color:green'>Lift,<span style='color:red'>Fail,<span style='color:green'>Lift,<span style='color:green'>Lift,<span style='color:green'>Lift,<span style='color:red'>Fail,<span style='color:green'>Lift","<span style='color:red'>Fail,<span style='color:green'>Lift,<span style='color:green'>Lift,<span style='color:red'>Fail,<span style='color:green'>Lift,<span style='color:green'>Lift","0,0,1,1,0,0,0,0,1,0,0,1","0,0,1,1,1,1,0,1,1,1,0,1","0,1,1,0,1,1",10,20,20,"","","","","{""box1"":""100""}","",2,"round3_ready",4,2,3,NA,NA,NA,NA,NA,NA,NA,NA,NA,NA,NA,NA,NA,NA,100,100,NA,NA,NA,NA,NA,NA,NA,NA,NA,100,100,NA,NA,NA,NA,NA,NA,NA,NA,NA,"",NA,NA,NA,NA,NA,NA,NA,NA,NA,2025-11-21 00:56:30
"22646.89999999851","https://psyc-201.github.io/xiang2023/exp/index1.html?PROLIFIC_PID=REDACTED&STUDY_ID=691f8ca61c6b4dcbb0aeb5f4&SESSION_ID=691fb3d33445aeef08ca733b","survey-html-form",18,461076,"0.0-321.0-0.0","FHZwx1p/S4iHha3He3XHZnqeoZBAzONuZeG34L7ELfG2FxNGGwmHAmTlArgRtJXhgY8eTE6Hu5eKCx980qrXg5noYI6YoaWueZYAPLBXGSmFBONmpdZdpG8OV89L1jjPOG3vR30ZApL0scGqte/oVyS+Sv3AMhZDBSZ8j4tl0BGKaHyETff516NrU1WQhK0DKzvL+/MYl70SFVxCBjPMtwWzOC8GdulGvDqJhRXG/J+LRW4+/SWsmS1CcK5uGiqe3KXYvvLgYwXdhFBIpOoFvE5OJrsmeQLtZQlUUDKWAl3UfqSDAQ7SPgGzUf/bk5d6H2RtUzxIAEMgRLjAmXop0g==","691f8ca61c6b4dcbb0aeb5f4","691fb3d33445aeef08ca733b","index1","<span style='color:red'>Fail,<span style='color:red'>Fail,<span style='color:green'>Lift,<span style='color:green'>Lift,<span style='color:red'>Fail,<span style='color:red'>Fail,<span style='color:red'>Fail,<span style='color:red'>Fail,<span style='color:green'>Lift,<span style='color:red'>Fail,<span style='color:red'>Fail,<span style='color:green'>Lift","<span style='color:red'>Fail,<span style='color:red'>Fail,<span style='color:green'>Lift,<span style='color:green'>Lift,<span style='color:green'>Lift,<span style='color:green'>Lift,<span style='color:red'>Fail,<span style='color:green'>Lift,<span style='color:green'>Lift,<span style='color:green'>Lift,<span style='color:red'>Fail,<span style='color:green'>Lift","<span style='color:red'>Fail,<span style='color:green'>Lift,<span style='color:green'>Lift,<span style='color:red'>Fail,<span style='color:green'>Lift,<span style='color:green'>Lift","0,0,1,1,0,0,0,0,1,0,0,1","0,0,1,1,1,1,0,1,1,1,0,1","0,1,1,0,1,1",10,20,20,"","","","","{""box1"":""6"",""box2"":""5"",""box3"":""42"",""box4"":""50""}","",3,"round3_lift",5,2,3,6,5,42,50,1,1,20,NA,NA,NA,NA,NA,NA,NA,NA,NA,NA,NA,NA,NA,NA,NA,NA,NA,NA,NA,NA,6,5,42,50,1,1,20,NA,NA,"",NA,NA,NA,NA,NA,NA,NA,NA,NA,2025-11-21 00:56:30
"null","https://psyc-201.github.io/xiang2023/exp/index1.html?PROLIFIC_PID=REDACTED&STUDY_ID=691f8ca61c6b4dcbb0aeb5f4&SESSION_ID=691fb3d33445aeef08ca733b","html-keyboard-response",19,464091,"0.0-325.0","FHZwx1p/S4iHha3He3XHZnqeoZBAzONuZeG34L7ELfG2FxNGGwmHAmTlArgRtJXhgY8eTE6Hu5eKCx980qrXg5noYI6YoaWueZYAPLBXGSmFBONmpdZdpG8OV89L1jjPOG3vR30ZApL0scGqte/oVyS+Sv3AMhZDBSZ8j4tl0BGKaHyETff516NrU1WQhK0DKzvL+/MYl70SFVxCBjPMtwWzOC8GdulGvDqJhRXG/J+LRW4+/SWsmS1CcK5uGiqe3KXYvvLgYwXdhFBIpOoFvE5OJrsmeQLtZQlUUDKWAl3UfqSDAQ7SPgGzUf/bk5d6H2RtUzxIAEMgRLjAmXop0g==","691f8ca61c6b4dcbb0aeb5f4","691fb3d33445aeef08ca733b","index1","<span style='color:red'>Fail,<span style='color:red'>Fail,<span style='color:green'>Lift,<span style='color:green'>Lift,<span style='color:red'>Fail,<span style='color:red'>Fail,<span style='color:red'>Fail,<span style='color:red'>Fail,<span style='color:green'>Lift,<span style='color:red'>Fail,<span style='color:red'>Fail,<span style='color:green'>Lift","<span style='color:red'>Fail,<span style='color:red'>Fail,<span style='color:green'>Lift,<span style='color:green'>Lift,<span style='color:green'>Lift,<span style='color:green'>Lift,<span style='color:red'>Fail,<span style='color:green'>Lift,<span style='color:green'>Lift,<span style='color:green'>Lift,<span style='color:red'>Fail,<span style='color:green'>Lift","<span style='color:red'>Fail,<span style='color:green'>Lift,<span style='color:green'>Lift,<span style='color:red'>Fail,<span style='color:green'>Lift,<span style='color:green'>Lift","0,0,1,1,0,0,0,0,1,0,0,1","0,0,1,1,1,1,0,1,1,1,0,1","0,1,1,0,1,1",10,20,20,"","","<p style='font-size:30px'><b> New Contest! </b></p>","null","","",3,"",NA,NA,NA,NA,NA,NA,NA,NA,NA,NA,NA,NA,NA,NA,NA,NA,NA,NA,NA,NA,NA,NA,NA,NA,NA,NA,NA,NA,NA,NA,NA,NA,NA,NA,NA,NA,NA,NA,NA,"",NA,NA,NA,NA,NA,NA,NA,NA,NA,2025-11-21 00:56:30
"22977.39999999851","https://psyc-201.github.io/xiang2023/exp/index1.html?PROLIFIC_PID=REDACTED&STUDY_ID=691f8ca61c6b4dcbb0aeb5f4&SESSION_ID=691fb3d33445aeef08ca733b","survey-html-form",20,487070,"0.0-326.0","FHZwx1p/S4iHha3He3XHZnqeoZBAzONuZeG34L7ELfG2FxNGGwmHAmTlArgRtJXhgY8eTE6Hu5eKCx980qrXg5noYI6YoaWueZYAPLBXGSmFBONmpdZdpG8OV89L1jjPOG3vR30ZApL0scGqte/oVyS+Sv3AMhZDBSZ8j4tl0BGKaHyETff516NrU1WQhK0DKzvL+/MYl70SFVxCBjPMtwWzOC8GdulGvDqJhRXG/J+LRW4+/SWsmS1CcK5uGiqe3KXYvvLgYwXdhFBIpOoFvE5OJrsmeQLtZQlUUDKWAl3UfqSDAQ7SPgGzUf/bk5d6H2RtUzxIAEMgRLjAmXop0g==","691f8ca61c6b4dcbb0aeb5f4","691fb3d33445aeef08ca733b","index1","<span style='color:red'>Fail,<span style='color:red'>Fail,<span style='color:green'>Lift,<span style='color:green'>Lift,<span style='color:red'>Fail,<span style='color:red'>Fail,<span style='color:red'>Fail,<span style='color:red'>Fail,<span style='color:green'>Lift,<span style='color:red'>Fail,<span style='color:red'>Fail,<span style='color:green'>Lift","<span style='color:red'>Fail,<span style='color:red'>Fail,<span style='color:green'>Lift,<span style='color:green'>Lift,<span style='color:green'>Lift,<span style='color:green'>Lift,<span style='color:red'>Fail,<span style='color:green'>Lift,<span style='color:green'>Lift,<span style='color:green'>Lift,<span style='color:red'>Fail,<span style='color:green'>Lift","<span style='color:red'>Fail,<span style='color:green'>Lift,<span style='color:green'>Lift,<span style='color:red'>Fail,<span style='color:green'>Lift,<span style='color:green'>Lift","0,0,1,1,0,0,0,0,1,0,0,1","0,0,1,1,1,1,0,1,1,1,0,1","0,1,1,0,1,1",10,20,20,"","","","","{""box1"":""7"",""box2"":""7"",""box3"":""71"",""box4"":""71""}","",3,"round1_outcome",1,3,1,7,7,71,71,1,1,10,7,7,71,71,1,1,10,NA,NA,NA,NA,NA,NA,NA,NA,NA,NA,NA,NA,NA,NA,NA,NA,NA,NA,NA,NA,NA,NA,"",NA,NA,NA,NA,NA,NA,NA,NA,NA,2025-11-21 00:56:30
"22088.20000000298","https://psyc-201.github.io/xiang2023/exp/index1.html?PROLIFIC_PID=REDACTED&STUDY_ID=691f8ca61c6b4dcbb0aeb5f4&SESSION_ID=691fb3d33445aeef08ca733b","survey-html-form",21,509160,"0.0-327.0","FHZwx1p/S4iHha3He3XHZnqeoZBAzONuZeG34L7ELfG2FxNGGwmHAmTlArgRtJXhgY8eTE6Hu5eKCx980qrXg5noYI6YoaWueZYAPLBXGSmFBONmpdZdpG8OV89L1jjPOG3vR30ZApL0scGqte/oVyS+Sv3AMhZDBSZ8j4tl0BGKaHyETff516NrU1WQhK0DKzvL+/MYl70SFVxCBjPMtwWzOC8GdulGvDqJhRXG/J+LRW4+/SWsmS1CcK5uGiqe3KXYvvLgYwXdhFBIpOoFvE5OJrsmeQLtZQlUUDKWAl3UfqSDAQ7SPgGzUf/bk5d6H2RtUzxIAEMgRLjAmXop0g==","691f8ca61c6b4dcbb0aeb5f4","691fb3d33445aeef08ca733b","index1","<span style='color:red'>Fail,<span style='color:red'>Fail,<span style='color:green'>Lift,<span style='color:green'>Lift,<span style='color:red'>Fail,<span style='color:red'>Fail,<span style='color:red'>Fail,<span style='color:red'>Fail,<span style='color:green'>Lift,<span style='color:red'>Fail,<span style='color:red'>Fail,<span style='color:green'>Lift","<span style='color:red'>Fail,<span style='color:red'>Fail,<span style='color:green'>Lift,<span style='color:green'>Lift,<span style='color:green'>Lift,<span style='color:green'>Lift,<span style='color:red'>Fail,<span style='color:green'>Lift,<span style='color:green'>Lift,<span style='color:green'>Lift,<span style='color:red'>Fail,<span style='color:green'>Lift","<span style='color:red'>Fail,<span style='color:green'>Lift,<span style='color:green'>Lift,<span style='color:red'>Fail,<span style='color:green'>Lift,<span style='color:green'>Lift","0,0,1,1,0,0,0,0,1,0,0,1","0,0,1,1,1,1,0,1,1,1,0,1","0,1,1,0,1,1",10,20,20,"","","","","{""box1"":""100"",""box2"":""100""}","",3,"round2_ready",2,3,2,NA,NA,NA,NA,NA,NA,NA,NA,NA,NA,NA,NA,NA,NA,100,100,100,100,NA,NA,NA,NA,NA,NA,NA,NA,NA,NA,NA,NA,NA,NA,NA,NA,NA,NA,"",NA,NA,NA,NA,NA,NA,NA,NA,NA,2025-11-21 00:56:30
"20714.39999999851","https://psyc-201.github.io/xiang2023/exp/index1.html?PROLIFIC_PID=REDACTED&STUDY_ID=691f8ca61c6b4dcbb0aeb5f4&SESSION_ID=691fb3d33445aeef08ca733b","survey-html-form",22,529876,"0.0-328.0","FHZwx1p/S4iHha3He3XHZnqeoZBAzONuZeG34L7ELfG2FxNGGwmHAmTlArgRtJXhgY8eTE6Hu5eKCx980qrXg5noYI6YoaWueZYAPLBXGSmFBONmpdZdpG8OV89L1jjPOG3vR30ZApL0scGqte/oVyS+Sv3AMhZDBSZ8j4tl0BGKaHyETff516NrU1WQhK0DKzvL+/MYl70SFVxCBjPMtwWzOC8GdulGvDqJhRXG/J+LRW4+/SWsmS1CcK5uGiqe3KXYvvLgYwXdhFBIpOoFvE5OJrsmeQLtZQlUUDKWAl3UfqSDAQ7SPgGzUf/bk5d6H2RtUzxIAEMgRLjAmXop0g==","691f8ca61c6b4dcbb0aeb5f4","691fb3d33445aeef08ca733b","index1","<span style='color:red'>Fail,<span style='color:red'>Fail,<span style='color:green'>Lift,<span style='color:green'>Lift,<span style='color:red'>Fail,<span style='color:red'>Fail,<span style='color:red'>Fail,<span style='color:red'>Fail,<span style='color:green'>Lift,<span style='color:red'>Fail,<span style='color:red'>Fail,<span style='color:green'>Lift","<span style='color:red'>Fail,<span style='color:red'>Fail,<span style='color:green'>Lift,<span style='color:green'>Lift,<span style='color:green'>Lift,<span style='color:green'>Lift,<span style='color:red'>Fail,<span style='color:green'>Lift,<span style='color:green'>Lift,<span style='color:green'>Lift,<span style='color:red'>Fail,<span style='color:green'>Lift","<span style='color:red'>Fail,<span style='color:green'>Lift,<span style='color:green'>Lift,<span style='color:red'>Fail,<span style='color:green'>Lift,<span style='color:green'>Lift","0,0,1,1,0,0,0,0,1,0,0,1","0,0,1,1,1,1,0,1,1,1,0,1","0,1,1,0,1,1",10,20,20,"","","","","{""box1"":""7"",""box2"":""7"",""box3"":""71"",""box4"":""71""}","",3,"round2_outcome",3,3,2,7,7,71,71,1,1,20,NA,NA,NA,NA,NA,NA,NA,NA,NA,NA,NA,7,7,71,71,1,1,20,NA,NA,NA,NA,NA,NA,NA,NA,NA,NA,NA,"",NA,NA,NA,NA,NA,NA,NA,NA,NA,2025-11-21 00:56:30
"17642.89999999851","https://psyc-201.github.io/xiang2023/exp/index1.html?PROLIFIC_PID=REDACTED&STUDY_ID=691f8ca61c6b4dcbb0aeb5f4&SESSION_ID=691fb3d33445aeef08ca733b","survey-html-form",23,547520,"0.0-329.0","FHZwx1p/S4iHha3He3XHZnqeoZBAzONuZeG34L7ELfG2FxNGGwmHAmTlArgRtJXhgY8eTE6Hu5eKCx980qrXg5noYI6YoaWueZYAPLBXGSmFBONmpdZdpG8OV89L1jjPOG3vR30ZApL0scGqte/oVyS+Sv3AMhZDBSZ8j4tl0BGKaHyETff516NrU1WQhK0DKzvL+/MYl70SFVxCBjPMtwWzOC8GdulGvDqJhRXG/J+LRW4+/SWsmS1CcK5uGiqe3KXYvvLgYwXdhFBIpOoFvE5OJrsmeQLtZQlUUDKWAl3UfqSDAQ7SPgGzUf/bk5d6H2RtUzxIAEMgRLjAmXop0g==","691f8ca61c6b4dcbb0aeb5f4","691fb3d33445aeef08ca733b","index1","<span style='color:red'>Fail,<span style='color:red'>Fail,<span style='color:green'>Lift,<span style='color:green'>Lift,<span style='color:red'>Fail,<span style='color:red'>Fail,<span style='color:red'>Fail,<span style='color:red'>Fail,<span style='color:green'>Lift,<span style='color:red'>Fail,<span style='color:red'>Fail,<span style='color:green'>Lift","<span style='color:red'>Fail,<span style='color:red'>Fail,<span style='color:green'>Lift,<span style='color:green'>Lift,<span style='color:green'>Lift,<span style='color:green'>Lift,<span style='color:red'>Fail,<span style='color:green'>Lift,<span style='color:green'>Lift,<span style='color:green'>Lift,<span style='color:red'>Fail,<span style='color:green'>Lift","<span style='color:red'>Fail,<span style='color:green'>Lift,<span style='color:green'>Lift,<span style='color:red'>Fail,<span style='color:green'>Lift,<span style='color:green'>Lift","0,0,1,1,0,0,0,0,1,0,0,1","0,0,1,1,1,1,0,1,1,1,0,1","0,1,1,0,1,1",10,20,20,"","","","","{""box1"":""100""}","",3,"round3_ready",4,3,3,NA,NA,NA,NA,NA,NA,NA,NA,NA,NA,NA,NA,NA,NA,100,100,NA,NA,NA,NA,NA,NA,NA,NA,NA,100,100,NA,NA,NA,NA,NA,NA,NA,NA,NA,"",NA,NA,NA,NA,NA,NA,NA,NA,NA,2025-11-21 00:56:30
"22120.10000000149","https://psyc-201.github.io/xiang2023/exp/index1.html?PROLIFIC_PID=REDACTED&STUDY_ID=691f8ca61c6b4dcbb0aeb5f4&SESSION_ID=691fb3d33445aeef08ca733b","survey-html-form",24,569642,"0.0-330.0-0.0","FHZwx1p/S4iHha3He3XHZnqeoZBAzONuZeG34L7ELfG2FxNGGwmHAmTlArgRtJXhgY8eTE6Hu5eKCx980qrXg5noYI6YoaWueZYAPLBXGSmFBONmpdZdpG8OV89L1jjPOG3vR30ZApL0scGqte/oVyS+Sv3AMhZDBSZ8j4tl0BGKaHyETff516NrU1WQhK0DKzvL+/MYl70SFVxCBjPMtwWzOC8GdulGvDqJhRXG/J+LRW4+/SWsmS1CcK5uGiqe3KXYvvLgYwXdhFBIpOoFvE5OJrsmeQLtZQlUUDKWAl3UfqSDAQ7SPgGzUf/bk5d6H2RtUzxIAEMgRLjAmXop0g==","691f8ca61c6b4dcbb0aeb5f4","691fb3d33445aeef08ca733b","index1","<span style='color:red'>Fail,<span style='color:red'>Fail,<span style='color:green'>Lift,<span style='color:green'>Lift,<span style='color:red'>Fail,<span style='color:red'>Fail,<span style='color:red'>Fail,<span style='color:red'>Fail,<span style='color:green'>Lift,<span style='color:red'>Fail,<span style='color:red'>Fail,<span style='color:green'>Lift","<span style='color:red'>Fail,<span style='color:red'>Fail,<span style='color:green'>Lift,<span style='color:green'>Lift,<span style='color:green'>Lift,<span style='color:green'>Lift,<span style='color:red'>Fail,<span style='color:green'>Lift,<span style='color:green'>Lift,<span style='color:green'>Lift,<span style='color:red'>Fail,<span style='color:green'>Lift","<span style='color:red'>Fail,<span style='color:green'>Lift,<span style='color:green'>Lift,<span style='color:red'>Fail,<span style='color:green'>Lift,<span style='color:green'>Lift","0,0,1,1,0,0,0,0,1,0,0,1","0,0,1,1,1,1,0,1,1,1,0,1","0,1,1,0,1,1",10,20,20,"","","","","{""box1"":""7"",""box2"":""7"",""box3"":""36"",""box4"":""36""}","",4,"round3_lift",5,3,3,7,7,36,36,1,1,20,NA,NA,NA,NA,NA,NA,NA,NA,NA,NA,NA,NA,NA,NA,NA,NA,NA,NA,NA,NA,7,7,36,36,1,1,20,NA,NA,"",NA,NA,NA,NA,NA,NA,NA,NA,NA,2025-11-21 00:56:30
"null","https://psyc-201.github.io/xiang2023/exp/index1.html?PROLIFIC_PID=REDACTED&STUDY_ID=691f8ca61c6b4dcbb0aeb5f4&SESSION_ID=691fb3d33445aeef08ca733b","html-keyboard-response",25,572669,"0.0-334.0","FHZwx1p/S4iHha3He3XHZnqeoZBAzONuZeG34L7ELfG2FxNGGwmHAmTlArgRtJXhgY8eTE6Hu5eKCx980qrXg5noYI6YoaWueZYAPLBXGSmFBONmpdZdpG8OV89L1jjPOG3vR30ZApL0scGqte/oVyS+Sv3AMhZDBSZ8j4tl0BGKaHyETff516NrU1WQhK0DKzvL+/MYl70SFVxCBjPMtwWzOC8GdulGvDqJhRXG/J+LRW4+/SWsmS1CcK5uGiqe3KXYvvLgYwXdhFBIpOoFvE5OJrsmeQLtZQlUUDKWAl3UfqSDAQ7SPgGzUf/bk5d6H2RtUzxIAEMgRLjAmXop0g==","691f8ca61c6b4dcbb0aeb5f4","691fb3d33445aeef08ca733b","index1","<span style='color:red'>Fail,<span style='color:red'>Fail,<span style='color:green'>Lift,<span style='color:green'>Lift,<span style='color:red'>Fail,<span style='color:red'>Fail,<span style='color:red'>Fail,<span style='color:red'>Fail,<span style='color:green'>Lift,<span style='color:red'>Fail,<span style='color:red'>Fail,<span style='color:green'>Lift","<span style='color:red'>Fail,<span style='color:red'>Fail,<span style='color:green'>Lift,<span style='color:green'>Lift,<span style='color:green'>Lift,<span style='color:green'>Lift,<span style='color:red'>Fail,<span style='color:green'>Lift,<span style='color:green'>Lift,<span style='color:green'>Lift,<span style='color:red'>Fail,<span style='color:green'>Lift","<span style='color:red'>Fail,<span style='color:green'>Lift,<span style='color:green'>Lift,<span style='color:red'>Fail,<span style='color:green'>Lift,<span style='color:green'>Lift","0,0,1,1,0,0,0,0,1,0,0,1","0,0,1,1,1,1,0,1,1,1,0,1","0,1,1,0,1,1",10,20,20,"","","<p style='font-size:30px'><b> New Contest! </b></p>","null","","",4,"",NA,NA,NA,NA,NA,NA,NA,NA,NA,NA,NA,NA,NA,NA,NA,NA,NA,NA,NA,NA,NA,NA,NA,NA,NA,NA,NA,NA,NA,NA,NA,NA,NA,NA,NA,NA,NA,NA,NA,"",NA,NA,NA,NA,NA,NA,NA,NA,NA,2025-11-21 00:56:30
"26278.90000000596","https://psyc-201.github.io/xiang2023/exp/index1.html?PROLIFIC_PID=REDACTED&STUDY_ID=691f8ca61c6b4dcbb0aeb5f4&SESSION_ID=691fb3d33445aeef08ca733b","survey-html-form",26,598950,"0.0-335.0","FHZwx1p/S4iHha3He3XHZnqeoZBAzONuZeG34L7ELfG2FxNGGwmHAmTlArgRtJXhgY8eTE6Hu5eKCx980qrXg5noYI6YoaWueZYAPLBXGSmFBONmpdZdpG8OV89L1jjPOG3vR30ZApL0scGqte/oVyS+Sv3AMhZDBSZ8j4tl0BGKaHyETff516NrU1WQhK0DKzvL+/MYl70SFVxCBjPMtwWzOC8GdulGvDqJhRXG/J+LRW4+/SWsmS1CcK5uGiqe3KXYvvLgYwXdhFBIpOoFvE5OJrsmeQLtZQlUUDKWAl3UfqSDAQ7SPgGzUf/bk5d6H2RtUzxIAEMgRLjAmXop0g==","691f8ca61c6b4dcbb0aeb5f4","691fb3d33445aeef08ca733b","index1","<span style='color:red'>Fail,<span style='color:red'>Fail,<span style='color:green'>Lift,<span style='color:green'>Lift,<span style='color:red'>Fail,<span style='color:red'>Fail,<span style='color:red'>Fail,<span style='color:red'>Fail,<span style='color:green'>Lift,<span style='color:red'>Fail,<span style='color:red'>Fail,<span style='color:green'>Lift","<span style='color:red'>Fail,<span style='color:red'>Fail,<span style='color:green'>Lift,<span style='color:green'>Lift,<span style='color:green'>Lift,<span style='color:green'>Lift,<span style='color:red'>Fail,<span style='color:green'>Lift,<span style='color:green'>Lift,<span style='color:green'>Lift,<span style='color:red'>Fail,<span style='color:green'>Lift","<span style='color:red'>Fail,<span style='color:green'>Lift,<span style='color:green'>Lift,<span style='color:red'>Fail,<span style='color:green'>Lift,<span style='color:green'>Lift","0,0,1,1,0,0,0,0,1,0,0,1","0,0,1,1,1,1,0,1,1,1,0,1","0,1,1,0,1,1",10,20,20,"","","","","{""box1"":""5"",""box2"":""5""}","",4,"round1_outcome",1,4,1,5,5,NA,NA,0,0,10,5,5,NA,NA,0,0,10,NA,NA,NA,NA,NA,NA,NA,NA,NA,NA,NA,NA,NA,NA,NA,NA,NA,NA,NA,NA,NA,NA,"",NA,NA,NA,NA,NA,NA,NA,NA,NA,2025-11-21 00:56:30
"21282.89999999851","https://psyc-201.github.io/xiang2023/exp/index1.html?PROLIFIC_PID=REDACTED&STUDY_ID=691f8ca61c6b4dcbb0aeb5f4&SESSION_ID=691fb3d33445aeef08ca733b","survey-html-form",27,620234,"0.0-336.0","FHZwx1p/S4iHha3He3XHZnqeoZBAzONuZeG34L7ELfG2FxNGGwmHAmTlArgRtJXhgY8eTE6Hu5eKCx980qrXg5noYI6YoaWueZYAPLBXGSmFBONmpdZdpG8OV89L1jjPOG3vR30ZApL0scGqte/oVyS+Sv3AMhZDBSZ8j4tl0BGKaHyETff516NrU1WQhK0DKzvL+/MYl70SFVxCBjPMtwWzOC8GdulGvDqJhRXG/J+LRW4+/SWsmS1CcK5uGiqe3KXYvvLgYwXdhFBIpOoFvE5OJrsmeQLtZQlUUDKWAl3UfqSDAQ7SPgGzUf/bk5d6H2RtUzxIAEMgRLjAmXop0g==","691f8ca61c6b4dcbb0aeb5f4","691fb3d33445aeef08ca733b","index1","<span style='color:red'>Fail,<span style='color:red'>Fail,<span style='color:green'>Lift,<span style='color:green'>Lift,<span style='color:red'>Fail,<span style='color:red'>Fail,<span style='color:red'>Fail,<span style='color:red'>Fail,<span style='color:green'>Lift,<span style='color:red'>Fail,<span style='color:red'>Fail,<span style='color:green'>Lift","<span style='color:red'>Fail,<span style='color:red'>Fail,<span style='color:green'>Lift,<span style='color:green'>Lift,<span style='color:green'>Lift,<span style='color:green'>Lift,<span style='color:red'>Fail,<span style='color:green'>Lift,<span style='color:green'>Lift,<span style='color:green'>Lift,<span style='color:red'>Fail,<span style='color:green'>Lift","<span style='color:red'>Fail,<span style='color:green'>Lift,<span style='color:green'>Lift,<span style='color:red'>Fail,<span style='color:green'>Lift,<span style='color:green'>Lift","0,0,1,1,0,0,0,0,1,0,0,1","0,0,1,1,1,1,0,1,1,1,0,1","0,1,1,0,1,1",10,20,20,"","","","","{""box1"":""100"",""box2"":""100""}","",4,"round2_ready",2,4,2,NA,NA,NA,NA,NA,NA,NA,NA,NA,NA,NA,NA,NA,NA,100,100,100,100,NA,NA,NA,NA,NA,NA,NA,NA,NA,NA,NA,NA,NA,NA,NA,NA,NA,NA,"",NA,NA,NA,NA,NA,NA,NA,NA,NA,2025-11-21 00:56:30
"34700.80000000447","https://psyc-201.github.io/xiang2023/exp/index1.html?PROLIFIC_PID=REDACTED&STUDY_ID=691f8ca61c6b4dcbb0aeb5f4&SESSION_ID=691fb3d33445aeef08ca733b","survey-html-form",28,654936,"0.0-337.0","FHZwx1p/S4iHha3He3XHZnqeoZBAzONuZeG34L7ELfG2FxNGGwmHAmTlArgRtJXhgY8eTE6Hu5eKCx980qrXg5noYI6YoaWueZYAPLBXGSmFBONmpdZdpG8OV89L1jjPOG3vR30ZApL0scGqte/oVyS+Sv3AMhZDBSZ8j4tl0BGKaHyETff516NrU1WQhK0DKzvL+/MYl70SFVxCBjPMtwWzOC8GdulGvDqJhRXG/J+LRW4+/SWsmS1CcK5uGiqe3KXYvvLgYwXdhFBIpOoFvE5OJrsmeQLtZQlUUDKWAl3UfqSDAQ7SPgGzUf/bk5d6H2RtUzxIAEMgRLjAmXop0g==","691f8ca61c6b4dcbb0aeb5f4","691fb3d33445aeef08ca733b","index1","<span style='color:red'>Fail,<span style='color:red'>Fail,<span style='color:green'>Lift,<span style='color:green'>Lift,<span style='color:red'>Fail,<span style='color:red'>Fail,<span style='color:red'>Fail,<span style='color:red'>Fail,<span style='color:green'>Lift,<span style='color:red'>Fail,<span style='color:red'>Fail,<span style='color:green'>Lift","<span style='color:red'>Fail,<span style='color:red'>Fail,<span style='color:green'>Lift,<span style='color:green'>Lift,<span style='color:green'>Lift,<span style='color:green'>Lift,<span style='color:red'>Fail,<span style='color:green'>Lift,<span style='color:green'>Lift,<span style='color:green'>Lift,<span style='color:red'>Fail,<span style='color:green'>Lift","<span style='color:red'>Fail,<span style='color:green'>Lift,<span style='color:green'>Lift,<span style='color:red'>Fail,<span style='color:green'>Lift,<span style='color:green'>Lift","0,0,1,1,0,0,0,0,1,0,0,1","0,0,1,1,1,1,0,1,1,1,0,1","0,1,1,0,1,1",10,20,20,"","","","","{""box1"":""4"",""box2"":""4""}","",4,"round2_outcome",3,4,2,4,4,NA,NA,0,0,20,NA,NA,NA,NA,NA,NA,NA,NA,NA,NA,NA,4,4,NA,NA,0,0,20,NA,NA,NA,NA,NA,NA,NA,NA,NA,NA,NA,"",NA,NA,NA,NA,NA,NA,NA,NA,NA,2025-11-21 00:56:30
"29076.39999999851","https://psyc-201.github.io/xiang2023/exp/index1.html?PROLIFIC_PID=REDACTED&STUDY_ID=691f8ca61c6b4dcbb0aeb5f4&SESSION_ID=691fb3d33445aeef08ca733b","survey-html-form",29,684014,"0.0-338.0","FHZwx1p/S4iHha3He3XHZnqeoZBAzONuZeG34L7ELfG2FxNGGwmHAmTlArgRtJXhgY8eTE6Hu5eKCx980qrXg5noYI6YoaWueZYAPLBXGSmFBONmpdZdpG8OV89L1jjPOG3vR30ZApL0scGqte/oVyS+Sv3AMhZDBSZ8j4tl0BGKaHyETff516NrU1WQhK0DKzvL+/MYl70SFVxCBjPMtwWzOC8GdulGvDqJhRXG/J+LRW4+/SWsmS1CcK5uGiqe3KXYvvLgYwXdhFBIpOoFvE5OJrsmeQLtZQlUUDKWAl3UfqSDAQ7SPgGzUf/bk5d6H2RtUzxIAEMgRLjAmXop0g==","691f8ca61c6b4dcbb0aeb5f4","691fb3d33445aeef08ca733b","index1","<span style='color:red'>Fail,<span style='color:red'>Fail,<span style='color:green'>Lift,<span style='color:green'>Lift,<span style='color:red'>Fail,<span style='color:red'>Fail,<span style='color:red'>Fail,<span style='color:red'>Fail,<span style='color:green'>Lift,<span style='color:red'>Fail,<span style='color:red'>Fail,<span style='color:green'>Lift","<span style='color:red'>Fail,<span style='color:red'>Fail,<span style='color:green'>Lift,<span style='color:green'>Lift,<span style='color:green'>Lift,<span style='color:green'>Lift,<span style='color:red'>Fail,<span style='color:green'>Lift,<span style='color:green'>Lift,<span style='color:green'>Lift,<span style='color:red'>Fail,<span style='color:green'>Lift","<span style='color:red'>Fail,<span style='color:green'>Lift,<span style='color:green'>Lift,<span style='color:red'>Fail,<span style='color:green'>Lift,<span style='color:green'>Lift","0,0,1,1,0,0,0,0,1,0,0,1","0,0,1,1,1,1,0,1,1,1,0,1","0,1,1,0,1,1",10,20,20,"","","","","{""box1"":""100""}","",4,"round3_ready",4,4,3,NA,NA,NA,NA,NA,NA,NA,NA,NA,NA,NA,NA,NA,NA,100,100,NA,NA,NA,NA,NA,NA,NA,NA,NA,100,100,NA,NA,NA,NA,NA,NA,NA,NA,NA,"",NA,NA,NA,NA,NA,NA,NA,NA,NA,2025-11-21 00:56:30
"95816.5","https://psyc-201.github.io/xiang2023/exp/index1.html?PROLIFIC_PID=REDACTED&STUDY_ID=691f8ca61c6b4dcbb0aeb5f4&SESSION_ID=691fb3d33445aeef08ca733b","survey-html-form",30,779832,"0.0-340.0-0.0","FHZwx1p/S4iHha3He3XHZnqeoZBAzONuZeG34L7ELfG2FxNGGwmHAmTlArgRtJXhgY8eTE6Hu5eKCx980qrXg5noYI6YoaWueZYAPLBXGSmFBONmpdZdpG8OV89L1jjPOG3vR30ZApL0scGqte/oVyS+Sv3AMhZDBSZ8j4tl0BGKaHyETff516NrU1WQhK0DKzvL+/MYl70SFVxCBjPMtwWzOC8GdulGvDqJhRXG/J+LRW4+/SWsmS1CcK5uGiqe3KXYvvLgYwXdhFBIpOoFvE5OJrsmeQLtZQlUUDKWAl3UfqSDAQ7SPgGzUf/bk5d6H2RtUzxIAEMgRLjAmXop0g==","691f8ca61c6b4dcbb0aeb5f4","691fb3d33445aeef08ca733b","index1","<span style='color:red'>Fail,<span style='color:red'>Fail,<span style='color:green'>Lift,<span style='color:green'>Lift,<span style='color:red'>Fail,<span style='color:red'>Fail,<span style='color:red'>Fail,<span style='color:red'>Fail,<span style='color:green'>Lift,<span style='color:red'>Fail,<span style='color:red'>Fail,<span style='color:green'>Lift","<span style='color:red'>Fail,<span style='color:red'>Fail,<span style='color:green'>Lift,<span style='color:green'>Lift,<span style='color:green'>Lift,<span style='color:green'>Lift,<span style='color:red'>Fail,<span style='color:green'>Lift,<span style='color:green'>Lift,<span style='color:green'>Lift,<span style='color:red'>Fail,<span style='color:green'>Lift","<span style='color:red'>Fail,<span style='color:green'>Lift,<span style='color:green'>Lift,<span style='color:red'>Fail,<span style='color:green'>Lift,<span style='color:green'>Lift","0,0,1,1,0,0,0,0,1,0,0,1","0,0,1,1,1,1,0,1,1,1,0,1","0,1,1,0,1,1",10,20,20,"","","","","{""box1"":""2"",""box2"":""2"",""box3"":""999"",""box4"":""999""}","",5,"round3_fail",5,4,3,2,2,NA,NA,0,0,20,NA,NA,NA,NA,NA,NA,NA,NA,NA,NA,NA,NA,NA,NA,NA,NA,NA,NA,NA,NA,2,2,NA,NA,0,0,20,1,1,"",NA,NA,NA,NA,NA,NA,NA,NA,NA,2025-11-21 00:56:30
"null","https://psyc-201.github.io/xiang2023/exp/index1.html?PROLIFIC_PID=REDACTED&STUDY_ID=691f8ca61c6b4dcbb0aeb5f4&SESSION_ID=691fb3d33445aeef08ca733b","html-keyboard-response",31,782840,"0.0-343.0","FHZwx1p/S4iHha3He3XHZnqeoZBAzONuZeG34L7ELfG2FxNGGwmHAmTlArgRtJXhgY8eTE6Hu5eKCx980qrXg5noYI6YoaWueZYAPLBXGSmFBONmpdZdpG8OV89L1jjPOG3vR30ZApL0scGqte/oVyS+Sv3AMhZDBSZ8j4tl0BGKaHyETff516NrU1WQhK0DKzvL+/MYl70SFVxCBjPMtwWzOC8GdulGvDqJhRXG/J+LRW4+/SWsmS1CcK5uGiqe3KXYvvLgYwXdhFBIpOoFvE5OJrsmeQLtZQlUUDKWAl3UfqSDAQ7SPgGzUf/bk5d6H2RtUzxIAEMgRLjAmXop0g==","691f8ca61c6b4dcbb0aeb5f4","691fb3d33445aeef08ca733b","index1","<span style='color:red'>Fail,<span style='color:red'>Fail,<span style='color:green'>Lift,<span style='color:green'>Lift,<span style='color:red'>Fail,<span style='color:red'>Fail,<span style='color:red'>Fail,<span style='color:red'>Fail,<span style='color:green'>Lift,<span style='color:red'>Fail,<span style='color:red'>Fail,<span style='color:green'>Lift","<span style='color:red'>Fail,<span style='color:red'>Fail,<span style='color:green'>Lift,<span style='color:green'>Lift,<span style='color:green'>Lift,<span style='color:green'>Lift,<span style='color:red'>Fail,<span style='color:green'>Lift,<span style='color:green'>Lift,<span style='color:green'>Lift,<span style='color:red'>Fail,<span style='color:green'>Lift","<span style='color:red'>Fail,<span style='color:green'>Lift,<span style='color:green'>Lift,<span style='color:red'>Fail,<span style='color:green'>Lift,<span style='color:green'>Lift","0,0,1,1,0,0,0,0,1,0,0,1","0,0,1,1,1,1,0,1,1,1,0,1","0,1,1,0,1,1",10,20,20,"","","<p style='font-size:30px'><b> New Contest! </b></p>","null","","",5,"",NA,NA,NA,NA,NA,NA,NA,NA,NA,NA,NA,NA,NA,NA,NA,NA,NA,NA,NA,NA,NA,NA,NA,NA,NA,NA,NA,NA,NA,NA,NA,NA,NA,NA,NA,NA,NA,NA,NA,"",NA,NA,NA,NA,NA,NA,NA,NA,NA,2025-11-21 00:56:30
"26194.60000000149","https://psyc-201.github.io/xiang2023/exp/index1.html?PROLIFIC_PID=REDACTED&STUDY_ID=691f8ca61c6b4dcbb0aeb5f4&SESSION_ID=691fb3d33445aeef08ca733b","survey-html-form",32,809037,"0.0-344.0","FHZwx1p/S4iHha3He3XHZnqeoZBAzONuZeG34L7ELfG2FxNGGwmHAmTlArgRtJXhgY8eTE6Hu5eKCx980qrXg5noYI6YoaWueZYAPLBXGSmFBONmpdZdpG8OV89L1jjPOG3vR30ZApL0scGqte/oVyS+Sv3AMhZDBSZ8j4tl0BGKaHyETff516NrU1WQhK0DKzvL+/MYl70SFVxCBjPMtwWzOC8GdulGvDqJhRXG/J+LRW4+/SWsmS1CcK5uGiqe3KXYvvLgYwXdhFBIpOoFvE5OJrsmeQLtZQlUUDKWAl3UfqSDAQ7SPgGzUf/bk5d6H2RtUzxIAEMgRLjAmXop0g==","691f8ca61c6b4dcbb0aeb5f4","691fb3d33445aeef08ca733b","index1","<span style='color:red'>Fail,<span style='color:red'>Fail,<span style='color:green'>Lift,<span style='color:green'>Lift,<span style='color:red'>Fail,<span style='color:red'>Fail,<span style='color:red'>Fail,<span style='color:red'>Fail,<span style='color:green'>Lift,<span style='color:red'>Fail,<span style='color:red'>Fail,<span style='color:green'>Lift","<span style='color:red'>Fail,<span style='color:red'>Fail,<span style='color:green'>Lift,<span style='color:green'>Lift,<span style='color:green'>Lift,<span style='color:green'>Lift,<span style='color:red'>Fail,<span style='color:green'>Lift,<span style='color:green'>Lift,<span style='color:green'>Lift,<span style='color:red'>Fail,<span style='color:green'>Lift","<span style='color:red'>Fail,<span style='color:green'>Lift,<span style='color:green'>Lift,<span style='color:red'>Fail,<span style='color:green'>Lift,<span style='color:green'>Lift","0,0,1,1,0,0,0,0,1,0,0,1","0,0,1,1,1,1,0,1,1,1,0,1","0,1,1,0,1,1",10,20,20,"","","","","{""box1"":""5"",""box2"":""5""}","",5,"round1_outcome",1,5,1,5,5,NA,NA,0,0,10,5,5,NA,NA,0,0,10,NA,NA,NA,NA,NA,NA,NA,NA,NA,NA,NA,NA,NA,NA,NA,NA,NA,NA,NA,NA,NA,NA,"",NA,NA,NA,NA,NA,NA,NA,NA,NA,2025-11-21 00:56:30
"40220.90000000596","https://psyc-201.github.io/xiang2023/exp/index1.html?PROLIFIC_PID=REDACTED&STUDY_ID=691f8ca61c6b4dcbb0aeb5f4&SESSION_ID=691fb3d33445aeef08ca733b","survey-html-form",33,849260,"0.0-345.0","FHZwx1p/S4iHha3He3XHZnqeoZBAzONuZeG34L7ELfG2FxNGGwmHAmTlArgRtJXhgY8eTE6Hu5eKCx980qrXg5noYI6YoaWueZYAPLBXGSmFBONmpdZdpG8OV89L1jjPOG3vR30ZApL0scGqte/oVyS+Sv3AMhZDBSZ8j4tl0BGKaHyETff516NrU1WQhK0DKzvL+/MYl70SFVxCBjPMtwWzOC8GdulGvDqJhRXG/J+LRW4+/SWsmS1CcK5uGiqe3KXYvvLgYwXdhFBIpOoFvE5OJrsmeQLtZQlUUDKWAl3UfqSDAQ7SPgGzUf/bk5d6H2RtUzxIAEMgRLjAmXop0g==","691f8ca61c6b4dcbb0aeb5f4","691fb3d33445aeef08ca733b","index1","<span style='color:red'>Fail,<span style='color:red'>Fail,<span style='color:green'>Lift,<span style='color:green'>Lift,<span style='color:red'>Fail,<span style='color:red'>Fail,<span style='color:red'>Fail,<span style='color:red'>Fail,<span style='color:green'>Lift,<span style='color:red'>Fail,<span style='color:red'>Fail,<span style='color:green'>Lift","<span style='color:red'>Fail,<span style='color:red'>Fail,<span style='color:green'>Lift,<span style='color:green'>Lift,<span style='color:green'>Lift,<span style='color:green'>Lift,<span style='color:red'>Fail,<span style='color:green'>Lift,<span style='color:green'>Lift,<span style='color:green'>Lift,<span style='color:red'>Fail,<span style='color:green'>Lift","<span style='color:red'>Fail,<span style='color:green'>Lift,<span style='color:green'>Lift,<span style='color:red'>Fail,<span style='color:green'>Lift,<span style='color:green'>Lift","0,0,1,1,0,0,0,0,1,0,0,1","0,0,1,1,1,1,0,1,1,1,0,1","0,1,1,0,1,1",10,20,20,"","","","","{""box1"":""100"",""box2"":""100""}","",5,"round2_ready",2,5,2,NA,NA,NA,NA,NA,NA,NA,NA,NA,NA,NA,NA,NA,NA,100,100,100,100,NA,NA,NA,NA,NA,NA,NA,NA,NA,NA,NA,NA,NA,NA,NA,NA,NA,NA,"",NA,NA,NA,NA,NA,NA,NA,NA,NA,2025-11-21 00:56:30
"27122.5","https://psyc-201.github.io/xiang2023/exp/index1.html?PROLIFIC_PID=REDACTED&STUDY_ID=691f8ca61c6b4dcbb0aeb5f4&SESSION_ID=691fb3d33445aeef08ca733b","survey-html-form",34,876383,"0.0-346.0","FHZwx1p/S4iHha3He3XHZnqeoZBAzONuZeG34L7ELfG2FxNGGwmHAmTlArgRtJXhgY8eTE6Hu5eKCx980qrXg5noYI6YoaWueZYAPLBXGSmFBONmpdZdpG8OV89L1jjPOG3vR30ZApL0scGqte/oVyS+Sv3AMhZDBSZ8j4tl0BGKaHyETff516NrU1WQhK0DKzvL+/MYl70SFVxCBjPMtwWzOC8GdulGvDqJhRXG/J+LRW4+/SWsmS1CcK5uGiqe3KXYvvLgYwXdhFBIpOoFvE5OJrsmeQLtZQlUUDKWAl3UfqSDAQ7SPgGzUf/bk5d6H2RtUzxIAEMgRLjAmXop0g==","691f8ca61c6b4dcbb0aeb5f4","691fb3d33445aeef08ca733b","index1","<span style='color:red'>Fail,<span style='color:red'>Fail,<span style='color:green'>Lift,<span style='color:green'>Lift,<span style='color:red'>Fail,<span style='color:red'>Fail,<span style='color:red'>Fail,<span style='color:red'>Fail,<span style='color:green'>Lift,<span style='color:red'>Fail,<span style='color:red'>Fail,<span style='color:green'>Lift","<span style='color:red'>Fail,<span style='color:red'>Fail,<span style='color:green'>Lift,<span style='color:green'>Lift,<span style='color:green'>Lift,<span style='color:green'>Lift,<span style='color:red'>Fail,<span style='color:green'>Lift,<span style='color:green'>Lift,<span style='color:green'>Lift,<span style='color:red'>Fail,<span style='color:green'>Lift","<span style='color:red'>Fail,<span style='color:green'>Lift,<span style='color:green'>Lift,<span style='color:red'>Fail,<span style='color:green'>Lift,<span style='color:green'>Lift","0,0,1,1,0,0,0,0,1,0,0,1","0,0,1,1,1,1,0,1,1,1,0,1","0,1,1,0,1,1",10,20,20,"","","","","{""box1"":""4"",""box2"":""5"",""box4"":""100""}","",5,"round2_outcome",3,5,2,4,5,NA,100,0,1,20,NA,NA,NA,NA,NA,NA,NA,NA,NA,NA,NA,4,5,NA,100,0,1,20,NA,NA,NA,NA,NA,NA,NA,NA,NA,NA,NA,"",NA,NA,NA,NA,NA,NA,NA,NA,NA,2025-11-21 00:56:30
"23770.70000000298","https://psyc-201.github.io/xiang2023/exp/index1.html?PROLIFIC_PID=REDACTED&STUDY_ID=691f8ca61c6b4dcbb0aeb5f4&SESSION_ID=691fb3d33445aeef08ca733b","survey-html-form",35,900155,"0.0-347.0","FHZwx1p/S4iHha3He3XHZnqeoZBAzONuZeG34L7ELfG2FxNGGwmHAmTlArgRtJXhgY8eTE6Hu5eKCx980qrXg5noYI6YoaWueZYAPLBXGSmFBONmpdZdpG8OV89L1jjPOG3vR30ZApL0scGqte/oVyS+Sv3AMhZDBSZ8j4tl0BGKaHyETff516NrU1WQhK0DKzvL+/MYl70SFVxCBjPMtwWzOC8GdulGvDqJhRXG/J+LRW4+/SWsmS1CcK5uGiqe3KXYvvLgYwXdhFBIpOoFvE5OJrsmeQLtZQlUUDKWAl3UfqSDAQ7SPgGzUf/bk5d6H2RtUzxIAEMgRLjAmXop0g==","691f8ca61c6b4dcbb0aeb5f4","691fb3d33445aeef08ca733b","index1","<span style='color:red'>Fail,<span style='color:red'>Fail,<span style='color:green'>Lift,<span style='color:green'>Lift,<span style='color:red'>Fail,<span style='color:red'>Fail,<span style='color:red'>Fail,<span style='color:red'>Fail,<span style='color:green'>Lift,<span style='color:red'>Fail,<span style='color:red'>Fail,<span style='color:green'>Lift","<span style='color:red'>Fail,<span style='color:red'>Fail,<span style='color:green'>Lift,<span style='color:green'>Lift,<span style='color:green'>Lift,<span style='color:green'>Lift,<span style='color:red'>Fail,<span style='color:green'>Lift,<span style='color:green'>Lift,<span style='color:green'>Lift,<span style='color:red'>Fail,<span style='color:green'>Lift","<span style='color:red'>Fail,<span style='color:green'>Lift,<span style='color:green'>Lift,<span style='color:red'>Fail,<span style='color:green'>Lift,<span style='color:green'>Lift","0,0,1,1,0,0,0,0,1,0,0,1","0,0,1,1,1,1,0,1,1,1,0,1","0,1,1,0,1,1",10,20,20,"","","","","{""box1"":""100""}","",5,"round3_ready",4,5,3,NA,NA,NA,NA,NA,NA,NA,NA,NA,NA,NA,NA,NA,NA,100,100,NA,NA,NA,NA,NA,NA,NA,NA,NA,100,100,NA,NA,NA,NA,NA,NA,NA,NA,NA,"",NA,NA,NA,NA,NA,NA,NA,NA,NA,2025-11-21 00:56:30
"48974.89999999851","https://psyc-201.github.io/xiang2023/exp/index1.html?PROLIFIC_PID=REDACTED&STUDY_ID=691f8ca61c6b4dcbb0aeb5f4&SESSION_ID=691fb3d33445aeef08ca733b","survey-html-form",36,949132,"0.0-349.0-0.0","FHZwx1p/S4iHha3He3XHZnqeoZBAzONuZeG34L7ELfG2FxNGGwmHAmTlArgRtJXhgY8eTE6Hu5eKCx980qrXg5noYI6YoaWueZYAPLBXGSmFBONmpdZdpG8OV89L1jjPOG3vR30ZApL0scGqte/oVyS+Sv3AMhZDBSZ8j4tl0BGKaHyETff516NrU1WQhK0DKzvL+/MYl70SFVxCBjPMtwWzOC8GdulGvDqJhRXG/J+LRW4+/SWsmS1CcK5uGiqe3KXYvvLgYwXdhFBIpOoFvE5OJrsmeQLtZQlUUDKWAl3UfqSDAQ7SPgGzUf/bk5d6H2RtUzxIAEMgRLjAmXop0g==","691f8ca61c6b4dcbb0aeb5f4","691fb3d33445aeef08ca733b","index1","<span style='color:red'>Fail,<span style='color:red'>Fail,<span style='color:green'>Lift,<span style='color:green'>Lift,<span style='color:red'>Fail,<span style='color:red'>Fail,<span style='color:red'>Fail,<span style='color:red'>Fail,<span style='color:green'>Lift,<span style='color:red'>Fail,<span style='color:red'>Fail,<span style='color:green'>Lift","<span style='color:red'>Fail,<span style='color:red'>Fail,<span style='color:green'>Lift,<span style='color:green'>Lift,<span style='color:green'>Lift,<span style='color:green'>Lift,<span style='color:red'>Fail,<span style='color:green'>Lift,<span style='color:green'>Lift,<span style='color:green'>Lift,<span style='color:red'>Fail,<span style='color:green'>Lift","<span style='color:red'>Fail,<span style='color:green'>Lift,<span style='color:green'>Lift,<span style='color:red'>Fail,<span style='color:green'>Lift,<span style='color:green'>Lift","0,0,1,1,0,0,0,0,1,0,0,1","0,0,1,1,1,1,0,1,1,1,0,1","0,1,1,0,1,1",10,20,20,"","","","","{""box1"":""4"",""box2"":""5"",""box3"":""999"",""box4"":""999""}","",6,"round3_fail",5,5,3,4,5,NA,NA,0,0,20,NA,NA,NA,NA,NA,NA,NA,NA,NA,NA,NA,NA,NA,NA,NA,NA,NA,NA,NA,NA,4,5,NA,NA,0,0,20,1,1,"",NA,NA,NA,NA,NA,NA,NA,NA,NA,2025-11-21 00:56:30
"null","https://psyc-201.github.io/xiang2023/exp/index1.html?PROLIFIC_PID=REDACTED&STUDY_ID=691f8ca61c6b4dcbb0aeb5f4&SESSION_ID=691fb3d33445aeef08ca733b","html-keyboard-response",37,952152,"0.0-352.0","FHZwx1p/S4iHha3He3XHZnqeoZBAzONuZeG34L7ELfG2FxNGGwmHAmTlArgRtJXhgY8eTE6Hu5eKCx980qrXg5noYI6YoaWueZYAPLBXGSmFBONmpdZdpG8OV89L1jjPOG3vR30ZApL0scGqte/oVyS+Sv3AMhZDBSZ8j4tl0BGKaHyETff516NrU1WQhK0DKzvL+/MYl70SFVxCBjPMtwWzOC8GdulGvDqJhRXG/J+LRW4+/SWsmS1CcK5uGiqe3KXYvvLgYwXdhFBIpOoFvE5OJrsmeQLtZQlUUDKWAl3UfqSDAQ7SPgGzUf/bk5d6H2RtUzxIAEMgRLjAmXop0g==","691f8ca61c6b4dcbb0aeb5f4","691fb3d33445aeef08ca733b","index1","<span style='color:red'>Fail,<span style='color:red'>Fail,<span style='color:green'>Lift,<span style='color:green'>Lift,<span style='color:red'>Fail,<span style='color:red'>Fail,<span style='color:red'>Fail,<span style='color:red'>Fail,<span style='color:green'>Lift,<span style='color:red'>Fail,<span style='color:red'>Fail,<span style='color:green'>Lift","<span style='color:red'>Fail,<span style='color:red'>Fail,<span style='color:green'>Lift,<span style='color:green'>Lift,<span style='color:green'>Lift,<span style='color:green'>Lift,<span style='color:red'>Fail,<span style='color:green'>Lift,<span style='color:green'>Lift,<span style='color:green'>Lift,<span style='color:red'>Fail,<span style='color:green'>Lift","<span style='color:red'>Fail,<span style='color:green'>Lift,<span style='color:green'>Lift,<span style='color:red'>Fail,<span style='color:green'>Lift,<span style='color:green'>Lift","0,0,1,1,0,0,0,0,1,0,0,1","0,0,1,1,1,1,0,1,1,1,0,1","0,1,1,0,1,1",10,20,20,"","","<p style='font-size:30px'><b> New Contest! </b></p>","null","","",6,"",NA,NA,NA,NA,NA,NA,NA,NA,NA,NA,NA,NA,NA,NA,NA,NA,NA,NA,NA,NA,NA,NA,NA,NA,NA,NA,NA,NA,NA,NA,NA,NA,NA,NA,NA,NA,NA,NA,NA,"",NA,NA,NA,NA,NA,NA,NA,NA,NA,2025-11-21 00:56:30
"45752.80000000447","https://psyc-201.github.io/xiang2023/exp/index1.html?PROLIFIC_PID=REDACTED&STUDY_ID=691f8ca61c6b4dcbb0aeb5f4&SESSION_ID=691fb3d33445aeef08ca733b","survey-html-form",38,997908,"0.0-353.0","FHZwx1p/S4iHha3He3XHZnqeoZBAzONuZeG34L7ELfG2FxNGGwmHAmTlArgRtJXhgY8eTE6Hu5eKCx980qrXg5noYI6YoaWueZYAPLBXGSmFBONmpdZdpG8OV89L1jjPOG3vR30ZApL0scGqte/oVyS+Sv3AMhZDBSZ8j4tl0BGKaHyETff516NrU1WQhK0DKzvL+/MYl70SFVxCBjPMtwWzOC8GdulGvDqJhRXG/J+LRW4+/SWsmS1CcK5uGiqe3KXYvvLgYwXdhFBIpOoFvE5OJrsmeQLtZQlUUDKWAl3UfqSDAQ7SPgGzUf/bk5d6H2RtUzxIAEMgRLjAmXop0g==","691f8ca61c6b4dcbb0aeb5f4","691fb3d33445aeef08ca733b","index1","<span style='color:red'>Fail,<span style='color:red'>Fail,<span style='color:green'>Lift,<span style='color:green'>Lift,<span style='color:red'>Fail,<span style='color:red'>Fail,<span style='color:red'>Fail,<span style='color:red'>Fail,<span style='color:green'>Lift,<span style='color:red'>Fail,<span style='color:red'>Fail,<span style='color:green'>Lift","<span style='color:red'>Fail,<span style='color:red'>Fail,<span style='color:green'>Lift,<span style='color:green'>Lift,<span style='color:green'>Lift,<span style='color:green'>Lift,<span style='color:red'>Fail,<span style='color:green'>Lift,<span style='color:green'>Lift,<span style='color:green'>Lift,<span style='color:red'>Fail,<span style='color:green'>Lift","<span style='color:red'>Fail,<span style='color:green'>Lift,<span style='color:green'>Lift,<span style='color:red'>Fail,<span style='color:green'>Lift,<span style='color:green'>Lift","0,0,1,1,0,0,0,0,1,0,0,1","0,0,1,1,1,1,0,1,1,1,0,1","0,1,1,0,1,1",10,20,20,"","","","","{""box1"":""5"",""box2"":""6"",""box4"":""83""}","",6,"round1_outcome",1,6,1,5,6,NA,83,0,1,10,5,6,NA,83,0,1,10,NA,NA,NA,NA,NA,NA,NA,NA,NA,NA,NA,NA,NA,NA,NA,NA,NA,NA,NA,NA,NA,NA,"",NA,NA,NA,NA,NA,NA,NA,NA,NA,2025-11-21 00:56:30
"25208.5","https://psyc-201.github.io/xiang2023/exp/index1.html?PROLIFIC_PID=REDACTED&STUDY_ID=691f8ca61c6b4dcbb0aeb5f4&SESSION_ID=691fb3d33445aeef08ca733b","survey-html-form",39,1023117,"0.0-354.0","FHZwx1p/S4iHha3He3XHZnqeoZBAzONuZeG34L7ELfG2FxNGGwmHAmTlArgRtJXhgY8eTE6Hu5eKCx980qrXg5noYI6YoaWueZYAPLBXGSmFBONmpdZdpG8OV89L1jjPOG3vR30ZApL0scGqte/oVyS+Sv3AMhZDBSZ8j4tl0BGKaHyETff516NrU1WQhK0DKzvL+/MYl70SFVxCBjPMtwWzOC8GdulGvDqJhRXG/J+LRW4+/SWsmS1CcK5uGiqe3KXYvvLgYwXdhFBIpOoFvE5OJrsmeQLtZQlUUDKWAl3UfqSDAQ7SPgGzUf/bk5d6H2RtUzxIAEMgRLjAmXop0g==","691f8ca61c6b4dcbb0aeb5f4","691fb3d33445aeef08ca733b","index1","<span style='color:red'>Fail,<span style='color:red'>Fail,<span style='color:green'>Lift,<span style='color:green'>Lift,<span style='color:red'>Fail,<span style='color:red'>Fail,<span style='color:red'>Fail,<span style='color:red'>Fail,<span style='color:green'>Lift,<span style='color:red'>Fail,<span style='color:red'>Fail,<span style='color:green'>Lift","<span style='color:red'>Fail,<span style='color:red'>Fail,<span style='color:green'>Lift,<span style='color:green'>Lift,<span style='color:green'>Lift,<span style='color:green'>Lift,<span style='color:red'>Fail,<span style='color:green'>Lift,<span style='color:green'>Lift,<span style='color:green'>Lift,<span style='color:red'>Fail,<span style='color:green'>Lift","<span style='color:red'>Fail,<span style='color:green'>Lift,<span style='color:green'>Lift,<span style='color:red'>Fail,<span style='color:green'>Lift,<span style='color:green'>Lift","0,0,1,1,0,0,0,0,1,0,0,1","0,0,1,1,1,1,0,1,1,1,0,1","0,1,1,0,1,1",10,20,20,"","","","","{""box1"":""100"",""box2"":""100""}","",6,"round2_ready",2,6,2,NA,NA,NA,NA,NA,NA,NA,NA,NA,NA,NA,NA,NA,NA,100,100,100,100,NA,NA,NA,NA,NA,NA,NA,NA,NA,NA,NA,NA,NA,NA,NA,NA,NA,NA,"",NA,NA,NA,NA,NA,NA,NA,NA,NA,2025-11-21 00:56:30
"29504.5","https://psyc-201.github.io/xiang2023/exp/index1.html?PROLIFIC_PID=REDACTED&STUDY_ID=691f8ca61c6b4dcbb0aeb5f4&SESSION_ID=691fb3d33445aeef08ca733b","survey-html-form",40,1052623,"0.0-355.0","FHZwx1p/S4iHha3He3XHZnqeoZBAzONuZeG34L7ELfG2FxNGGwmHAmTlArgRtJXhgY8eTE6Hu5eKCx980qrXg5noYI6YoaWueZYAPLBXGSmFBONmpdZdpG8OV89L1jjPOG3vR30ZApL0scGqte/oVyS+Sv3AMhZDBSZ8j4tl0BGKaHyETff516NrU1WQhK0DKzvL+/MYl70SFVxCBjPMtwWzOC8GdulGvDqJhRXG/J+LRW4+/SWsmS1CcK5uGiqe3KXYvvLgYwXdhFBIpOoFvE5OJrsmeQLtZQlUUDKWAl3UfqSDAQ7SPgGzUf/bk5d6H2RtUzxIAEMgRLjAmXop0g==","691f8ca61c6b4dcbb0aeb5f4","691fb3d33445aeef08ca733b","index1","<span style='color:red'>Fail,<span style='color:red'>Fail,<span style='color:green'>Lift,<span style='color:green'>Lift,<span style='color:red'>Fail,<span style='color:red'>Fail,<span style='color:red'>Fail,<span style='color:red'>Fail,<span style='color:green'>Lift,<span style='color:red'>Fail,<span style='color:red'>Fail,<span style='color:green'>Lift","<span style='color:red'>Fail,<span style='color:red'>Fail,<span style='color:green'>Lift,<span style='color:green'>Lift,<span style='color:green'>Lift,<span style='color:green'>Lift,<span style='color:red'>Fail,<span style='color:green'>Lift,<span style='color:green'>Lift,<span style='color:green'>Lift,<span style='color:red'>Fail,<span style='color:green'>Lift","<span style='color:red'>Fail,<span style='color:green'>Lift,<span style='color:green'>Lift,<span style='color:red'>Fail,<span style='color:green'>Lift,<span style='color:green'>Lift","0,0,1,1,0,0,0,0,1,0,0,1","0,0,1,1,1,1,0,1,1,1,0,1","0,1,1,0,1,1",10,20,20,"","","","","{""box1"":""4"",""box2"":""6"",""box4"":""83""}","",6,"round2_outcome",3,6,2,4,6,NA,83,0,1,20,NA,NA,NA,NA,NA,NA,NA,NA,NA,NA,NA,4,6,NA,83,0,1,20,NA,NA,NA,NA,NA,NA,NA,NA,NA,NA,NA,"",NA,NA,NA,NA,NA,NA,NA,NA,NA,2025-11-21 00:56:30
"29048.60000000149","https://psyc-201.github.io/xiang2023/exp/index1.html?PROLIFIC_PID=REDACTED&STUDY_ID=691f8ca61c6b4dcbb0aeb5f4&SESSION_ID=691fb3d33445aeef08ca733b","survey-html-form",41,1081673,"0.0-356.0","FHZwx1p/S4iHha3He3XHZnqeoZBAzONuZeG34L7ELfG2FxNGGwmHAmTlArgRtJXhgY8eTE6Hu5eKCx980qrXg5noYI6YoaWueZYAPLBXGSmFBONmpdZdpG8OV89L1jjPOG3vR30ZApL0scGqte/oVyS+Sv3AMhZDBSZ8j4tl0BGKaHyETff516NrU1WQhK0DKzvL+/MYl70SFVxCBjPMtwWzOC8GdulGvDqJhRXG/J+LRW4+/SWsmS1CcK5uGiqe3KXYvvLgYwXdhFBIpOoFvE5OJrsmeQLtZQlUUDKWAl3UfqSDAQ7SPgGzUf/bk5d6H2RtUzxIAEMgRLjAmXop0g==","691f8ca61c6b4dcbb0aeb5f4","691fb3d33445aeef08ca733b","index1","<span style='color:red'>Fail,<span style='color:red'>Fail,<span style='color:green'>Lift,<span style='color:green'>Lift,<span style='color:red'>Fail,<span style='color:red'>Fail,<span style='color:red'>Fail,<span style='color:red'>Fail,<span style='color:green'>Lift,<span style='color:red'>Fail,<span style='color:red'>Fail,<span style='color:green'>Lift","<span style='color:red'>Fail,<span style='color:red'>Fail,<span style='color:green'>Lift,<span style='color:green'>Lift,<span style='color:green'>Lift,<span style='color:green'>Lift,<span style='color:red'>Fail,<span style='color:green'>Lift,<span style='color:green'>Lift,<span style='color:green'>Lift,<span style='color:red'>Fail,<span style='color:green'>Lift","<span style='color:red'>Fail,<span style='color:green'>Lift,<span style='color:green'>Lift,<span style='color:red'>Fail,<span style='color:green'>Lift,<span style='color:green'>Lift","0,0,1,1,0,0,0,0,1,0,0,1","0,0,1,1,1,1,0,1,1,1,0,1","0,1,1,0,1,1",10,20,20,"","","","","{""box1"":""100""}","",6,"round3_ready",4,6,3,NA,NA,NA,NA,NA,NA,NA,NA,NA,NA,NA,NA,NA,NA,100,100,NA,NA,NA,NA,NA,NA,NA,NA,NA,100,100,NA,NA,NA,NA,NA,NA,NA,NA,NA,"",NA,NA,NA,NA,NA,NA,NA,NA,NA,2025-11-21 00:56:30
"25216.70000000298","https://psyc-201.github.io/xiang2023/exp/index1.html?PROLIFIC_PID=REDACTED&STUDY_ID=691f8ca61c6b4dcbb0aeb5f4&SESSION_ID=691fb3d33445aeef08ca733b","survey-html-form",42,1106891,"0.0-357.0-0.0","FHZwx1p/S4iHha3He3XHZnqeoZBAzONuZeG34L7ELfG2FxNGGwmHAmTlArgRtJXhgY8eTE6Hu5eKCx980qrXg5noYI6YoaWueZYAPLBXGSmFBONmpdZdpG8OV89L1jjPOG3vR30ZApL0scGqte/oVyS+Sv3AMhZDBSZ8j4tl0BGKaHyETff516NrU1WQhK0DKzvL+/MYl70SFVxCBjPMtwWzOC8GdulGvDqJhRXG/J+LRW4+/SWsmS1CcK5uGiqe3KXYvvLgYwXdhFBIpOoFvE5OJrsmeQLtZQlUUDKWAl3UfqSDAQ7SPgGzUf/bk5d6H2RtUzxIAEMgRLjAmXop0g==","691f8ca61c6b4dcbb0aeb5f4","691fb3d33445aeef08ca733b","index1","<span style='color:red'>Fail,<span style='color:red'>Fail,<span style='color:green'>Lift,<span style='color:green'>Lift,<span style='color:red'>Fail,<span style='color:red'>Fail,<span style='color:red'>Fail,<span style='color:red'>Fail,<span style='color:green'>Lift,<span style='color:red'>Fail,<span style='color:red'>Fail,<span style='color:green'>Lift","<span style='color:red'>Fail,<span style='color:red'>Fail,<span style='color:green'>Lift,<span style='color:green'>Lift,<span style='color:green'>Lift,<span style='color:green'>Lift,<span style='color:red'>Fail,<span style='color:green'>Lift,<span style='color:green'>Lift,<span style='color:green'>Lift,<span style='color:red'>Fail,<span style='color:green'>Lift","<span style='color:red'>Fail,<span style='color:green'>Lift,<span style='color:green'>Lift,<span style='color:red'>Fail,<span style='color:green'>Lift,<span style='color:green'>Lift","0,0,1,1,0,0,0,0,1,0,0,1","0,0,1,1,1,1,0,1,1,1,0,1","0,1,1,0,1,1",10,20,20,"","","","","{""box1"":""4"",""box2"":""6"",""box3"":""63"",""box4"":""42""}","",6,"round3_lift",5,6,3,4,6,63,42,1,1,20,NA,NA,NA,NA,NA,NA,NA,NA,NA,NA,NA,NA,NA,NA,NA,NA,NA,NA,NA,NA,4,6,63,42,1,1,20,NA,NA,"",NA,NA,NA,NA,NA,NA,NA,NA,NA,2025-11-21 00:56:30
"107438.5","https://psyc-201.github.io/xiang2023/exp/index1.html?PROLIFIC_PID=REDACTED&STUDY_ID=691f8ca61c6b4dcbb0aeb5f4&SESSION_ID=691fb3d33445aeef08ca733b","survey-text",43,1214333,"0.0-361.0","FHZwx1p/S4iHha3He3XHZnqeoZBAzONuZeG34L7ELfG2FxNGGwmHAmTlArgRtJXhgY8eTE6Hu5eKCx980qrXg5noYI6YoaWueZYAPLBXGSmFBONmpdZdpG8OV89L1jjPOG3vR30ZApL0scGqte/oVyS+Sv3AMhZDBSZ8j4tl0BGKaHyETff516NrU1WQhK0DKzvL+/MYl70SFVxCBjPMtwWzOC8GdulGvDqJhRXG/J+LRW4+/SWsmS1CcK5uGiqe3KXYvvLgYwXdhFBIpOoFvE5OJrsmeQLtZQlUUDKWAl3UfqSDAQ7SPgGzUf/bk5d6H2RtUzxIAEMgRLjAmXop0g==","691f8ca61c6b4dcbb0aeb5f4","691fb3d33445aeef08ca733b","index1","<span style='color:red'>Fail,<span style='color:red'>Fail,<span style='color:green'>Lift,<span style='color:green'>Lift,<span style='color:red'>Fail,<span style='color:red'>Fail,<span style='color:red'>Fail,<span style='color:red'>Fail,<span style='color:green'>Lift,<span style='color:red'>Fail,<span style='color:red'>Fail,<span style='color:green'>Lift","<span style='color:red'>Fail,<span style='color:red'>Fail,<span style='color:green'>Lift,<span style='color:green'>Lift,<span style='color:green'>Lift,<span style='color:green'>Lift,<span style='color:red'>Fail,<span style='color:green'>Lift,<span style='color:green'>Lift,<span style='color:green'>Lift,<span style='color:red'>Fail,<span style='color:green'>Lift","<span style='color:red'>Fail,<span style='color:green'>Lift,<span style='color:green'>Lift,<span style='color:red'>Fail,<span style='color:green'>Lift,<span style='color:green'>Lift","0,0,1,1,0,0,0,0,1,0,0,1","0,0,1,1,1,1,0,1,1,1,0,1","0,1,1,0,1,1",10,20,20,"","","","","{""Q0"":""I was basically observing the results of six different contests, analyzing how the contestants' strength and motivation affected their success in lifting the box. My job was to estimate their true strength and the effort they used, and then predict the outcome of the final team lifting round for each contest.""}","",NA,"",NA,NA,NA,NA,NA,NA,NA,NA,NA,NA,NA,NA,NA,NA,NA,NA,NA,NA,NA,NA,NA,NA,NA,NA,NA,NA,NA,NA,NA,NA,NA,NA,NA,NA,NA,NA,NA,NA,NA,"",NA,NA,NA,NA,NA,NA,NA,NA,NA,2025-11-21 00:56:30
"25844.10000000149","https://psyc-201.github.io/xiang2023/exp/index1.html?PROLIFIC_PID=REDACTED&STUDY_ID=691f8ca61c6b4dcbb0aeb5f4&SESSION_ID=691fb3d33445aeef08ca733b","survey-text",44,1240179,"0.0-362.0","FHZwx1p/S4iHha3He3XHZnqeoZBAzONuZeG34L7ELfG2FxNGGwmHAmTlArgRtJXhgY8eTE6Hu5eKCx980qrXg5noYI6YoaWueZYAPLBXGSmFBONmpdZdpG8OV89L1jjPOG3vR30ZApL0scGqte/oVyS+Sv3AMhZDBSZ8j4tl0BGKaHyETff516NrU1WQhK0DKzvL+/MYl70SFVxCBjPMtwWzOC8GdulGvDqJhRXG/J+LRW4+/SWsmS1CcK5uGiqe3KXYvvLgYwXdhFBIpOoFvE5OJrsmeQLtZQlUUDKWAl3UfqSDAQ7SPgGzUf/bk5d6H2RtUzxIAEMgRLjAmXop0g==","691f8ca61c6b4dcbb0aeb5f4","691fb3d33445aeef08ca733b","index1","<span style='color:red'>Fail,<span style='color:red'>Fail,<span style='color:green'>Lift,<span style='color:green'>Lift,<span style='color:red'>Fail,<span style='color:red'>Fail,<span style='color:red'>Fail,<span style='color:red'>Fail,<span style='color:green'>Lift,<span style='color:red'>Fail,<span style='color:red'>Fail,<span style='color:green'>Lift","<span style='color:red'>Fail,<span style='color:red'>Fail,<span style='color:green'>Lift,<span style='color:green'>Lift,<span style='color:green'>Lift,<span style='color:green'>Lift,<span style='color:red'>Fail,<span style='color:green'>Lift,<span style='color:green'>Lift,<span style='color:green'>Lift,<span style='color:red'>Fail,<span style='color:green'>Lift","<span style='color:red'>Fail,<span style='color:green'>Lift,<span style='color:green'>Lift,<span style='color:red'>Fail,<span style='color:green'>Lift,<span style='color:green'>Lift","0,0,1,1,0,0,0,0,1,0,0,1","0,0,1,1,1,1,0,1,1,1,0,1","0,1,1,0,1,1",10,20,20,"","","","","{""Q0"":""""}","",NA,"",NA,NA,NA,NA,NA,NA,NA,NA,NA,NA,NA,NA,NA,NA,NA,NA,NA,NA,NA,NA,NA,NA,NA,NA,NA,NA,NA,NA,NA,NA,NA,NA,NA,NA,NA,NA,NA,NA,NA,"[{""event"":""focus"",""trial"":0,""time"":1478},{""event"":""fullscreenenter"",""trial"":1,""time"":19961},{""event"":""blur"",""trial"":2,""time"":37869},{""event"":""focus"",""trial"":2,""time"":40240},{""event"":""blur"",""trial"":2,""time"":49361},{""event"":""focus"",""trial"":2,""time"":50661},{""event"":""fullscreenexit"",""trial"":2,""time"":52383},{""event"":""blur"",""trial"":2,""time"":55429},{""event"":""focus"",""trial"":2,""time"":56388},{""event"":""blur"",""trial"":2,""time"":69217},{""event"":""focus"",""trial"":2,""time"":71871},{""event"":""blur"",""trial"":2,""time"":82983},{""event"":""focus"",""trial"":2,""time"":84691},{""event"":""blur"",""trial"":2,""time"":87339},{""event"":""focus"",""trial"":2,""time"":88434},{""event"":""blur"",""trial"":2,""time"":94362},{""event"":""focus"",""trial"":2,""time"":97465},{""event"":""blur"",""trial"":2,""time"":102248},{""event"":""focus"",""trial"":2,""time"":105909},{""event"":""blur"",""trial"":2,""time"":108351},{""event"":""focus"",""trial"":2,""time"":109064},{""event"":""blur"",""trial"":2,""time"":113704},{""event"":""focus"",""trial"":2,""time"":115629},{""event"":""blur"",""trial"":2,""time"":120982},{""event"":""focus"",""trial"":2,""time"":122486},{""event"":""blur"",""trial"":2,""time"":129590},{""event"":""focus"",""trial"":2,""time"":131791},{""event"":""blur"",""trial"":4,""time"":150608},{""event"":""focus"",""trial"":4,""time"":154242},{""event"":""blur"",""trial"":4,""time"":158816},{""event"":""focus"",""trial"":4,""time"":159605},{""event"":""blur"",""trial"":4,""time"":160492},{""event"":""focus"",""trial"":4,""time"":162302},{""event"":""blur"",""trial"":5,""time"":195637},{""event"":""focus"",""trial"":5,""time"":199263},{""event"":""blur"",""trial"":5,""time"":219630},{""event"":""focus"",""trial"":5,""time"":221184},{""event"":""blur"",""trial"":8,""time"":230717},{""event"":""focus"",""trial"":8,""time"":235727},{""event"":""blur"",""trial"":9,""time"":255795},{""event"":""focus"",""trial"":9,""time"":259052},{""event"":""blur"",""trial"":10,""time"":270715},{""event"":""focus"",""trial"":10,""time"":273916},{""event"":""blur"",""trial"":11,""time"":291103},{""event"":""focus"",""trial"":11,""time"":294354},{""event"":""blur"",""trial"":11,""time"":295342},{""event"":""focus"",""trial"":11,""time"":296504},{""event"":""blur"",""trial"":12,""time"":308581},{""event"":""focus"",""trial"":12,""time"":312054},{""event"":""blur"",""trial"":14,""time"":332790},{""event"":""focus"",""trial"":14,""time"":335978},{""event"":""blur"",""trial"":15,""time"":367850},{""event"":""focus"",""trial"":15,""time"":370725},{""event"":""blur"",""trial"":15,""time"":373124},{""event"":""focus"",""trial"":15,""time"":374155},{""event"":""blur"",""trial"":15,""time"":375423},{""event"":""focus"",""trial"":15,""time"":376538},{""event"":""blur"",""trial"":16,""time"":389763},{""event"":""focus"",""trial"":16,""time"":392858},{""event"":""blur"",""trial"":16,""time"":393221},{""event"":""focus"",""trial"":16,""time"":393939},{""event"":""blur"",""trial"":17,""time"":419973},{""event"":""focus"",""trial"":17,""time"":423628},{""event"":""blur"",""trial"":18,""time"":439820},{""event"":""focus"",""trial"":18,""time"":443070},{""event"":""blur"",""trial"":20,""time"":464813},{""event"":""focus"",""trial"":20,""time"":467995},{""event"":""blur"",""trial"":21,""time"":488518},{""event"":""focus"",""trial"":21,""time"":491798},{""event"":""blur"",""trial"":21,""time"":492437},{""event"":""focus"",""trial"":21,""time"":493260},{""event"":""blur"",""trial"":22,""time"":510566},{""event"":""focus"",""trial"":22,""time"":513735},{""event"":""blur"",""trial"":23,""time"":531128},{""event"":""focus"",""trial"":23,""time"":534239},{""event"":""blur"",""trial"":24,""time"":548875},{""event"":""focus"",""trial"":24,""time"":551927},{""event"":""blur"",""trial"":24,""time"":552459},{""event"":""focus"",""trial"":24,""time"":553142},{""event"":""blur"",""trial"":26,""time"":573362},{""event"":""focus"",""trial"":26,""time"":576409},{""event"":""blur"",""trial"":26,""time"":579143},{""event"":""focus"",""trial"":26,""time"":591890},{""event"":""blur"",""trial"":27,""time"":600501},{""event"":""focus"",""trial"":27,""time"":603504},{""event"":""blur"",""trial"":28,""time"":621786},{""event"":""focus"",""trial"":28,""time"":625615},{""event"":""blur"",""trial"":28,""time"":631068},{""event"":""focus"",""trial"":28,""time"":636381},{""event"":""blur"",""trial"":28,""time"":636878},{""event"":""focus"",""trial"":28,""time"":637605},{""event"":""blur"",""trial"":29,""time"":656169},{""event"":""focus"",""trial"":29,""time"":659330},{""event"":""blur"",""trial"":29,""time"":675393},{""event"":""focus"",""trial"":29,""time"":678374},{""event"":""blur"",""trial"":30,""time"":685313},{""event"":""focus"",""trial"":30,""time"":689164},{""event"":""blur"",""trial"":30,""time"":732246},{""event"":""focus"",""trial"":30,""time"":735222},{""event"":""blur"",""trial"":30,""time"":743533},{""event"":""focus"",""trial"":30,""time"":756098},{""event"":""blur"",""trial"":30,""time"":757094},{""event"":""focus"",""trial"":30,""time"":771799},{""event"":""blur"",""trial"":32,""time"":783636},{""event"":""focus"",""trial"":32,""time"":787009},{""event"":""blur"",""trial"":32,""time"":787581},{""event"":""focus"",""trial"":32,""time"":788492},{""event"":""blur"",""trial"":33,""time"":810374},{""event"":""focus"",""trial"":33,""time"":813217},{""event"":""blur"",""trial"":33,""time"":813983},{""event"":""focus"",""trial"":33,""time"":815910},{""event"":""blur"",""trial"":34,""time"":850914},{""event"":""focus"",""trial"":34,""time"":854040},{""event"":""blur"",""trial"":34,""time"":854451},{""event"":""focus"",""trial"":34,""time"":856373},{""event"":""blur"",""trial"":35,""time"":877832},{""event"":""focus"",""trial"":35,""time"":886844},{""event"":""blur"",""trial"":35,""time"":887675},{""event"":""focus"",""trial"":35,""time"":888580},{""event"":""blur"",""trial"":36,""time"":901881},{""event"":""focus"",""trial"":36,""time"":907419},{""event"":""blur"",""trial"":36,""time"":908975},{""event"":""focus"",""trial"":36,""time"":910862},{""event"":""blur"",""trial"":36,""time"":911866},{""event"":""focus"",""trial"":36,""time"":914130},{""event"":""blur"",""trial"":36,""time"":930991},{""event"":""focus"",""trial"":36,""time"":933607},{""event"":""blur"",""trial"":36,""time"":934056},{""event"":""focus"",""trial"":36,""time"":934556},{""event"":""blur"",""trial"":36,""time"":936191},{""event"":""focus"",""trial"":36,""time"":946580},{""event"":""blur"",""trial"":38,""time"":952962},{""event"":""focus"",""trial"":38,""time"":964824},{""event"":""blur"",""trial"":38,""time"":985120},{""event"":""focus"",""trial"":38,""time"":985774},{""event"":""blur"",""trial"":39,""time"":999368},{""event"":""focus"",""trial"":39,""time"":1002446},{""event"":""blur"",""trial"":39,""time"":1002931},{""event"":""focus"",""trial"":39,""time"":1003720},{""event"":""blur"",""trial"":40,""time"":1025112},{""event"":""focus"",""trial"":40,""time"":1029789},{""event"":""blur"",""trial"":40,""time"":1030223},{""event"":""focus"",""trial"":40,""time"":1031632},{""event"":""blur"",""trial"":41,""time"":1053989},{""event"":""focus"",""trial"":41,""time"":1056767},{""event"":""blur"",""trial"":41,""time"":1057188},{""event"":""focus"",""trial"":41,""time"":1062987},{""event"":""blur"",""trial"":41,""time"":1064650},{""event"":""focus"",""trial"":41,""time"":1067503},{""event"":""blur"",""trial"":41,""time"":1070047},{""event"":""focus"",""trial"":41,""time"":1074618},{""event"":""blur"",""trial"":42,""time"":1083223},{""event"":""focus"",""trial"":42,""time"":1086305},{""event"":""blur"",""trial"":42,""time"":1086757},{""event"":""focus"",""trial"":42,""time"":1087533},{""event"":""blur"",""trial"":43,""time"":1114515},{""event"":""focus"",""trial"":43,""time"":1131324},{""event"":""blur"",""trial"":43,""time"":1131972},{""event"":""focus"",""trial"":43,""time"":1132569},{""event"":""blur"",""trial"":43,""time"":1156959},{""event"":""focus"",""trial"":43,""time"":1173727},{""event"":""blur"",""trial"":43,""time"":1210577},{""event"":""focus"",""trial"":43,""time"":1213221},{""event"":""blur"",""trial"":44,""time"":1237163},{""event"":""focus"",""trial"":44,""time"":1239346}]",5,3,NA,100,0,0,NA,NA,NA,2025-11-21 00:56:30
"8329.60000000149","https://psyc-201.github.io/xiang2023/exp/index1.html?PROLIFIC_PID=REDACTED&STUDY_ID=691f8ca61c6b4dcbb0aeb5f4&SESSION_ID=691fb3d33445aeef08ca733b","html-button-response",45,1248511,"0.0-363.0","FHZwx1p/S4iHha3He3XHZnqeoZBAzONuZeG34L7ELfG2FxNGGwmHAmTlArgRtJXhgY8eTE6Hu5eKCx980qrXg5noYI6YoaWueZYAPLBXGSmFBONmpdZdpG8OV89L1jjPOG3vR30ZApL0scGqte/oVyS+Sv3AMhZDBSZ8j4tl0BGKaHyETff516NrU1WQhK0DKzvL+/MYl70SFVxCBjPMtwWzOC8GdulGvDqJhRXG/J+LRW4+/SWsmS1CcK5uGiqe3KXYvvLgYwXdhFBIpOoFvE5OJrsmeQLtZQlUUDKWAl3UfqSDAQ7SPgGzUf/bk5d6H2RtUzxIAEMgRLjAmXop0g==","691f8ca61c6b4dcbb0aeb5f4","691fb3d33445aeef08ca733b","index1","<span style='color:red'>Fail,<span style='color:red'>Fail,<span style='color:green'>Lift,<span style='color:green'>Lift,<span style='color:red'>Fail,<span style='color:red'>Fail,<span style='color:red'>Fail,<span style='color:red'>Fail,<span style='color:green'>Lift,<span style='color:red'>Fail,<span style='color:red'>Fail,<span style='color:green'>Lift","<span style='color:red'>Fail,<span style='color:red'>Fail,<span style='color:green'>Lift,<span style='color:green'>Lift,<span style='color:green'>Lift,<span style='color:green'>Lift,<span style='color:red'>Fail,<span style='color:green'>Lift,<span style='color:green'>Lift,<span style='color:green'>Lift,<span style='color:red'>Fail,<span style='color:green'>Lift","<span style='color:red'>Fail,<span style='color:green'>Lift,<span style='color:green'>Lift,<span style='color:red'>Fail,<span style='color:green'>Lift,<span style='color:green'>Lift","0,0,1,1,0,0,0,0,1,0,0,1","0,0,1,1,1,1,0,1,1,1,0,1","0,1,1,0,1,1",10,20,20,"","","<p> We randomly picked <b>Contest 5, Round 3</b> to calculate your bonus. </p><p> The outcome of Contestant I and J on that round is <span style='color:red'>Fail</span>. </p><p> The probability you entered was 100. </p><p><b> You won a bonus of $0.00!</b></p><p> IMPORTANT: Please click 'Next' to complete the game. </p>","","","",NA,"",NA,NA,NA,NA,NA,NA,NA,NA,NA,NA,NA,NA,NA,NA,NA,NA,NA,NA,NA,NA,NA,NA,NA,NA,NA,NA,NA,NA,NA,NA,NA,NA,NA,NA,NA,NA,NA,NA,NA,"",NA,NA,NA,NA,NA,NA,0,2,1,2025-11-21 00:56:30
