"rt","url","trial_type","trial_index","time_elapsed","internal_node_id","encryptedProlificId","studyId","sessionId","expIndex","round1_outcomes","round2_outcomes","round3_outcomes","round1_o","round2_o","round3_o","round1_reward","round2_reward","round3_reward","success","view_history","stimulus","key_press","responses","question_order","button_pressed","j","Stage","stage","contest","round","strength_a","strength_b","effort_a","effort_b","outcome_a","outcome_b","reward","r1_strength_a","r1_strength_b","r1_effort_a","r1_effort_b","r1_outcome_a","r1_outcome_b","r1_reward","probability_a","probability_b","r2_prob_a","r2_prob_b","r2_strength_a","r2_strength_b","r2_effort_a","r2_effort_b","r2_outcome_a","r2_outcome_b","r2_reward","r3_prob_a","r3_prob_b","r3_strength_a","r3_strength_b","r3_effort_a","r3_effort_b","r3_outcome_a","r3_outcome_b","r3_reward","attention_check","count","already","screen","pick_contest","pick_round","pick_side","trial_probability","trial_outcome","bonus","attention_sum","attention","datapipe_meta.attributes.date_modified"
"62132.5","https://psyc-201.github.io/xiang2023/exp/index1.html?PROLIFIC_PID=REDACTED&STUDY_ID=691f8ca61c6b4dcbb0aeb5f4&SESSION_ID=691fc801f0414bb77fc353e3","external-html",0,62187,"0.0-0.0","DEdEyO3cAZOc9FwAQ8ebzI1ZFNLZWe2vEsV0Qg40uzpXAyM3P6x7XF1d99QcHf1/5OGN8xdbOuxMrpHNGs9jm6faff/oBpz1qA9MHSHZcAm9HZmg7X/DCZbtmhSvKcLeOEv9n6qlL24CiyyF6txcOagCDBds25FLVHKGrfhakbKYN9vYvZnc1a1hp0jwEZICFdadGACEEXA7oYd3SfupqorZpViIQ64c+yqYmBgoTQT46SOWfjoVM1gMsz1Ec37mM3k1Xoa5fF0l8LOul44kn2ZyC3zkdphOo3ISFeymnfhGf05G7p47cjVbHZG5IqW1Pt++sHtauvjduJR6+e0DZA==","691f8ca61c6b4dcbb0aeb5f4","691fc801f0414bb77fc353e3","index1","<span style='color:red'>Fail,<span style='color:red'>Fail,<span style='color:green'>Lift,<span style='color:green'>Lift,<span style='color:red'>Fail,<span style='color:red'>Fail,<span style='color:red'>Fail,<span style='color:red'>Fail,<span style='color:green'>Lift,<span style='color:red'>Fail,<span style='color:red'>Fail,<span style='color:green'>Lift","<span style='color:red'>Fail,<span style='color:red'>Fail,<span style='color:green'>Lift,<span style='color:green'>Lift,<span style='color:green'>Lift,<span style='color:green'>Lift,<span style='color:green'>Lift,<span style='color:red'>Fail,<span style='color:green'>Lift,<span style='color:green'>Lift,<span style='color:red'>Fail,<span style='color:green'>Lift","<span style='color:red'>Fail,<span style='color:green'>Lift,<span style='color:green'>Lift,<span style='color:red'>Fail,<span style='color:green'>Lift,<span style='color:green'>Lift","0,0,1,1,0,0,0,0,1,0,0,1","0,0,1,1,1,1,1,0,1,1,0,1","0,1,1,0,1,1",10,20,20,"","","","","","",NA,NA,"",NA,NA,NA,NA,NA,NA,NA,NA,NA,NA,NA,NA,NA,NA,NA,NA,NA,NA,NA,NA,NA,NA,NA,NA,NA,NA,NA,NA,NA,NA,NA,NA,NA,NA,NA,NA,NA,NA,NA,NA,"",NA,NA,NA,NA,NA,NA,NA,NA,2025-11-21 02:41:23
"","https://psyc-201.github.io/xiang2023/exp/index1.html?PROLIFIC_PID=REDACTED&STUDY_ID=691f8ca61c6b4dcbb0aeb5f4&SESSION_ID=691fc801f0414bb77fc353e3","fullscreen",1,116319,"0.0-1.0","DEdEyO3cAZOc9FwAQ8ebzI1ZFNLZWe2vEsV0Qg40uzpXAyM3P6x7XF1d99QcHf1/5OGN8xdbOuxMrpHNGs9jm6faff/oBpz1qA9MHSHZcAm9HZmg7X/DCZbtmhSvKcLeOEv9n6qlL24CiyyF6txcOagCDBds25FLVHKGrfhakbKYN9vYvZnc1a1hp0jwEZICFdadGACEEXA7oYd3SfupqorZpViIQ64c+yqYmBgoTQT46SOWfjoVM1gMsz1Ec37mM3k1Xoa5fF0l8LOul44kn2ZyC3zkdphOo3ISFeymnfhGf05G7p47cjVbHZG5IqW1Pt++sHtauvjduJR6+e0DZA==","691f8ca61c6b4dcbb0aeb5f4","691fc801f0414bb77fc353e3","index1","<span style='color:red'>Fail,<span style='color:red'>Fail,<span style='color:green'>Lift,<span style='color:green'>Lift,<span style='color:red'>Fail,<span style='color:red'>Fail,<span style='color:red'>Fail,<span style='color:red'>Fail,<span style='color:green'>Lift,<span style='color:red'>Fail,<span style='color:red'>Fail,<span style='color:green'>Lift","<span style='color:red'>Fail,<span style='color:red'>Fail,<span style='color:green'>Lift,<span style='color:green'>Lift,<span style='color:green'>Lift,<span style='color:green'>Lift,<span style='color:green'>Lift,<span style='color:red'>Fail,<span style='color:green'>Lift,<span style='color:green'>Lift,<span style='color:red'>Fail,<span style='color:green'>Lift","<span style='color:red'>Fail,<span style='color:green'>Lift,<span style='color:green'>Lift,<span style='color:red'>Fail,<span style='color:green'>Lift,<span style='color:green'>Lift","0,0,1,1,0,0,0,0,1,0,0,1","0,0,1,1,1,1,1,0,1,1,0,1","0,1,1,0,1,1",10,20,20,"true","","","","","",NA,NA,"",NA,NA,NA,NA,NA,NA,NA,NA,NA,NA,NA,NA,NA,NA,NA,NA,NA,NA,NA,NA,NA,NA,NA,NA,NA,NA,NA,NA,NA,NA,NA,NA,NA,NA,NA,NA,NA,NA,NA,NA,"",NA,NA,NA,NA,NA,NA,NA,NA,2025-11-21 02:41:23
"359546.2999999523","https://psyc-201.github.io/xiang2023/exp/index1.html?PROLIFIC_PID=REDACTED&STUDY_ID=691f8ca61c6b4dcbb0aeb5f4&SESSION_ID=691fc801f0414bb77fc353e3","instructions",2,475868,"0.0-2.0","DEdEyO3cAZOc9FwAQ8ebzI1ZFNLZWe2vEsV0Qg40uzpXAyM3P6x7XF1d99QcHf1/5OGN8xdbOuxMrpHNGs9jm6faff/oBpz1qA9MHSHZcAm9HZmg7X/DCZbtmhSvKcLeOEv9n6qlL24CiyyF6txcOagCDBds25FLVHKGrfhakbKYN9vYvZnc1a1hp0jwEZICFdadGACEEXA7oYd3SfupqorZpViIQ64c+yqYmBgoTQT46SOWfjoVM1gMsz1Ec37mM3k1Xoa5fF0l8LOul44kn2ZyC3zkdphOo3ISFeymnfhGf05G7p47cjVbHZG5IqW1Pt++sHtauvjduJR6+e0DZA==","691f8ca61c6b4dcbb0aeb5f4","691fc801f0414bb77fc353e3","index1","<span style='color:red'>Fail,<span style='color:red'>Fail,<span style='color:green'>Lift,<span style='color:green'>Lift,<span style='color:red'>Fail,<span style='color:red'>Fail,<span style='color:red'>Fail,<span style='color:red'>Fail,<span style='color:green'>Lift,<span style='color:red'>Fail,<span style='color:red'>Fail,<span style='color:green'>Lift","<span style='color:red'>Fail,<span style='color:red'>Fail,<span style='color:green'>Lift,<span style='color:green'>Lift,<span style='color:green'>Lift,<span style='color:green'>Lift,<span style='color:green'>Lift,<span style='color:red'>Fail,<span style='color:green'>Lift,<span style='color:green'>Lift,<span style='color:red'>Fail,<span style='color:green'>Lift","<span style='color:red'>Fail,<span style='color:green'>Lift,<span style='color:green'>Lift,<span style='color:red'>Fail,<span style='color:green'>Lift,<span style='color:green'>Lift","0,0,1,1,0,0,0,0,1,0,0,1","0,0,1,1,1,1,1,0,1,1,0,1","0,1,1,0,1,1",10,20,20,"","[{""page_index"":0,""viewing_time"":146129.40000009537},{""page_index"":1,""viewing_time"":90159.39999985695},{""page_index"":2,""viewing_time"":14766.800000190735},{""page_index"":3,""viewing_time"":30702.89999985695},{""page_index"":4,""viewing_time"":20713.60000014305},{""page_index"":5,""viewing_time"":43926.299999952316},{""page_index"":6,""viewing_time"":13147.200000047684}]","","","","",NA,NA,"",NA,NA,NA,NA,NA,NA,NA,NA,NA,NA,NA,NA,NA,NA,NA,NA,NA,NA,NA,NA,NA,NA,NA,NA,NA,NA,NA,NA,NA,NA,NA,NA,NA,NA,NA,NA,NA,NA,NA,NA,"",NA,NA,NA,NA,NA,NA,NA,NA,2025-11-21 02:41:23
"null","https://psyc-201.github.io/xiang2023/exp/index1.html?PROLIFIC_PID=REDACTED&STUDY_ID=691f8ca61c6b4dcbb0aeb5f4&SESSION_ID=691fc801f0414bb77fc353e3","html-keyboard-response",3,476870,"0.0-3.0","DEdEyO3cAZOc9FwAQ8ebzI1ZFNLZWe2vEsV0Qg40uzpXAyM3P6x7XF1d99QcHf1/5OGN8xdbOuxMrpHNGs9jm6faff/oBpz1qA9MHSHZcAm9HZmg7X/DCZbtmhSvKcLeOEv9n6qlL24CiyyF6txcOagCDBds25FLVHKGrfhakbKYN9vYvZnc1a1hp0jwEZICFdadGACEEXA7oYd3SfupqorZpViIQ64c+yqYmBgoTQT46SOWfjoVM1gMsz1Ec37mM3k1Xoa5fF0l8LOul44kn2ZyC3zkdphOo3ISFeymnfhGf05G7p47cjVbHZG5IqW1Pt++sHtauvjduJR6+e0DZA==","691f8ca61c6b4dcbb0aeb5f4","691fc801f0414bb77fc353e3","index1","<span style='color:red'>Fail,<span style='color:red'>Fail,<span style='color:green'>Lift,<span style='color:green'>Lift,<span style='color:red'>Fail,<span style='color:red'>Fail,<span style='color:red'>Fail,<span style='color:red'>Fail,<span style='color:green'>Lift,<span style='color:red'>Fail,<span style='color:red'>Fail,<span style='color:green'>Lift","<span style='color:red'>Fail,<span style='color:red'>Fail,<span style='color:green'>Lift,<span style='color:green'>Lift,<span style='color:green'>Lift,<span style='color:green'>Lift,<span style='color:green'>Lift,<span style='color:red'>Fail,<span style='color:green'>Lift,<span style='color:green'>Lift,<span style='color:red'>Fail,<span style='color:green'>Lift","<span style='color:red'>Fail,<span style='color:green'>Lift,<span style='color:green'>Lift,<span style='color:red'>Fail,<span style='color:green'>Lift,<span style='color:green'>Lift","0,0,1,1,0,0,0,0,1,0,0,1","0,0,1,1,1,1,1,0,1,1,0,1","0,1,1,0,1,1",10,20,20,"",""," ","null","","",NA,NA,"",NA,NA,NA,NA,NA,NA,NA,NA,NA,NA,NA,NA,NA,NA,NA,NA,NA,NA,NA,NA,NA,NA,NA,NA,NA,NA,NA,NA,NA,NA,NA,NA,NA,NA,NA,NA,NA,NA,NA,NA,"",NA,NA,NA,NA,NA,NA,NA,NA,2025-11-21 02:41:23
"627840.9000000954","https://psyc-201.github.io/xiang2023/exp/index1.html?PROLIFIC_PID=REDACTED&STUDY_ID=691f8ca61c6b4dcbb0aeb5f4&SESSION_ID=691fc801f0414bb77fc353e3","survey-multi-choice",4,1104722,"0.0-4.0","DEdEyO3cAZOc9FwAQ8ebzI1ZFNLZWe2vEsV0Qg40uzpXAyM3P6x7XF1d99QcHf1/5OGN8xdbOuxMrpHNGs9jm6faff/oBpz1qA9MHSHZcAm9HZmg7X/DCZbtmhSvKcLeOEv9n6qlL24CiyyF6txcOagCDBds25FLVHKGrfhakbKYN9vYvZnc1a1hp0jwEZICFdadGACEEXA7oYd3SfupqorZpViIQ64c+yqYmBgoTQT46SOWfjoVM1gMsz1Ec37mM3k1Xoa5fF0l8LOul44kn2ZyC3zkdphOo3ISFeymnfhGf05G7p47cjVbHZG5IqW1Pt++sHtauvjduJR6+e0DZA==","691f8ca61c6b4dcbb0aeb5f4","691fc801f0414bb77fc353e3","index1","<span style='color:red'>Fail,<span style='color:red'>Fail,<span style='color:green'>Lift,<span style='color:green'>Lift,<span style='color:red'>Fail,<span style='color:red'>Fail,<span style='color:red'>Fail,<span style='color:red'>Fail,<span style='color:green'>Lift,<span style='color:red'>Fail,<span style='color:red'>Fail,<span style='color:green'>Lift","<span style='color:red'>Fail,<span style='color:red'>Fail,<span style='color:green'>Lift,<span style='color:green'>Lift,<span style='color:green'>Lift,<span style='color:green'>Lift,<span style='color:green'>Lift,<span style='color:red'>Fail,<span style='color:green'>Lift,<span style='color:green'>Lift,<span style='color:red'>Fail,<span style='color:green'>Lift","<span style='color:red'>Fail,<span style='color:green'>Lift,<span style='color:green'>Lift,<span style='color:red'>Fail,<span style='color:green'>Lift,<span style='color:green'>Lift","0,0,1,1,0,0,0,0,1,0,0,1","0,0,1,1,1,1,1,0,1,1,0,1","0,1,1,0,1,1",10,20,20,"","","","","{""Q0"":""It consists of multiple contests, each contest with three rounds."",""Q1"":""When a new contest begins."",""Q2"":""The box weight always stays the same (equivalent to strength of 5)."",""Q3"":""They will split the $20, that is $10 for each."",""Q4"":""How close my guesses are to the actual outcome.""}","[0,1,2,3,4]",NA,NA,"",NA,NA,NA,NA,NA,NA,NA,NA,NA,NA,NA,NA,NA,NA,NA,NA,NA,NA,NA,NA,NA,NA,NA,NA,NA,NA,NA,NA,NA,NA,NA,NA,NA,NA,NA,NA,NA,NA,NA,NA,"",NA,NA,NA,NA,NA,NA,NA,NA,2025-11-21 02:41:23
"5320.400000095367","https://psyc-201.github.io/xiang2023/exp/index1.html?PROLIFIC_PID=REDACTED&STUDY_ID=691f8ca61c6b4dcbb0aeb5f4&SESSION_ID=691fc801f0414bb77fc353e3","html-button-response",5,1110047,"0.0-5.0-1.0","DEdEyO3cAZOc9FwAQ8ebzI1ZFNLZWe2vEsV0Qg40uzpXAyM3P6x7XF1d99QcHf1/5OGN8xdbOuxMrpHNGs9jm6faff/oBpz1qA9MHSHZcAm9HZmg7X/DCZbtmhSvKcLeOEv9n6qlL24CiyyF6txcOagCDBds25FLVHKGrfhakbKYN9vYvZnc1a1hp0jwEZICFdadGACEEXA7oYd3SfupqorZpViIQ64c+yqYmBgoTQT46SOWfjoVM1gMsz1Ec37mM3k1Xoa5fF0l8LOul44kn2ZyC3zkdphOo3ISFeymnfhGf05G7p47cjVbHZG5IqW1Pt++sHtauvjduJR6+e0DZA==","691f8ca61c6b4dcbb0aeb5f4","691fc801f0414bb77fc353e3","index1","<span style='color:red'>Fail,<span style='color:red'>Fail,<span style='color:green'>Lift,<span style='color:green'>Lift,<span style='color:red'>Fail,<span style='color:red'>Fail,<span style='color:red'>Fail,<span style='color:red'>Fail,<span style='color:green'>Lift,<span style='color:red'>Fail,<span style='color:red'>Fail,<span style='color:green'>Lift","<span style='color:red'>Fail,<span style='color:red'>Fail,<span style='color:green'>Lift,<span style='color:green'>Lift,<span style='color:green'>Lift,<span style='color:green'>Lift,<span style='color:green'>Lift,<span style='color:red'>Fail,<span style='color:green'>Lift,<span style='color:green'>Lift,<span style='color:red'>Fail,<span style='color:green'>Lift","<span style='color:red'>Fail,<span style='color:green'>Lift,<span style='color:green'>Lift,<span style='color:red'>Fail,<span style='color:green'>Lift,<span style='color:green'>Lift","0,0,1,1,0,0,0,0,1,0,0,1","0,0,1,1,1,1,1,0,1,1,0,1","0,1,1,0,1,1",10,20,20,"","","<p> Oops! You did not pass the comprehension check. <b>Please note that you have only 1 attempt(s) left.</b> </p>","","","",1,NA,"",NA,NA,NA,NA,NA,NA,NA,NA,NA,NA,NA,NA,NA,NA,NA,NA,NA,NA,NA,NA,NA,NA,NA,NA,NA,NA,NA,NA,NA,NA,NA,NA,NA,NA,NA,NA,NA,NA,NA,NA,"",NA,NA,NA,NA,NA,NA,NA,NA,2025-11-21 02:41:23
"248937.40000009537","https://psyc-201.github.io/xiang2023/exp/index1.html?PROLIFIC_PID=REDACTED&STUDY_ID=691f8ca61c6b4dcbb0aeb5f4&SESSION_ID=691fc801f0414bb77fc353e3","instructions",6,1358986,"0.0-6.0-0.0","DEdEyO3cAZOc9FwAQ8ebzI1ZFNLZWe2vEsV0Qg40uzpXAyM3P6x7XF1d99QcHf1/5OGN8xdbOuxMrpHNGs9jm6faff/oBpz1qA9MHSHZcAm9HZmg7X/DCZbtmhSvKcLeOEv9n6qlL24CiyyF6txcOagCDBds25FLVHKGrfhakbKYN9vYvZnc1a1hp0jwEZICFdadGACEEXA7oYd3SfupqorZpViIQ64c+yqYmBgoTQT46SOWfjoVM1gMsz1Ec37mM3k1Xoa5fF0l8LOul44kn2ZyC3zkdphOo3ISFeymnfhGf05G7p47cjVbHZG5IqW1Pt++sHtauvjduJR6+e0DZA==","691f8ca61c6b4dcbb0aeb5f4","691fc801f0414bb77fc353e3","index1","<span style='color:red'>Fail,<span style='color:red'>Fail,<span style='color:green'>Lift,<span style='color:green'>Lift,<span style='color:red'>Fail,<span style='color:red'>Fail,<span style='color:red'>Fail,<span style='color:red'>Fail,<span style='color:green'>Lift,<span style='color:red'>Fail,<span style='color:red'>Fail,<span style='color:green'>Lift","<span style='color:red'>Fail,<span style='color:red'>Fail,<span style='color:green'>Lift,<span style='color:green'>Lift,<span style='color:green'>Lift,<span style='color:green'>Lift,<span style='color:green'>Lift,<span style='color:red'>Fail,<span style='color:green'>Lift,<span style='color:green'>Lift,<span style='color:red'>Fail,<span style='color:green'>Lift","<span style='color:red'>Fail,<span style='color:green'>Lift,<span style='color:green'>Lift,<span style='color:red'>Fail,<span style='color:green'>Lift,<span style='color:green'>Lift","0,0,1,1,0,0,0,0,1,0,0,1","0,0,1,1,1,1,1,0,1,1,0,1","0,1,1,0,1,1",10,20,20,"","[{""page_index"":0,""viewing_time"":35388.5},{""page_index"":1,""viewing_time"":6666.299999952316},{""page_index"":2,""viewing_time"":112368},{""page_index"":3,""viewing_time"":58271.799999952316},{""page_index"":4,""viewing_time"":12859.400000095367},{""page_index"":5,""viewing_time"":16150.400000095367},{""page_index"":6,""viewing_time"":7232.599999904633}]","","","","",NA,NA,"",NA,NA,NA,NA,NA,NA,NA,NA,NA,NA,NA,NA,NA,NA,NA,NA,NA,NA,NA,NA,NA,NA,NA,NA,NA,NA,NA,NA,NA,NA,NA,NA,NA,NA,NA,NA,NA,NA,NA,NA,"",NA,NA,NA,NA,NA,NA,NA,NA,2025-11-21 02:41:23
"null","https://psyc-201.github.io/xiang2023/exp/index1.html?PROLIFIC_PID=REDACTED&STUDY_ID=691f8ca61c6b4dcbb0aeb5f4&SESSION_ID=691fc801f0414bb77fc353e3","html-keyboard-response",7,1359988,"0.0-6.0-1.0","DEdEyO3cAZOc9FwAQ8ebzI1ZFNLZWe2vEsV0Qg40uzpXAyM3P6x7XF1d99QcHf1/5OGN8xdbOuxMrpHNGs9jm6faff/oBpz1qA9MHSHZcAm9HZmg7X/DCZbtmhSvKcLeOEv9n6qlL24CiyyF6txcOagCDBds25FLVHKGrfhakbKYN9vYvZnc1a1hp0jwEZICFdadGACEEXA7oYd3SfupqorZpViIQ64c+yqYmBgoTQT46SOWfjoVM1gMsz1Ec37mM3k1Xoa5fF0l8LOul44kn2ZyC3zkdphOo3ISFeymnfhGf05G7p47cjVbHZG5IqW1Pt++sHtauvjduJR6+e0DZA==","691f8ca61c6b4dcbb0aeb5f4","691fc801f0414bb77fc353e3","index1","<span style='color:red'>Fail,<span style='color:red'>Fail,<span style='color:green'>Lift,<span style='color:green'>Lift,<span style='color:red'>Fail,<span style='color:red'>Fail,<span style='color:red'>Fail,<span style='color:red'>Fail,<span style='color:green'>Lift,<span style='color:red'>Fail,<span style='color:red'>Fail,<span style='color:green'>Lift","<span style='color:red'>Fail,<span style='color:red'>Fail,<span style='color:green'>Lift,<span style='color:green'>Lift,<span style='color:green'>Lift,<span style='color:green'>Lift,<span style='color:green'>Lift,<span style='color:red'>Fail,<span style='color:green'>Lift,<span style='color:green'>Lift,<span style='color:red'>Fail,<span style='color:green'>Lift","<span style='color:red'>Fail,<span style='color:green'>Lift,<span style='color:green'>Lift,<span style='color:red'>Fail,<span style='color:green'>Lift,<span style='color:green'>Lift","0,0,1,1,0,0,0,0,1,0,0,1","0,0,1,1,1,1,1,0,1,1,0,1","0,1,1,0,1,1",10,20,20,"",""," ","null","","",NA,NA,"",NA,NA,NA,NA,NA,NA,NA,NA,NA,NA,NA,NA,NA,NA,NA,NA,NA,NA,NA,NA,NA,NA,NA,NA,NA,NA,NA,NA,NA,NA,NA,NA,NA,NA,NA,NA,NA,NA,NA,NA,"",NA,NA,NA,NA,NA,NA,NA,NA,2025-11-21 02:41:23
"371551.90000009537","https://psyc-201.github.io/xiang2023/exp/index1.html?PROLIFIC_PID=REDACTED&STUDY_ID=691f8ca61c6b4dcbb0aeb5f4&SESSION_ID=691fc801f0414bb77fc353e3","survey-multi-choice",8,1731543,"0.0-7.0-0.0","DEdEyO3cAZOc9FwAQ8ebzI1ZFNLZWe2vEsV0Qg40uzpXAyM3P6x7XF1d99QcHf1/5OGN8xdbOuxMrpHNGs9jm6faff/oBpz1qA9MHSHZcAm9HZmg7X/DCZbtmhSvKcLeOEv9n6qlL24CiyyF6txcOagCDBds25FLVHKGrfhakbKYN9vYvZnc1a1hp0jwEZICFdadGACEEXA7oYd3SfupqorZpViIQ64c+yqYmBgoTQT46SOWfjoVM1gMsz1Ec37mM3k1Xoa5fF0l8LOul44kn2ZyC3zkdphOo3ISFeymnfhGf05G7p47cjVbHZG5IqW1Pt++sHtauvjduJR6+e0DZA==","691f8ca61c6b4dcbb0aeb5f4","691fc801f0414bb77fc353e3","index1","<span style='color:red'>Fail,<span style='color:red'>Fail,<span style='color:green'>Lift,<span style='color:green'>Lift,<span style='color:red'>Fail,<span style='color:red'>Fail,<span style='color:red'>Fail,<span style='color:red'>Fail,<span style='color:green'>Lift,<span style='color:red'>Fail,<span style='color:red'>Fail,<span style='color:green'>Lift","<span style='color:red'>Fail,<span style='color:red'>Fail,<span style='color:green'>Lift,<span style='color:green'>Lift,<span style='color:green'>Lift,<span style='color:green'>Lift,<span style='color:green'>Lift,<span style='color:red'>Fail,<span style='color:green'>Lift,<span style='color:green'>Lift,<span style='color:red'>Fail,<span style='color:green'>Lift","<span style='color:red'>Fail,<span style='color:green'>Lift,<span style='color:green'>Lift,<span style='color:red'>Fail,<span style='color:green'>Lift,<span style='color:green'>Lift","0,0,1,1,0,0,0,0,1,0,0,1","0,0,1,1,1,1,1,0,1,1,0,1","0,1,1,0,1,1",10,20,20,"","","","","{""Q0"":""It consists of multiple contests, each contest with three rounds."",""Q1"":""When a new contest begins."",""Q2"":""The box weight always stays the same (equivalent to strength of 5)."",""Q3"":""Each will get $20."",""Q4"":""How close my guesses are to the actual outcome.""}","[0,1,2,3,4]",NA,NA,"",NA,NA,NA,NA,NA,NA,NA,NA,NA,NA,NA,NA,NA,NA,NA,NA,NA,NA,NA,NA,NA,NA,NA,NA,NA,NA,NA,NA,NA,NA,NA,NA,NA,NA,NA,NA,NA,NA,NA,NA,"",NA,NA,NA,NA,NA,NA,NA,NA,2025-11-21 02:41:23
"14135.200000047684","https://psyc-201.github.io/xiang2023/exp/index1.html?PROLIFIC_PID=REDACTED&STUDY_ID=691f8ca61c6b4dcbb0aeb5f4&SESSION_ID=691fc801f0414bb77fc353e3","instructions",9,1745687,"0.0-305.0","DEdEyO3cAZOc9FwAQ8ebzI1ZFNLZWe2vEsV0Qg40uzpXAyM3P6x7XF1d99QcHf1/5OGN8xdbOuxMrpHNGs9jm6faff/oBpz1qA9MHSHZcAm9HZmg7X/DCZbtmhSvKcLeOEv9n6qlL24CiyyF6txcOagCDBds25FLVHKGrfhakbKYN9vYvZnc1a1hp0jwEZICFdadGACEEXA7oYd3SfupqorZpViIQ64c+yqYmBgoTQT46SOWfjoVM1gMsz1Ec37mM3k1Xoa5fF0l8LOul44kn2ZyC3zkdphOo3ISFeymnfhGf05G7p47cjVbHZG5IqW1Pt++sHtauvjduJR6+e0DZA==","691f8ca61c6b4dcbb0aeb5f4","691fc801f0414bb77fc353e3","index1","<span style='color:red'>Fail,<span style='color:red'>Fail,<span style='color:green'>Lift,<span style='color:green'>Lift,<span style='color:red'>Fail,<span style='color:red'>Fail,<span style='color:red'>Fail,<span style='color:red'>Fail,<span style='color:green'>Lift,<span style='color:red'>Fail,<span style='color:red'>Fail,<span style='color:green'>Lift","<span style='color:red'>Fail,<span style='color:red'>Fail,<span style='color:green'>Lift,<span style='color:green'>Lift,<span style='color:green'>Lift,<span style='color:green'>Lift,<span style='color:green'>Lift,<span style='color:red'>Fail,<span style='color:green'>Lift,<span style='color:green'>Lift,<span style='color:red'>Fail,<span style='color:green'>Lift","<span style='color:red'>Fail,<span style='color:green'>Lift,<span style='color:green'>Lift,<span style='color:red'>Fail,<span style='color:green'>Lift,<span style='color:green'>Lift","0,0,1,1,0,0,0,0,1,0,0,1","0,0,1,1,1,1,1,0,1,1,0,1","0,1,1,0,1,1",10,20,20,"","[{""page_index"":0,""viewing_time"":8006.399999856949},{""page_index"":1,""viewing_time"":6128.400000095367}]","","","","",NA,NA,"",NA,NA,NA,NA,NA,NA,NA,NA,NA,NA,NA,NA,NA,NA,NA,NA,NA,NA,NA,NA,NA,NA,NA,NA,NA,NA,NA,NA,NA,NA,NA,NA,NA,NA,NA,NA,NA,NA,NA,NA,"",NA,NA,NA,NA,NA,NA,NA,NA,2025-11-21 02:41:23
"null","https://psyc-201.github.io/xiang2023/exp/index1.html?PROLIFIC_PID=REDACTED&STUDY_ID=691f8ca61c6b4dcbb0aeb5f4&SESSION_ID=691fc801f0414bb77fc353e3","html-keyboard-response",10,1746689,"0.0-306.0","DEdEyO3cAZOc9FwAQ8ebzI1ZFNLZWe2vEsV0Qg40uzpXAyM3P6x7XF1d99QcHf1/5OGN8xdbOuxMrpHNGs9jm6faff/oBpz1qA9MHSHZcAm9HZmg7X/DCZbtmhSvKcLeOEv9n6qlL24CiyyF6txcOagCDBds25FLVHKGrfhakbKYN9vYvZnc1a1hp0jwEZICFdadGACEEXA7oYd3SfupqorZpViIQ64c+yqYmBgoTQT46SOWfjoVM1gMsz1Ec37mM3k1Xoa5fF0l8LOul44kn2ZyC3zkdphOo3ISFeymnfhGf05G7p47cjVbHZG5IqW1Pt++sHtauvjduJR6+e0DZA==","691f8ca61c6b4dcbb0aeb5f4","691fc801f0414bb77fc353e3","index1","<span style='color:red'>Fail,<span style='color:red'>Fail,<span style='color:green'>Lift,<span style='color:green'>Lift,<span style='color:red'>Fail,<span style='color:red'>Fail,<span style='color:red'>Fail,<span style='color:red'>Fail,<span style='color:green'>Lift,<span style='color:red'>Fail,<span style='color:red'>Fail,<span style='color:green'>Lift","<span style='color:red'>Fail,<span style='color:red'>Fail,<span style='color:green'>Lift,<span style='color:green'>Lift,<span style='color:green'>Lift,<span style='color:green'>Lift,<span style='color:green'>Lift,<span style='color:red'>Fail,<span style='color:green'>Lift,<span style='color:green'>Lift,<span style='color:red'>Fail,<span style='color:green'>Lift","<span style='color:red'>Fail,<span style='color:green'>Lift,<span style='color:green'>Lift,<span style='color:red'>Fail,<span style='color:green'>Lift,<span style='color:green'>Lift","0,0,1,1,0,0,0,0,1,0,0,1","0,0,1,1,1,1,1,0,1,1,0,1","0,1,1,0,1,1",10,20,20,"",""," ","null","","",NA,1,"",NA,NA,NA,NA,NA,NA,NA,NA,NA,NA,NA,NA,NA,NA,NA,NA,NA,NA,NA,NA,NA,NA,NA,NA,NA,NA,NA,NA,NA,NA,NA,NA,NA,NA,NA,NA,NA,NA,NA,NA,"",NA,NA,NA,NA,NA,NA,NA,NA,2025-11-21 02:41:23
"null","https://psyc-201.github.io/xiang2023/exp/index1.html?PROLIFIC_PID=REDACTED&STUDY_ID=691f8ca61c6b4dcbb0aeb5f4&SESSION_ID=691fc801f0414bb77fc353e3","html-keyboard-response",11,1749692,"0.0-307.0","DEdEyO3cAZOc9FwAQ8ebzI1ZFNLZWe2vEsV0Qg40uzpXAyM3P6x7XF1d99QcHf1/5OGN8xdbOuxMrpHNGs9jm6faff/oBpz1qA9MHSHZcAm9HZmg7X/DCZbtmhSvKcLeOEv9n6qlL24CiyyF6txcOagCDBds25FLVHKGrfhakbKYN9vYvZnc1a1hp0jwEZICFdadGACEEXA7oYd3SfupqorZpViIQ64c+yqYmBgoTQT46SOWfjoVM1gMsz1Ec37mM3k1Xoa5fF0l8LOul44kn2ZyC3zkdphOo3ISFeymnfhGf05G7p47cjVbHZG5IqW1Pt++sHtauvjduJR6+e0DZA==","691f8ca61c6b4dcbb0aeb5f4","691fc801f0414bb77fc353e3","index1","<span style='color:red'>Fail,<span style='color:red'>Fail,<span style='color:green'>Lift,<span style='color:green'>Lift,<span style='color:red'>Fail,<span style='color:red'>Fail,<span style='color:red'>Fail,<span style='color:red'>Fail,<span style='color:green'>Lift,<span style='color:red'>Fail,<span style='color:red'>Fail,<span style='color:green'>Lift","<span style='color:red'>Fail,<span style='color:red'>Fail,<span style='color:green'>Lift,<span style='color:green'>Lift,<span style='color:green'>Lift,<span style='color:green'>Lift,<span style='color:green'>Lift,<span style='color:red'>Fail,<span style='color:green'>Lift,<span style='color:green'>Lift,<span style='color:red'>Fail,<span style='color:green'>Lift","<span style='color:red'>Fail,<span style='color:green'>Lift,<span style='color:green'>Lift,<span style='color:red'>Fail,<span style='color:green'>Lift,<span style='color:green'>Lift","0,0,1,1,0,0,0,0,1,0,0,1","0,0,1,1,1,1,1,0,1,1,0,1","0,1,1,0,1,1",10,20,20,"","","<p style='font-size:30px'><b> New Contest! </b></p>","null","","",NA,1,"",NA,NA,NA,NA,NA,NA,NA,NA,NA,NA,NA,NA,NA,NA,NA,NA,NA,NA,NA,NA,NA,NA,NA,NA,NA,NA,NA,NA,NA,NA,NA,NA,NA,NA,NA,NA,NA,NA,NA,NA,"",NA,NA,NA,NA,NA,NA,NA,NA,2025-11-21 02:41:23
"19437.099999904633","https://psyc-201.github.io/xiang2023/exp/index1.html?PROLIFIC_PID=REDACTED&STUDY_ID=691f8ca61c6b4dcbb0aeb5f4&SESSION_ID=691fc801f0414bb77fc353e3","survey-html-form",12,1769139,"0.0-308.0","DEdEyO3cAZOc9FwAQ8ebzI1ZFNLZWe2vEsV0Qg40uzpXAyM3P6x7XF1d99QcHf1/5OGN8xdbOuxMrpHNGs9jm6faff/oBpz1qA9MHSHZcAm9HZmg7X/DCZbtmhSvKcLeOEv9n6qlL24CiyyF6txcOagCDBds25FLVHKGrfhakbKYN9vYvZnc1a1hp0jwEZICFdadGACEEXA7oYd3SfupqorZpViIQ64c+yqYmBgoTQT46SOWfjoVM1gMsz1Ec37mM3k1Xoa5fF0l8LOul44kn2ZyC3zkdphOo3ISFeymnfhGf05G7p47cjVbHZG5IqW1Pt++sHtauvjduJR6+e0DZA==","691f8ca61c6b4dcbb0aeb5f4","691fc801f0414bb77fc353e3","index1","<span style='color:red'>Fail,<span style='color:red'>Fail,<span style='color:green'>Lift,<span style='color:green'>Lift,<span style='color:red'>Fail,<span style='color:red'>Fail,<span style='color:red'>Fail,<span style='color:red'>Fail,<span style='color:green'>Lift,<span style='color:red'>Fail,<span style='color:red'>Fail,<span style='color:green'>Lift","<span style='color:red'>Fail,<span style='color:red'>Fail,<span style='color:green'>Lift,<span style='color:green'>Lift,<span style='color:green'>Lift,<span style='color:green'>Lift,<span style='color:green'>Lift,<span style='color:red'>Fail,<span style='color:green'>Lift,<span style='color:green'>Lift,<span style='color:red'>Fail,<span style='color:green'>Lift","<span style='color:red'>Fail,<span style='color:green'>Lift,<span style='color:green'>Lift,<span style='color:red'>Fail,<span style='color:green'>Lift,<span style='color:green'>Lift","0,0,1,1,0,0,0,0,1,0,0,1","0,0,1,1,1,1,1,0,1,1,0,1","0,1,1,0,1,1",10,20,20,"","","","","{""box1"":""5"",""box2"":""5""}","",NA,1,"round1_outcome",1,1,1,5,5,NA,NA,0,0,10,5,5,NA,NA,0,0,10,NA,NA,NA,NA,NA,NA,NA,NA,NA,NA,NA,NA,NA,NA,NA,NA,NA,NA,NA,NA,NA,NA,NA,"",NA,NA,NA,NA,NA,NA,NA,NA,2025-11-21 02:41:23
"9165","https://psyc-201.github.io/xiang2023/exp/index1.html?PROLIFIC_PID=REDACTED&STUDY_ID=691f8ca61c6b4dcbb0aeb5f4&SESSION_ID=691fc801f0414bb77fc353e3","survey-html-form",13,1778307,"0.0-309.0","DEdEyO3cAZOc9FwAQ8ebzI1ZFNLZWe2vEsV0Qg40uzpXAyM3P6x7XF1d99QcHf1/5OGN8xdbOuxMrpHNGs9jm6faff/oBpz1qA9MHSHZcAm9HZmg7X/DCZbtmhSvKcLeOEv9n6qlL24CiyyF6txcOagCDBds25FLVHKGrfhakbKYN9vYvZnc1a1hp0jwEZICFdadGACEEXA7oYd3SfupqorZpViIQ64c+yqYmBgoTQT46SOWfjoVM1gMsz1Ec37mM3k1Xoa5fF0l8LOul44kn2ZyC3zkdphOo3ISFeymnfhGf05G7p47cjVbHZG5IqW1Pt++sHtauvjduJR6+e0DZA==","691f8ca61c6b4dcbb0aeb5f4","691fc801f0414bb77fc353e3","index1","<span style='color:red'>Fail,<span style='color:red'>Fail,<span style='color:green'>Lift,<span style='color:green'>Lift,<span style='color:red'>Fail,<span style='color:red'>Fail,<span style='color:red'>Fail,<span style='color:red'>Fail,<span style='color:green'>Lift,<span style='color:red'>Fail,<span style='color:red'>Fail,<span style='color:green'>Lift","<span style='color:red'>Fail,<span style='color:red'>Fail,<span style='color:green'>Lift,<span style='color:green'>Lift,<span style='color:green'>Lift,<span style='color:green'>Lift,<span style='color:green'>Lift,<span style='color:red'>Fail,<span style='color:green'>Lift,<span style='color:green'>Lift,<span style='color:red'>Fail,<span style='color:green'>Lift","<span style='color:red'>Fail,<span style='color:green'>Lift,<span style='color:green'>Lift,<span style='color:red'>Fail,<span style='color:green'>Lift,<span style='color:green'>Lift","0,0,1,1,0,0,0,0,1,0,0,1","0,0,1,1,1,1,1,0,1,1,0,1","0,1,1,0,1,1",10,20,20,"","","","","{""box1"":""50"",""box2"":""50""}","",NA,1,"round2_ready",2,1,2,NA,NA,NA,NA,NA,NA,NA,NA,NA,NA,NA,NA,NA,NA,50,50,50,50,NA,NA,NA,NA,NA,NA,NA,NA,NA,NA,NA,NA,NA,NA,NA,NA,NA,NA,NA,"",NA,NA,NA,NA,NA,NA,NA,NA,2025-11-21 02:41:23
"16824.900000095367","https://psyc-201.github.io/xiang2023/exp/index1.html?PROLIFIC_PID=REDACTED&STUDY_ID=691f8ca61c6b4dcbb0aeb5f4&SESSION_ID=691fc801f0414bb77fc353e3","survey-html-form",14,1795136,"0.0-310.0","DEdEyO3cAZOc9FwAQ8ebzI1ZFNLZWe2vEsV0Qg40uzpXAyM3P6x7XF1d99QcHf1/5OGN8xdbOuxMrpHNGs9jm6faff/oBpz1qA9MHSHZcAm9HZmg7X/DCZbtmhSvKcLeOEv9n6qlL24CiyyF6txcOagCDBds25FLVHKGrfhakbKYN9vYvZnc1a1hp0jwEZICFdadGACEEXA7oYd3SfupqorZpViIQ64c+yqYmBgoTQT46SOWfjoVM1gMsz1Ec37mM3k1Xoa5fF0l8LOul44kn2ZyC3zkdphOo3ISFeymnfhGf05G7p47cjVbHZG5IqW1Pt++sHtauvjduJR6+e0DZA==","691f8ca61c6b4dcbb0aeb5f4","691fc801f0414bb77fc353e3","index1","<span style='color:red'>Fail,<span style='color:red'>Fail,<span style='color:green'>Lift,<span style='color:green'>Lift,<span style='color:red'>Fail,<span style='color:red'>Fail,<span style='color:red'>Fail,<span style='color:red'>Fail,<span style='color:green'>Lift,<span style='color:red'>Fail,<span style='color:red'>Fail,<span style='color:green'>Lift","<span style='color:red'>Fail,<span style='color:red'>Fail,<span style='color:green'>Lift,<span style='color:green'>Lift,<span style='color:green'>Lift,<span style='color:green'>Lift,<span style='color:green'>Lift,<span style='color:red'>Fail,<span style='color:green'>Lift,<span style='color:green'>Lift,<span style='color:red'>Fail,<span style='color:green'>Lift","<span style='color:red'>Fail,<span style='color:green'>Lift,<span style='color:green'>Lift,<span style='color:red'>Fail,<span style='color:green'>Lift,<span style='color:green'>Lift","0,0,1,1,0,0,0,0,1,0,0,1","0,0,1,1,1,1,1,0,1,1,0,1","0,1,1,0,1,1",10,20,20,"","","","","{""box1"":""5"",""box2"":""5"",""box3"":""50"",""box4"":""50""}","",NA,1,"round2_outcome",3,1,2,5,5,50,50,1,1,20,NA,NA,NA,NA,NA,NA,NA,NA,NA,NA,NA,5,5,50,50,1,1,20,NA,NA,NA,NA,NA,NA,NA,NA,NA,NA,NA,NA,"",NA,NA,NA,NA,NA,NA,NA,NA,2025-11-21 02:41:23
"8702.700000047684","https://psyc-201.github.io/xiang2023/exp/index1.html?PROLIFIC_PID=REDACTED&STUDY_ID=691f8ca61c6b4dcbb0aeb5f4&SESSION_ID=691fc801f0414bb77fc353e3","survey-html-form",15,1803843,"0.0-311.0","DEdEyO3cAZOc9FwAQ8ebzI1ZFNLZWe2vEsV0Qg40uzpXAyM3P6x7XF1d99QcHf1/5OGN8xdbOuxMrpHNGs9jm6faff/oBpz1qA9MHSHZcAm9HZmg7X/DCZbtmhSvKcLeOEv9n6qlL24CiyyF6txcOagCDBds25FLVHKGrfhakbKYN9vYvZnc1a1hp0jwEZICFdadGACEEXA7oYd3SfupqorZpViIQ64c+yqYmBgoTQT46SOWfjoVM1gMsz1Ec37mM3k1Xoa5fF0l8LOul44kn2ZyC3zkdphOo3ISFeymnfhGf05G7p47cjVbHZG5IqW1Pt++sHtauvjduJR6+e0DZA==","691f8ca61c6b4dcbb0aeb5f4","691fc801f0414bb77fc353e3","index1","<span style='color:red'>Fail,<span style='color:red'>Fail,<span style='color:green'>Lift,<span style='color:green'>Lift,<span style='color:red'>Fail,<span style='color:red'>Fail,<span style='color:red'>Fail,<span style='color:red'>Fail,<span style='color:green'>Lift,<span style='color:red'>Fail,<span style='color:red'>Fail,<span style='color:green'>Lift","<span style='color:red'>Fail,<span style='color:red'>Fail,<span style='color:green'>Lift,<span style='color:green'>Lift,<span style='color:green'>Lift,<span style='color:green'>Lift,<span style='color:green'>Lift,<span style='color:red'>Fail,<span style='color:green'>Lift,<span style='color:green'>Lift,<span style='color:red'>Fail,<span style='color:green'>Lift","<span style='color:red'>Fail,<span style='color:green'>Lift,<span style='color:green'>Lift,<span style='color:red'>Fail,<span style='color:green'>Lift,<span style='color:green'>Lift","0,0,1,1,0,0,0,0,1,0,0,1","0,0,1,1,1,1,1,0,1,1,0,1","0,1,1,0,1,1",10,20,20,"","","","","{""box1"":""75""}","",NA,1,"round3_ready",4,1,3,NA,NA,NA,NA,NA,NA,NA,NA,NA,NA,NA,NA,NA,NA,75,75,NA,NA,NA,NA,NA,NA,NA,NA,NA,75,75,NA,NA,NA,NA,NA,NA,NA,NA,NA,NA,"",NA,NA,NA,NA,NA,NA,NA,NA,2025-11-21 02:41:23
"18752.900000095367","https://psyc-201.github.io/xiang2023/exp/index1.html?PROLIFIC_PID=REDACTED&STUDY_ID=691f8ca61c6b4dcbb0aeb5f4&SESSION_ID=691fc801f0414bb77fc353e3","survey-html-form",16,1822602,"0.0-312.0-0.0","DEdEyO3cAZOc9FwAQ8ebzI1ZFNLZWe2vEsV0Qg40uzpXAyM3P6x7XF1d99QcHf1/5OGN8xdbOuxMrpHNGs9jm6faff/oBpz1qA9MHSHZcAm9HZmg7X/DCZbtmhSvKcLeOEv9n6qlL24CiyyF6txcOagCDBds25FLVHKGrfhakbKYN9vYvZnc1a1hp0jwEZICFdadGACEEXA7oYd3SfupqorZpViIQ64c+yqYmBgoTQT46SOWfjoVM1gMsz1Ec37mM3k1Xoa5fF0l8LOul44kn2ZyC3zkdphOo3ISFeymnfhGf05G7p47cjVbHZG5IqW1Pt++sHtauvjduJR6+e0DZA==","691f8ca61c6b4dcbb0aeb5f4","691fc801f0414bb77fc353e3","index1","<span style='color:red'>Fail,<span style='color:red'>Fail,<span style='color:green'>Lift,<span style='color:green'>Lift,<span style='color:red'>Fail,<span style='color:red'>Fail,<span style='color:red'>Fail,<span style='color:red'>Fail,<span style='color:green'>Lift,<span style='color:red'>Fail,<span style='color:red'>Fail,<span style='color:green'>Lift","<span style='color:red'>Fail,<span style='color:red'>Fail,<span style='color:green'>Lift,<span style='color:green'>Lift,<span style='color:green'>Lift,<span style='color:green'>Lift,<span style='color:green'>Lift,<span style='color:red'>Fail,<span style='color:green'>Lift,<span style='color:green'>Lift,<span style='color:red'>Fail,<span style='color:green'>Lift","<span style='color:red'>Fail,<span style='color:green'>Lift,<span style='color:green'>Lift,<span style='color:red'>Fail,<span style='color:green'>Lift,<span style='color:green'>Lift","0,0,1,1,0,0,0,0,1,0,0,1","0,0,1,1,1,1,1,0,1,1,0,1","0,1,1,0,1,1",10,20,20,"","","","","{""box1"":""6"",""box2"":""6"",""box3"":""50"",""box4"":""50""}","",NA,2,"round3_lift",5,1,3,6,6,50,50,1,1,20,NA,NA,NA,NA,NA,NA,NA,NA,NA,NA,NA,NA,NA,NA,NA,NA,NA,NA,NA,NA,6,6,50,50,1,1,20,NA,NA,NA,"",NA,NA,NA,NA,NA,NA,NA,NA,2025-11-21 02:41:23
"null","https://psyc-201.github.io/xiang2023/exp/index1.html?PROLIFIC_PID=REDACTED&STUDY_ID=691f8ca61c6b4dcbb0aeb5f4&SESSION_ID=691fc801f0414bb77fc353e3","html-keyboard-response",17,1825609,"0.0-316.0","DEdEyO3cAZOc9FwAQ8ebzI1ZFNLZWe2vEsV0Qg40uzpXAyM3P6x7XF1d99QcHf1/5OGN8xdbOuxMrpHNGs9jm6faff/oBpz1qA9MHSHZcAm9HZmg7X/DCZbtmhSvKcLeOEv9n6qlL24CiyyF6txcOagCDBds25FLVHKGrfhakbKYN9vYvZnc1a1hp0jwEZICFdadGACEEXA7oYd3SfupqorZpViIQ64c+yqYmBgoTQT46SOWfjoVM1gMsz1Ec37mM3k1Xoa5fF0l8LOul44kn2ZyC3zkdphOo3ISFeymnfhGf05G7p47cjVbHZG5IqW1Pt++sHtauvjduJR6+e0DZA==","691f8ca61c6b4dcbb0aeb5f4","691fc801f0414bb77fc353e3","index1","<span style='color:red'>Fail,<span style='color:red'>Fail,<span style='color:green'>Lift,<span style='color:green'>Lift,<span style='color:red'>Fail,<span style='color:red'>Fail,<span style='color:red'>Fail,<span style='color:red'>Fail,<span style='color:green'>Lift,<span style='color:red'>Fail,<span style='color:red'>Fail,<span style='color:green'>Lift","<span style='color:red'>Fail,<span style='color:red'>Fail,<span style='color:green'>Lift,<span style='color:green'>Lift,<span style='color:green'>Lift,<span style='color:green'>Lift,<span style='color:green'>Lift,<span style='color:red'>Fail,<span style='color:green'>Lift,<span style='color:green'>Lift,<span style='color:red'>Fail,<span style='color:green'>Lift","<span style='color:red'>Fail,<span style='color:green'>Lift,<span style='color:green'>Lift,<span style='color:red'>Fail,<span style='color:green'>Lift,<span style='color:green'>Lift","0,0,1,1,0,0,0,0,1,0,0,1","0,0,1,1,1,1,1,0,1,1,0,1","0,1,1,0,1,1",10,20,20,"","","<p style='font-size:30px'><b> New Contest! </b></p>","null","","",NA,2,"",NA,NA,NA,NA,NA,NA,NA,NA,NA,NA,NA,NA,NA,NA,NA,NA,NA,NA,NA,NA,NA,NA,NA,NA,NA,NA,NA,NA,NA,NA,NA,NA,NA,NA,NA,NA,NA,NA,NA,NA,"",NA,NA,NA,NA,NA,NA,NA,NA,2025-11-21 02:41:23
"12529.799999952316","https://psyc-201.github.io/xiang2023/exp/index1.html?PROLIFIC_PID=REDACTED&STUDY_ID=691f8ca61c6b4dcbb0aeb5f4&SESSION_ID=691fc801f0414bb77fc353e3","survey-html-form",18,1838141,"0.0-317.0","DEdEyO3cAZOc9FwAQ8ebzI1ZFNLZWe2vEsV0Qg40uzpXAyM3P6x7XF1d99QcHf1/5OGN8xdbOuxMrpHNGs9jm6faff/oBpz1qA9MHSHZcAm9HZmg7X/DCZbtmhSvKcLeOEv9n6qlL24CiyyF6txcOagCDBds25FLVHKGrfhakbKYN9vYvZnc1a1hp0jwEZICFdadGACEEXA7oYd3SfupqorZpViIQ64c+yqYmBgoTQT46SOWfjoVM1gMsz1Ec37mM3k1Xoa5fF0l8LOul44kn2ZyC3zkdphOo3ISFeymnfhGf05G7p47cjVbHZG5IqW1Pt++sHtauvjduJR6+e0DZA==","691f8ca61c6b4dcbb0aeb5f4","691fc801f0414bb77fc353e3","index1","<span style='color:red'>Fail,<span style='color:red'>Fail,<span style='color:green'>Lift,<span style='color:green'>Lift,<span style='color:red'>Fail,<span style='color:red'>Fail,<span style='color:red'>Fail,<span style='color:red'>Fail,<span style='color:green'>Lift,<span style='color:red'>Fail,<span style='color:red'>Fail,<span style='color:green'>Lift","<span style='color:red'>Fail,<span style='color:red'>Fail,<span style='color:green'>Lift,<span style='color:green'>Lift,<span style='color:green'>Lift,<span style='color:green'>Lift,<span style='color:green'>Lift,<span style='color:red'>Fail,<span style='color:green'>Lift,<span style='color:green'>Lift,<span style='color:red'>Fail,<span style='color:green'>Lift","<span style='color:red'>Fail,<span style='color:green'>Lift,<span style='color:green'>Lift,<span style='color:red'>Fail,<span style='color:green'>Lift,<span style='color:green'>Lift","0,0,1,1,0,0,0,0,1,0,0,1","0,0,1,1,1,1,1,0,1,1,0,1","0,1,1,0,1,1",10,20,20,"","","","","{""box1"":""6"",""box2"":""6""}","",NA,2,"round1_outcome",1,2,1,6,6,NA,NA,0,0,10,6,6,NA,NA,0,0,10,NA,NA,NA,NA,NA,NA,NA,NA,NA,NA,NA,NA,NA,NA,NA,NA,NA,NA,NA,NA,NA,NA,NA,"",NA,NA,NA,NA,NA,NA,NA,NA,2025-11-21 02:41:23
"12809.400000095367","https://psyc-201.github.io/xiang2023/exp/index1.html?PROLIFIC_PID=REDACTED&STUDY_ID=691f8ca61c6b4dcbb0aeb5f4&SESSION_ID=691fc801f0414bb77fc353e3","survey-html-form",19,1850953,"0.0-318.0","DEdEyO3cAZOc9FwAQ8ebzI1ZFNLZWe2vEsV0Qg40uzpXAyM3P6x7XF1d99QcHf1/5OGN8xdbOuxMrpHNGs9jm6faff/oBpz1qA9MHSHZcAm9HZmg7X/DCZbtmhSvKcLeOEv9n6qlL24CiyyF6txcOagCDBds25FLVHKGrfhakbKYN9vYvZnc1a1hp0jwEZICFdadGACEEXA7oYd3SfupqorZpViIQ64c+yqYmBgoTQT46SOWfjoVM1gMsz1Ec37mM3k1Xoa5fF0l8LOul44kn2ZyC3zkdphOo3ISFeymnfhGf05G7p47cjVbHZG5IqW1Pt++sHtauvjduJR6+e0DZA==","691f8ca61c6b4dcbb0aeb5f4","691fc801f0414bb77fc353e3","index1","<span style='color:red'>Fail,<span style='color:red'>Fail,<span style='color:green'>Lift,<span style='color:green'>Lift,<span style='color:red'>Fail,<span style='color:red'>Fail,<span style='color:red'>Fail,<span style='color:red'>Fail,<span style='color:green'>Lift,<span style='color:red'>Fail,<span style='color:red'>Fail,<span style='color:green'>Lift","<span style='color:red'>Fail,<span style='color:red'>Fail,<span style='color:green'>Lift,<span style='color:green'>Lift,<span style='color:green'>Lift,<span style='color:green'>Lift,<span style='color:green'>Lift,<span style='color:red'>Fail,<span style='color:green'>Lift,<span style='color:green'>Lift,<span style='color:red'>Fail,<span style='color:green'>Lift","<span style='color:red'>Fail,<span style='color:green'>Lift,<span style='color:green'>Lift,<span style='color:red'>Fail,<span style='color:green'>Lift,<span style='color:green'>Lift","0,0,1,1,0,0,0,0,1,0,0,1","0,0,1,1,1,1,1,0,1,1,0,1","0,1,1,0,1,1",10,20,20,"","","","","{""box1"":""55"",""box2"":""55""}","",NA,2,"round2_ready",2,2,2,NA,NA,NA,NA,NA,NA,NA,NA,NA,NA,NA,NA,NA,NA,55,55,55,55,NA,NA,NA,NA,NA,NA,NA,NA,NA,NA,NA,NA,NA,NA,NA,NA,NA,NA,NA,"",NA,NA,NA,NA,NA,NA,NA,NA,2025-11-21 02:41:23
"25865.799999952316","https://psyc-201.github.io/xiang2023/exp/index1.html?PROLIFIC_PID=REDACTED&STUDY_ID=691f8ca61c6b4dcbb0aeb5f4&SESSION_ID=691fc801f0414bb77fc353e3","survey-html-form",20,1876823,"0.0-319.0","DEdEyO3cAZOc9FwAQ8ebzI1ZFNLZWe2vEsV0Qg40uzpXAyM3P6x7XF1d99QcHf1/5OGN8xdbOuxMrpHNGs9jm6faff/oBpz1qA9MHSHZcAm9HZmg7X/DCZbtmhSvKcLeOEv9n6qlL24CiyyF6txcOagCDBds25FLVHKGrfhakbKYN9vYvZnc1a1hp0jwEZICFdadGACEEXA7oYd3SfupqorZpViIQ64c+yqYmBgoTQT46SOWfjoVM1gMsz1Ec37mM3k1Xoa5fF0l8LOul44kn2ZyC3zkdphOo3ISFeymnfhGf05G7p47cjVbHZG5IqW1Pt++sHtauvjduJR6+e0DZA==","691f8ca61c6b4dcbb0aeb5f4","691fc801f0414bb77fc353e3","index1","<span style='color:red'>Fail,<span style='color:red'>Fail,<span style='color:green'>Lift,<span style='color:green'>Lift,<span style='color:red'>Fail,<span style='color:red'>Fail,<span style='color:red'>Fail,<span style='color:red'>Fail,<span style='color:green'>Lift,<span style='color:red'>Fail,<span style='color:red'>Fail,<span style='color:green'>Lift","<span style='color:red'>Fail,<span style='color:red'>Fail,<span style='color:green'>Lift,<span style='color:green'>Lift,<span style='color:green'>Lift,<span style='color:green'>Lift,<span style='color:green'>Lift,<span style='color:red'>Fail,<span style='color:green'>Lift,<span style='color:green'>Lift,<span style='color:red'>Fail,<span style='color:green'>Lift","<span style='color:red'>Fail,<span style='color:green'>Lift,<span style='color:green'>Lift,<span style='color:red'>Fail,<span style='color:green'>Lift,<span style='color:green'>Lift","0,0,1,1,0,0,0,0,1,0,0,1","0,0,1,1,1,1,1,0,1,1,0,1","0,1,1,0,1,1",10,20,20,"","","","","{""box1"":""7"",""box2"":""5"",""box3"":""75""}","",NA,2,"round2_outcome",3,2,2,7,5,75,NA,1,0,20,NA,NA,NA,NA,NA,NA,NA,NA,NA,NA,NA,7,5,75,NA,1,0,20,NA,NA,NA,NA,NA,NA,NA,NA,NA,NA,NA,NA,"",NA,NA,NA,NA,NA,NA,NA,NA,2025-11-21 02:41:23
"7022.400000095367","https://psyc-201.github.io/xiang2023/exp/index1.html?PROLIFIC_PID=REDACTED&STUDY_ID=691f8ca61c6b4dcbb0aeb5f4&SESSION_ID=691fc801f0414bb77fc353e3","survey-html-form",21,1883848,"0.0-320.0","DEdEyO3cAZOc9FwAQ8ebzI1ZFNLZWe2vEsV0Qg40uzpXAyM3P6x7XF1d99QcHf1/5OGN8xdbOuxMrpHNGs9jm6faff/oBpz1qA9MHSHZcAm9HZmg7X/DCZbtmhSvKcLeOEv9n6qlL24CiyyF6txcOagCDBds25FLVHKGrfhakbKYN9vYvZnc1a1hp0jwEZICFdadGACEEXA7oYd3SfupqorZpViIQ64c+yqYmBgoTQT46SOWfjoVM1gMsz1Ec37mM3k1Xoa5fF0l8LOul44kn2ZyC3zkdphOo3ISFeymnfhGf05G7p47cjVbHZG5IqW1Pt++sHtauvjduJR6+e0DZA==","691f8ca61c6b4dcbb0aeb5f4","691fc801f0414bb77fc353e3","index1","<span style='color:red'>Fail,<span style='color:red'>Fail,<span style='color:green'>Lift,<span style='color:green'>Lift,<span style='color:red'>Fail,<span style='color:red'>Fail,<span style='color:red'>Fail,<span style='color:red'>Fail,<span style='color:green'>Lift,<span style='color:red'>Fail,<span style='color:red'>Fail,<span style='color:green'>Lift","<span style='color:red'>Fail,<span style='color:red'>Fail,<span style='color:green'>Lift,<span style='color:green'>Lift,<span style='color:green'>Lift,<span style='color:green'>Lift,<span style='color:green'>Lift,<span style='color:red'>Fail,<span style='color:green'>Lift,<span style='color:green'>Lift,<span style='color:red'>Fail,<span style='color:green'>Lift","<span style='color:red'>Fail,<span style='color:green'>Lift,<span style='color:green'>Lift,<span style='color:red'>Fail,<span style='color:green'>Lift,<span style='color:green'>Lift","0,0,1,1,0,0,0,0,1,0,0,1","0,0,1,1,1,1,1,0,1,1,0,1","0,1,1,0,1,1",10,20,20,"","","","","{""box1"":""75""}","",NA,2,"round3_ready",4,2,3,NA,NA,NA,NA,NA,NA,NA,NA,NA,NA,NA,NA,NA,NA,75,75,NA,NA,NA,NA,NA,NA,NA,NA,NA,75,75,NA,NA,NA,NA,NA,NA,NA,NA,NA,NA,"",NA,NA,NA,NA,NA,NA,NA,NA,2025-11-21 02:41:23
"13189.799999952316","https://psyc-201.github.io/xiang2023/exp/index1.html?PROLIFIC_PID=REDACTED&STUDY_ID=691f8ca61c6b4dcbb0aeb5f4&SESSION_ID=691fc801f0414bb77fc353e3","survey-html-form",22,1897043,"0.0-322.0-0.0","DEdEyO3cAZOc9FwAQ8ebzI1ZFNLZWe2vEsV0Qg40uzpXAyM3P6x7XF1d99QcHf1/5OGN8xdbOuxMrpHNGs9jm6faff/oBpz1qA9MHSHZcAm9HZmg7X/DCZbtmhSvKcLeOEv9n6qlL24CiyyF6txcOagCDBds25FLVHKGrfhakbKYN9vYvZnc1a1hp0jwEZICFdadGACEEXA7oYd3SfupqorZpViIQ64c+yqYmBgoTQT46SOWfjoVM1gMsz1Ec37mM3k1Xoa5fF0l8LOul44kn2ZyC3zkdphOo3ISFeymnfhGf05G7p47cjVbHZG5IqW1Pt++sHtauvjduJR6+e0DZA==","691f8ca61c6b4dcbb0aeb5f4","691fc801f0414bb77fc353e3","index1","<span style='color:red'>Fail,<span style='color:red'>Fail,<span style='color:green'>Lift,<span style='color:green'>Lift,<span style='color:red'>Fail,<span style='color:red'>Fail,<span style='color:red'>Fail,<span style='color:red'>Fail,<span style='color:green'>Lift,<span style='color:red'>Fail,<span style='color:red'>Fail,<span style='color:green'>Lift","<span style='color:red'>Fail,<span style='color:red'>Fail,<span style='color:green'>Lift,<span style='color:green'>Lift,<span style='color:green'>Lift,<span style='color:green'>Lift,<span style='color:green'>Lift,<span style='color:red'>Fail,<span style='color:green'>Lift,<span style='color:green'>Lift,<span style='color:red'>Fail,<span style='color:green'>Lift","<span style='color:red'>Fail,<span style='color:green'>Lift,<span style='color:green'>Lift,<span style='color:red'>Fail,<span style='color:green'>Lift,<span style='color:green'>Lift","0,0,1,1,0,0,0,0,1,0,0,1","0,0,1,1,1,1,1,0,1,1,0,1","0,1,1,0,1,1",10,20,20,"","","","","{""box1"":""5"",""box2"":""5"",""box3"":""60"",""box4"":""60""}","",NA,2,"round3_fail",5,2,3,5,5,NA,NA,0,0,20,NA,NA,NA,NA,NA,NA,NA,NA,NA,NA,NA,NA,NA,NA,NA,NA,NA,NA,NA,NA,5,5,NA,NA,0,0,20,0,1,NA,"",NA,NA,NA,NA,NA,NA,NA,NA,2025-11-21 02:41:23
"null","https://psyc-201.github.io/xiang2023/exp/index1.html?PROLIFIC_PID=REDACTED&STUDY_ID=691f8ca61c6b4dcbb0aeb5f4&SESSION_ID=691fc801f0414bb77fc353e3","html-keyboard-response",23,1902047,"0.0-323.0-0.0","DEdEyO3cAZOc9FwAQ8ebzI1ZFNLZWe2vEsV0Qg40uzpXAyM3P6x7XF1d99QcHf1/5OGN8xdbOuxMrpHNGs9jm6faff/oBpz1qA9MHSHZcAm9HZmg7X/DCZbtmhSvKcLeOEv9n6qlL24CiyyF6txcOagCDBds25FLVHKGrfhakbKYN9vYvZnc1a1hp0jwEZICFdadGACEEXA7oYd3SfupqorZpViIQ64c+yqYmBgoTQT46SOWfjoVM1gMsz1Ec37mM3k1Xoa5fF0l8LOul44kn2ZyC3zkdphOo3ISFeymnfhGf05G7p47cjVbHZG5IqW1Pt++sHtauvjduJR6+e0DZA==","691f8ca61c6b4dcbb0aeb5f4","691fc801f0414bb77fc353e3","index1","<span style='color:red'>Fail,<span style='color:red'>Fail,<span style='color:green'>Lift,<span style='color:green'>Lift,<span style='color:red'>Fail,<span style='color:red'>Fail,<span style='color:red'>Fail,<span style='color:red'>Fail,<span style='color:green'>Lift,<span style='color:red'>Fail,<span style='color:red'>Fail,<span style='color:green'>Lift","<span style='color:red'>Fail,<span style='color:red'>Fail,<span style='color:green'>Lift,<span style='color:green'>Lift,<span style='color:green'>Lift,<span style='color:green'>Lift,<span style='color:green'>Lift,<span style='color:red'>Fail,<span style='color:green'>Lift,<span style='color:green'>Lift,<span style='color:red'>Fail,<span style='color:green'>Lift","<span style='color:red'>Fail,<span style='color:green'>Lift,<span style='color:green'>Lift,<span style='color:red'>Fail,<span style='color:green'>Lift,<span style='color:green'>Lift","0,0,1,1,0,0,0,0,1,0,0,1","0,0,1,1,1,1,1,0,1,1,0,1","0,1,1,0,1,1",10,20,20,"","","<p> <b>Oops you failed an attention check!</b> </p><p> <b>We will have to discard your data if you fail another one.</b> </p><p> <b>Please pay more attention!</b> </p>","null","","",NA,3,"warning",NA,NA,NA,NA,NA,NA,NA,NA,NA,NA,NA,NA,NA,NA,NA,NA,NA,NA,NA,NA,NA,NA,NA,NA,NA,NA,NA,NA,NA,NA,NA,NA,NA,NA,NA,NA,NA,NA,NA,1,"",NA,NA,NA,NA,NA,NA,NA,NA,2025-11-21 02:41:23
"null","https://psyc-201.github.io/xiang2023/exp/index1.html?PROLIFIC_PID=REDACTED&STUDY_ID=691f8ca61c6b4dcbb0aeb5f4&SESSION_ID=691fc801f0414bb77fc353e3","html-keyboard-response",24,1905050,"0.0-325.0","DEdEyO3cAZOc9FwAQ8ebzI1ZFNLZWe2vEsV0Qg40uzpXAyM3P6x7XF1d99QcHf1/5OGN8xdbOuxMrpHNGs9jm6faff/oBpz1qA9MHSHZcAm9HZmg7X/DCZbtmhSvKcLeOEv9n6qlL24CiyyF6txcOagCDBds25FLVHKGrfhakbKYN9vYvZnc1a1hp0jwEZICFdadGACEEXA7oYd3SfupqorZpViIQ64c+yqYmBgoTQT46SOWfjoVM1gMsz1Ec37mM3k1Xoa5fF0l8LOul44kn2ZyC3zkdphOo3ISFeymnfhGf05G7p47cjVbHZG5IqW1Pt++sHtauvjduJR6+e0DZA==","691f8ca61c6b4dcbb0aeb5f4","691fc801f0414bb77fc353e3","index1","<span style='color:red'>Fail,<span style='color:red'>Fail,<span style='color:green'>Lift,<span style='color:green'>Lift,<span style='color:red'>Fail,<span style='color:red'>Fail,<span style='color:red'>Fail,<span style='color:red'>Fail,<span style='color:green'>Lift,<span style='color:red'>Fail,<span style='color:red'>Fail,<span style='color:green'>Lift","<span style='color:red'>Fail,<span style='color:red'>Fail,<span style='color:green'>Lift,<span style='color:green'>Lift,<span style='color:green'>Lift,<span style='color:green'>Lift,<span style='color:green'>Lift,<span style='color:red'>Fail,<span style='color:green'>Lift,<span style='color:green'>Lift,<span style='color:red'>Fail,<span style='color:green'>Lift","<span style='color:red'>Fail,<span style='color:green'>Lift,<span style='color:green'>Lift,<span style='color:red'>Fail,<span style='color:green'>Lift,<span style='color:green'>Lift","0,0,1,1,0,0,0,0,1,0,0,1","0,0,1,1,1,1,1,0,1,1,0,1","0,1,1,0,1,1",10,20,20,"","","<p style='font-size:30px'><b> New Contest! </b></p>","null","","",NA,3,"",NA,NA,NA,NA,NA,NA,NA,NA,NA,NA,NA,NA,NA,NA,NA,NA,NA,NA,NA,NA,NA,NA,NA,NA,NA,NA,NA,NA,NA,NA,NA,NA,NA,NA,NA,NA,NA,NA,NA,NA,"",NA,NA,NA,NA,NA,NA,NA,NA,2025-11-21 02:41:23
"20762.5","https://psyc-201.github.io/xiang2023/exp/index1.html?PROLIFIC_PID=REDACTED&STUDY_ID=691f8ca61c6b4dcbb0aeb5f4&SESSION_ID=691fc801f0414bb77fc353e3","survey-html-form",25,1925815,"0.0-326.0","DEdEyO3cAZOc9FwAQ8ebzI1ZFNLZWe2vEsV0Qg40uzpXAyM3P6x7XF1d99QcHf1/5OGN8xdbOuxMrpHNGs9jm6faff/oBpz1qA9MHSHZcAm9HZmg7X/DCZbtmhSvKcLeOEv9n6qlL24CiyyF6txcOagCDBds25FLVHKGrfhakbKYN9vYvZnc1a1hp0jwEZICFdadGACEEXA7oYd3SfupqorZpViIQ64c+yqYmBgoTQT46SOWfjoVM1gMsz1Ec37mM3k1Xoa5fF0l8LOul44kn2ZyC3zkdphOo3ISFeymnfhGf05G7p47cjVbHZG5IqW1Pt++sHtauvjduJR6+e0DZA==","691f8ca61c6b4dcbb0aeb5f4","691fc801f0414bb77fc353e3","index1","<span style='color:red'>Fail,<span style='color:red'>Fail,<span style='color:green'>Lift,<span style='color:green'>Lift,<span style='color:red'>Fail,<span style='color:red'>Fail,<span style='color:red'>Fail,<span style='color:red'>Fail,<span style='color:green'>Lift,<span style='color:red'>Fail,<span style='color:red'>Fail,<span style='color:green'>Lift","<span style='color:red'>Fail,<span style='color:red'>Fail,<span style='color:green'>Lift,<span style='color:green'>Lift,<span style='color:green'>Lift,<span style='color:green'>Lift,<span style='color:green'>Lift,<span style='color:red'>Fail,<span style='color:green'>Lift,<span style='color:green'>Lift,<span style='color:red'>Fail,<span style='color:green'>Lift","<span style='color:red'>Fail,<span style='color:green'>Lift,<span style='color:green'>Lift,<span style='color:red'>Fail,<span style='color:green'>Lift,<span style='color:green'>Lift","0,0,1,1,0,0,0,0,1,0,0,1","0,0,1,1,1,1,1,0,1,1,0,1","0,1,1,0,1,1",10,20,20,"","","","","{""box1"":""5"",""box2"":""5""}","",NA,3,"round1_outcome",1,3,1,5,5,NA,NA,0,0,10,5,5,NA,NA,0,0,10,NA,NA,NA,NA,NA,NA,NA,NA,NA,NA,NA,NA,NA,NA,NA,NA,NA,NA,NA,NA,NA,NA,NA,"",NA,NA,NA,NA,NA,NA,NA,NA,2025-11-21 02:41:23
"16615.900000095367","https://psyc-201.github.io/xiang2023/exp/index1.html?PROLIFIC_PID=REDACTED&STUDY_ID=691f8ca61c6b4dcbb0aeb5f4&SESSION_ID=691fc801f0414bb77fc353e3","survey-html-form",26,1942436,"0.0-327.0","DEdEyO3cAZOc9FwAQ8ebzI1ZFNLZWe2vEsV0Qg40uzpXAyM3P6x7XF1d99QcHf1/5OGN8xdbOuxMrpHNGs9jm6faff/oBpz1qA9MHSHZcAm9HZmg7X/DCZbtmhSvKcLeOEv9n6qlL24CiyyF6txcOagCDBds25FLVHKGrfhakbKYN9vYvZnc1a1hp0jwEZICFdadGACEEXA7oYd3SfupqorZpViIQ64c+yqYmBgoTQT46SOWfjoVM1gMsz1Ec37mM3k1Xoa5fF0l8LOul44kn2ZyC3zkdphOo3ISFeymnfhGf05G7p47cjVbHZG5IqW1Pt++sHtauvjduJR6+e0DZA==","691f8ca61c6b4dcbb0aeb5f4","691fc801f0414bb77fc353e3","index1","<span style='color:red'>Fail,<span style='color:red'>Fail,<span style='color:green'>Lift,<span style='color:green'>Lift,<span style='color:red'>Fail,<span style='color:red'>Fail,<span style='color:red'>Fail,<span style='color:red'>Fail,<span style='color:green'>Lift,<span style='color:red'>Fail,<span style='color:red'>Fail,<span style='color:green'>Lift","<span style='color:red'>Fail,<span style='color:red'>Fail,<span style='color:green'>Lift,<span style='color:green'>Lift,<span style='color:green'>Lift,<span style='color:green'>Lift,<span style='color:green'>Lift,<span style='color:red'>Fail,<span style='color:green'>Lift,<span style='color:green'>Lift,<span style='color:red'>Fail,<span style='color:green'>Lift","<span style='color:red'>Fail,<span style='color:green'>Lift,<span style='color:green'>Lift,<span style='color:red'>Fail,<span style='color:green'>Lift,<span style='color:green'>Lift","0,0,1,1,0,0,0,0,1,0,0,1","0,0,1,1,1,1,1,0,1,1,0,1","0,1,1,0,1,1",10,20,20,"","","","","{""box1"":""50"",""box2"":""50""}","",NA,3,"round2_ready",2,3,2,NA,NA,NA,NA,NA,NA,NA,NA,NA,NA,NA,NA,NA,NA,50,50,50,50,NA,NA,NA,NA,NA,NA,NA,NA,NA,NA,NA,NA,NA,NA,NA,NA,NA,NA,NA,"",NA,NA,NA,NA,NA,NA,NA,NA,2025-11-21 02:41:23
"13430.200000047684","https://psyc-201.github.io/xiang2023/exp/index1.html?PROLIFIC_PID=REDACTED&STUDY_ID=691f8ca61c6b4dcbb0aeb5f4&SESSION_ID=691fc801f0414bb77fc353e3","survey-html-form",27,1955871,"0.0-328.0","DEdEyO3cAZOc9FwAQ8ebzI1ZFNLZWe2vEsV0Qg40uzpXAyM3P6x7XF1d99QcHf1/5OGN8xdbOuxMrpHNGs9jm6faff/oBpz1qA9MHSHZcAm9HZmg7X/DCZbtmhSvKcLeOEv9n6qlL24CiyyF6txcOagCDBds25FLVHKGrfhakbKYN9vYvZnc1a1hp0jwEZICFdadGACEEXA7oYd3SfupqorZpViIQ64c+yqYmBgoTQT46SOWfjoVM1gMsz1Ec37mM3k1Xoa5fF0l8LOul44kn2ZyC3zkdphOo3ISFeymnfhGf05G7p47cjVbHZG5IqW1Pt++sHtauvjduJR6+e0DZA==","691f8ca61c6b4dcbb0aeb5f4","691fc801f0414bb77fc353e3","index1","<span style='color:red'>Fail,<span style='color:red'>Fail,<span style='color:green'>Lift,<span style='color:green'>Lift,<span style='color:red'>Fail,<span style='color:red'>Fail,<span style='color:red'>Fail,<span style='color:red'>Fail,<span style='color:green'>Lift,<span style='color:red'>Fail,<span style='color:red'>Fail,<span style='color:green'>Lift","<span style='color:red'>Fail,<span style='color:red'>Fail,<span style='color:green'>Lift,<span style='color:green'>Lift,<span style='color:green'>Lift,<span style='color:green'>Lift,<span style='color:green'>Lift,<span style='color:red'>Fail,<span style='color:green'>Lift,<span style='color:green'>Lift,<span style='color:red'>Fail,<span style='color:green'>Lift","<span style='color:red'>Fail,<span style='color:green'>Lift,<span style='color:green'>Lift,<span style='color:red'>Fail,<span style='color:green'>Lift,<span style='color:green'>Lift","0,0,1,1,0,0,0,0,1,0,0,1","0,0,1,1,1,1,1,0,1,1,0,1","0,1,1,0,1,1",10,20,20,"","","","","{""box1"":""1"",""box2"":""1""}","",NA,3,"round2_outcome",3,3,2,1,1,NA,NA,0,0,20,NA,NA,NA,NA,NA,NA,NA,NA,NA,NA,NA,1,1,NA,NA,0,0,20,NA,NA,NA,NA,NA,NA,NA,NA,NA,NA,NA,NA,"",NA,NA,NA,NA,NA,NA,NA,NA,2025-11-21 02:41:23
"11224.5","https://psyc-201.github.io/xiang2023/exp/index1.html?PROLIFIC_PID=REDACTED&STUDY_ID=691f8ca61c6b4dcbb0aeb5f4&SESSION_ID=691fc801f0414bb77fc353e3","survey-html-form",28,1967100,"0.0-329.0","DEdEyO3cAZOc9FwAQ8ebzI1ZFNLZWe2vEsV0Qg40uzpXAyM3P6x7XF1d99QcHf1/5OGN8xdbOuxMrpHNGs9jm6faff/oBpz1qA9MHSHZcAm9HZmg7X/DCZbtmhSvKcLeOEv9n6qlL24CiyyF6txcOagCDBds25FLVHKGrfhakbKYN9vYvZnc1a1hp0jwEZICFdadGACEEXA7oYd3SfupqorZpViIQ64c+yqYmBgoTQT46SOWfjoVM1gMsz1Ec37mM3k1Xoa5fF0l8LOul44kn2ZyC3zkdphOo3ISFeymnfhGf05G7p47cjVbHZG5IqW1Pt++sHtauvjduJR6+e0DZA==","691f8ca61c6b4dcbb0aeb5f4","691fc801f0414bb77fc353e3","index1","<span style='color:red'>Fail,<span style='color:red'>Fail,<span style='color:green'>Lift,<span style='color:green'>Lift,<span style='color:red'>Fail,<span style='color:red'>Fail,<span style='color:red'>Fail,<span style='color:red'>Fail,<span style='color:green'>Lift,<span style='color:red'>Fail,<span style='color:red'>Fail,<span style='color:green'>Lift","<span style='color:red'>Fail,<span style='color:red'>Fail,<span style='color:green'>Lift,<span style='color:green'>Lift,<span style='color:green'>Lift,<span style='color:green'>Lift,<span style='color:green'>Lift,<span style='color:red'>Fail,<span style='color:green'>Lift,<span style='color:green'>Lift,<span style='color:red'>Fail,<span style='color:green'>Lift","<span style='color:red'>Fail,<span style='color:green'>Lift,<span style='color:green'>Lift,<span style='color:red'>Fail,<span style='color:green'>Lift,<span style='color:green'>Lift","0,0,1,1,0,0,0,0,1,0,0,1","0,0,1,1,1,1,1,0,1,1,0,1","0,1,1,0,1,1",10,20,20,"","","","","{""box1"":""1""}","",NA,3,"round3_ready",4,3,3,NA,NA,NA,NA,NA,NA,NA,NA,NA,NA,NA,NA,NA,NA,1,1,NA,NA,NA,NA,NA,NA,NA,NA,NA,1,1,NA,NA,NA,NA,NA,NA,NA,NA,NA,NA,"",NA,NA,NA,NA,NA,NA,NA,NA,2025-11-21 02:41:23
"43106","https://psyc-201.github.io/xiang2023/exp/index1.html?PROLIFIC_PID=REDACTED&STUDY_ID=691f8ca61c6b4dcbb0aeb5f4&SESSION_ID=691fc801f0414bb77fc353e3","survey-html-form",29,2010210,"0.0-331.0-0.0","DEdEyO3cAZOc9FwAQ8ebzI1ZFNLZWe2vEsV0Qg40uzpXAyM3P6x7XF1d99QcHf1/5OGN8xdbOuxMrpHNGs9jm6faff/oBpz1qA9MHSHZcAm9HZmg7X/DCZbtmhSvKcLeOEv9n6qlL24CiyyF6txcOagCDBds25FLVHKGrfhakbKYN9vYvZnc1a1hp0jwEZICFdadGACEEXA7oYd3SfupqorZpViIQ64c+yqYmBgoTQT46SOWfjoVM1gMsz1Ec37mM3k1Xoa5fF0l8LOul44kn2ZyC3zkdphOo3ISFeymnfhGf05G7p47cjVbHZG5IqW1Pt++sHtauvjduJR6+e0DZA==","691f8ca61c6b4dcbb0aeb5f4","691fc801f0414bb77fc353e3","index1","<span style='color:red'>Fail,<span style='color:red'>Fail,<span style='color:green'>Lift,<span style='color:green'>Lift,<span style='color:red'>Fail,<span style='color:red'>Fail,<span style='color:red'>Fail,<span style='color:red'>Fail,<span style='color:green'>Lift,<span style='color:red'>Fail,<span style='color:red'>Fail,<span style='color:green'>Lift","<span style='color:red'>Fail,<span style='color:red'>Fail,<span style='color:green'>Lift,<span style='color:green'>Lift,<span style='color:green'>Lift,<span style='color:green'>Lift,<span style='color:green'>Lift,<span style='color:red'>Fail,<span style='color:green'>Lift,<span style='color:green'>Lift,<span style='color:red'>Fail,<span style='color:green'>Lift","<span style='color:red'>Fail,<span style='color:green'>Lift,<span style='color:green'>Lift,<span style='color:red'>Fail,<span style='color:green'>Lift,<span style='color:green'>Lift","0,0,1,1,0,0,0,0,1,0,0,1","0,0,1,1,1,1,1,0,1,1,0,1","0,1,1,0,1,1",10,20,20,"","","","","{""box1"":""1"",""box2"":""1"",""box3"":""999"",""box4"":""999""}","",NA,4,"round3_fail",5,3,3,1,1,NA,NA,0,0,20,NA,NA,NA,NA,NA,NA,NA,NA,NA,NA,NA,NA,NA,NA,NA,NA,NA,NA,NA,NA,1,1,NA,NA,0,0,20,1,1,NA,"",NA,NA,NA,NA,NA,NA,NA,NA,2025-11-21 02:41:23
"null","https://psyc-201.github.io/xiang2023/exp/index1.html?PROLIFIC_PID=REDACTED&STUDY_ID=691f8ca61c6b4dcbb0aeb5f4&SESSION_ID=691fc801f0414bb77fc353e3","html-keyboard-response",30,2013216,"0.0-334.0","DEdEyO3cAZOc9FwAQ8ebzI1ZFNLZWe2vEsV0Qg40uzpXAyM3P6x7XF1d99QcHf1/5OGN8xdbOuxMrpHNGs9jm6faff/oBpz1qA9MHSHZcAm9HZmg7X/DCZbtmhSvKcLeOEv9n6qlL24CiyyF6txcOagCDBds25FLVHKGrfhakbKYN9vYvZnc1a1hp0jwEZICFdadGACEEXA7oYd3SfupqorZpViIQ64c+yqYmBgoTQT46SOWfjoVM1gMsz1Ec37mM3k1Xoa5fF0l8LOul44kn2ZyC3zkdphOo3ISFeymnfhGf05G7p47cjVbHZG5IqW1Pt++sHtauvjduJR6+e0DZA==","691f8ca61c6b4dcbb0aeb5f4","691fc801f0414bb77fc353e3","index1","<span style='color:red'>Fail,<span style='color:red'>Fail,<span style='color:green'>Lift,<span style='color:green'>Lift,<span style='color:red'>Fail,<span style='color:red'>Fail,<span style='color:red'>Fail,<span style='color:red'>Fail,<span style='color:green'>Lift,<span style='color:red'>Fail,<span style='color:red'>Fail,<span style='color:green'>Lift","<span style='color:red'>Fail,<span style='color:red'>Fail,<span style='color:green'>Lift,<span style='color:green'>Lift,<span style='color:green'>Lift,<span style='color:green'>Lift,<span style='color:green'>Lift,<span style='color:red'>Fail,<span style='color:green'>Lift,<span style='color:green'>Lift,<span style='color:red'>Fail,<span style='color:green'>Lift","<span style='color:red'>Fail,<span style='color:green'>Lift,<span style='color:green'>Lift,<span style='color:red'>Fail,<span style='color:green'>Lift,<span style='color:green'>Lift","0,0,1,1,0,0,0,0,1,0,0,1","0,0,1,1,1,1,1,0,1,1,0,1","0,1,1,0,1,1",10,20,20,"","","<p style='font-size:30px'><b> New Contest! </b></p>","null","","",NA,4,"",NA,NA,NA,NA,NA,NA,NA,NA,NA,NA,NA,NA,NA,NA,NA,NA,NA,NA,NA,NA,NA,NA,NA,NA,NA,NA,NA,NA,NA,NA,NA,NA,NA,NA,NA,NA,NA,NA,NA,NA,"",NA,NA,NA,NA,NA,NA,NA,NA,2025-11-21 02:41:23
"28035.099999904633","https://psyc-201.github.io/xiang2023/exp/index1.html?PROLIFIC_PID=REDACTED&STUDY_ID=691f8ca61c6b4dcbb0aeb5f4&SESSION_ID=691fc801f0414bb77fc353e3","survey-html-form",31,2041254,"0.0-335.0","DEdEyO3cAZOc9FwAQ8ebzI1ZFNLZWe2vEsV0Qg40uzpXAyM3P6x7XF1d99QcHf1/5OGN8xdbOuxMrpHNGs9jm6faff/oBpz1qA9MHSHZcAm9HZmg7X/DCZbtmhSvKcLeOEv9n6qlL24CiyyF6txcOagCDBds25FLVHKGrfhakbKYN9vYvZnc1a1hp0jwEZICFdadGACEEXA7oYd3SfupqorZpViIQ64c+yqYmBgoTQT46SOWfjoVM1gMsz1Ec37mM3k1Xoa5fF0l8LOul44kn2ZyC3zkdphOo3ISFeymnfhGf05G7p47cjVbHZG5IqW1Pt++sHtauvjduJR6+e0DZA==","691f8ca61c6b4dcbb0aeb5f4","691fc801f0414bb77fc353e3","index1","<span style='color:red'>Fail,<span style='color:red'>Fail,<span style='color:green'>Lift,<span style='color:green'>Lift,<span style='color:red'>Fail,<span style='color:red'>Fail,<span style='color:red'>Fail,<span style='color:red'>Fail,<span style='color:green'>Lift,<span style='color:red'>Fail,<span style='color:red'>Fail,<span style='color:green'>Lift","<span style='color:red'>Fail,<span style='color:red'>Fail,<span style='color:green'>Lift,<span style='color:green'>Lift,<span style='color:green'>Lift,<span style='color:green'>Lift,<span style='color:green'>Lift,<span style='color:red'>Fail,<span style='color:green'>Lift,<span style='color:green'>Lift,<span style='color:red'>Fail,<span style='color:green'>Lift","<span style='color:red'>Fail,<span style='color:green'>Lift,<span style='color:green'>Lift,<span style='color:red'>Fail,<span style='color:green'>Lift,<span style='color:green'>Lift","0,0,1,1,0,0,0,0,1,0,0,1","0,0,1,1,1,1,1,0,1,1,0,1","0,1,1,0,1,1",10,20,20,"","","","","{""box1"":""6"",""box2"":""5"",""box3"":""90""}","",NA,4,"round1_outcome",1,4,1,6,5,90,NA,1,0,10,6,5,90,NA,1,0,10,NA,NA,NA,NA,NA,NA,NA,NA,NA,NA,NA,NA,NA,NA,NA,NA,NA,NA,NA,NA,NA,NA,NA,"",NA,NA,NA,NA,NA,NA,NA,NA,2025-11-21 02:41:23
"14756.5","https://psyc-201.github.io/xiang2023/exp/index1.html?PROLIFIC_PID=REDACTED&STUDY_ID=691f8ca61c6b4dcbb0aeb5f4&SESSION_ID=691fc801f0414bb77fc353e3","survey-html-form",32,2056013,"0.0-336.0","DEdEyO3cAZOc9FwAQ8ebzI1ZFNLZWe2vEsV0Qg40uzpXAyM3P6x7XF1d99QcHf1/5OGN8xdbOuxMrpHNGs9jm6faff/oBpz1qA9MHSHZcAm9HZmg7X/DCZbtmhSvKcLeOEv9n6qlL24CiyyF6txcOagCDBds25FLVHKGrfhakbKYN9vYvZnc1a1hp0jwEZICFdadGACEEXA7oYd3SfupqorZpViIQ64c+yqYmBgoTQT46SOWfjoVM1gMsz1Ec37mM3k1Xoa5fF0l8LOul44kn2ZyC3zkdphOo3ISFeymnfhGf05G7p47cjVbHZG5IqW1Pt++sHtauvjduJR6+e0DZA==","691f8ca61c6b4dcbb0aeb5f4","691fc801f0414bb77fc353e3","index1","<span style='color:red'>Fail,<span style='color:red'>Fail,<span style='color:green'>Lift,<span style='color:green'>Lift,<span style='color:red'>Fail,<span style='color:red'>Fail,<span style='color:red'>Fail,<span style='color:red'>Fail,<span style='color:green'>Lift,<span style='color:red'>Fail,<span style='color:red'>Fail,<span style='color:green'>Lift","<span style='color:red'>Fail,<span style='color:red'>Fail,<span style='color:green'>Lift,<span style='color:green'>Lift,<span style='color:green'>Lift,<span style='color:green'>Lift,<span style='color:green'>Lift,<span style='color:red'>Fail,<span style='color:green'>Lift,<span style='color:green'>Lift,<span style='color:red'>Fail,<span style='color:green'>Lift","<span style='color:red'>Fail,<span style='color:green'>Lift,<span style='color:green'>Lift,<span style='color:red'>Fail,<span style='color:green'>Lift,<span style='color:green'>Lift","0,0,1,1,0,0,0,0,1,0,0,1","0,0,1,1,1,1,1,0,1,1,0,1","0,1,1,0,1,1",10,20,20,"","","","","{""box1"":""75"",""box2"":""75""}","",NA,4,"round2_ready",2,4,2,NA,NA,NA,NA,NA,NA,NA,NA,NA,NA,NA,NA,NA,NA,75,75,75,75,NA,NA,NA,NA,NA,NA,NA,NA,NA,NA,NA,NA,NA,NA,NA,NA,NA,NA,NA,"",NA,NA,NA,NA,NA,NA,NA,NA,2025-11-21 02:41:23
"20131.800000190735","https://psyc-201.github.io/xiang2023/exp/index1.html?PROLIFIC_PID=REDACTED&STUDY_ID=691f8ca61c6b4dcbb0aeb5f4&SESSION_ID=691fc801f0414bb77fc353e3","survey-html-form",33,2076149,"0.0-337.0","DEdEyO3cAZOc9FwAQ8ebzI1ZFNLZWe2vEsV0Qg40uzpXAyM3P6x7XF1d99QcHf1/5OGN8xdbOuxMrpHNGs9jm6faff/oBpz1qA9MHSHZcAm9HZmg7X/DCZbtmhSvKcLeOEv9n6qlL24CiyyF6txcOagCDBds25FLVHKGrfhakbKYN9vYvZnc1a1hp0jwEZICFdadGACEEXA7oYd3SfupqorZpViIQ64c+yqYmBgoTQT46SOWfjoVM1gMsz1Ec37mM3k1Xoa5fF0l8LOul44kn2ZyC3zkdphOo3ISFeymnfhGf05G7p47cjVbHZG5IqW1Pt++sHtauvjduJR6+e0DZA==","691f8ca61c6b4dcbb0aeb5f4","691fc801f0414bb77fc353e3","index1","<span style='color:red'>Fail,<span style='color:red'>Fail,<span style='color:green'>Lift,<span style='color:green'>Lift,<span style='color:red'>Fail,<span style='color:red'>Fail,<span style='color:red'>Fail,<span style='color:red'>Fail,<span style='color:green'>Lift,<span style='color:red'>Fail,<span style='color:red'>Fail,<span style='color:green'>Lift","<span style='color:red'>Fail,<span style='color:red'>Fail,<span style='color:green'>Lift,<span style='color:green'>Lift,<span style='color:green'>Lift,<span style='color:green'>Lift,<span style='color:green'>Lift,<span style='color:red'>Fail,<span style='color:green'>Lift,<span style='color:green'>Lift,<span style='color:red'>Fail,<span style='color:green'>Lift","<span style='color:red'>Fail,<span style='color:green'>Lift,<span style='color:green'>Lift,<span style='color:red'>Fail,<span style='color:green'>Lift,<span style='color:green'>Lift","0,0,1,1,0,0,0,0,1,0,0,1","0,0,1,1,1,1,1,0,1,1,0,1","0,1,1,0,1,1",10,20,20,"","","","","{""box1"":""7"",""box2"":""7"",""box3"":""75"",""box4"":""75""}","",NA,4,"round2_outcome",3,4,2,7,7,75,75,1,1,20,NA,NA,NA,NA,NA,NA,NA,NA,NA,NA,NA,7,7,75,75,1,1,20,NA,NA,NA,NA,NA,NA,NA,NA,NA,NA,NA,NA,"",NA,NA,NA,NA,NA,NA,NA,NA,2025-11-21 02:41:23
"7326.100000143051","https://psyc-201.github.io/xiang2023/exp/index1.html?PROLIFIC_PID=REDACTED&STUDY_ID=691f8ca61c6b4dcbb0aeb5f4&SESSION_ID=691fc801f0414bb77fc353e3","survey-html-form",34,2083479,"0.0-338.0","DEdEyO3cAZOc9FwAQ8ebzI1ZFNLZWe2vEsV0Qg40uzpXAyM3P6x7XF1d99QcHf1/5OGN8xdbOuxMrpHNGs9jm6faff/oBpz1qA9MHSHZcAm9HZmg7X/DCZbtmhSvKcLeOEv9n6qlL24CiyyF6txcOagCDBds25FLVHKGrfhakbKYN9vYvZnc1a1hp0jwEZICFdadGACEEXA7oYd3SfupqorZpViIQ64c+yqYmBgoTQT46SOWfjoVM1gMsz1Ec37mM3k1Xoa5fF0l8LOul44kn2ZyC3zkdphOo3ISFeymnfhGf05G7p47cjVbHZG5IqW1Pt++sHtauvjduJR6+e0DZA==","691f8ca61c6b4dcbb0aeb5f4","691fc801f0414bb77fc353e3","index1","<span style='color:red'>Fail,<span style='color:red'>Fail,<span style='color:green'>Lift,<span style='color:green'>Lift,<span style='color:red'>Fail,<span style='color:red'>Fail,<span style='color:red'>Fail,<span style='color:red'>Fail,<span style='color:green'>Lift,<span style='color:red'>Fail,<span style='color:red'>Fail,<span style='color:green'>Lift","<span style='color:red'>Fail,<span style='color:red'>Fail,<span style='color:green'>Lift,<span style='color:green'>Lift,<span style='color:green'>Lift,<span style='color:green'>Lift,<span style='color:green'>Lift,<span style='color:red'>Fail,<span style='color:green'>Lift,<span style='color:green'>Lift,<span style='color:red'>Fail,<span style='color:green'>Lift","<span style='color:red'>Fail,<span style='color:green'>Lift,<span style='color:green'>Lift,<span style='color:red'>Fail,<span style='color:green'>Lift,<span style='color:green'>Lift","0,0,1,1,0,0,0,0,1,0,0,1","0,0,1,1,1,1,1,0,1,1,0,1","0,1,1,0,1,1",10,20,20,"","","","","{""box1"":""85""}","",NA,4,"round3_ready",4,4,3,NA,NA,NA,NA,NA,NA,NA,NA,NA,NA,NA,NA,NA,NA,85,85,NA,NA,NA,NA,NA,NA,NA,NA,NA,85,85,NA,NA,NA,NA,NA,NA,NA,NA,NA,NA,"",NA,NA,NA,NA,NA,NA,NA,NA,2025-11-21 02:41:23
"19227.60000014305","https://psyc-201.github.io/xiang2023/exp/index1.html?PROLIFIC_PID=REDACTED&STUDY_ID=691f8ca61c6b4dcbb0aeb5f4&SESSION_ID=691fc801f0414bb77fc353e3","survey-html-form",35,2102711,"0.0-339.0-0.0","DEdEyO3cAZOc9FwAQ8ebzI1ZFNLZWe2vEsV0Qg40uzpXAyM3P6x7XF1d99QcHf1/5OGN8xdbOuxMrpHNGs9jm6faff/oBpz1qA9MHSHZcAm9HZmg7X/DCZbtmhSvKcLeOEv9n6qlL24CiyyF6txcOagCDBds25FLVHKGrfhakbKYN9vYvZnc1a1hp0jwEZICFdadGACEEXA7oYd3SfupqorZpViIQ64c+yqYmBgoTQT46SOWfjoVM1gMsz1Ec37mM3k1Xoa5fF0l8LOul44kn2ZyC3zkdphOo3ISFeymnfhGf05G7p47cjVbHZG5IqW1Pt++sHtauvjduJR6+e0DZA==","691f8ca61c6b4dcbb0aeb5f4","691fc801f0414bb77fc353e3","index1","<span style='color:red'>Fail,<span style='color:red'>Fail,<span style='color:green'>Lift,<span style='color:green'>Lift,<span style='color:red'>Fail,<span style='color:red'>Fail,<span style='color:red'>Fail,<span style='color:red'>Fail,<span style='color:green'>Lift,<span style='color:red'>Fail,<span style='color:red'>Fail,<span style='color:green'>Lift","<span style='color:red'>Fail,<span style='color:red'>Fail,<span style='color:green'>Lift,<span style='color:green'>Lift,<span style='color:green'>Lift,<span style='color:green'>Lift,<span style='color:green'>Lift,<span style='color:red'>Fail,<span style='color:green'>Lift,<span style='color:green'>Lift,<span style='color:red'>Fail,<span style='color:green'>Lift","<span style='color:red'>Fail,<span style='color:green'>Lift,<span style='color:green'>Lift,<span style='color:red'>Fail,<span style='color:green'>Lift,<span style='color:green'>Lift","0,0,1,1,0,0,0,0,1,0,0,1","0,0,1,1,1,1,1,0,1,1,0,1","0,1,1,0,1,1",10,20,20,"","","","","{""box1"":""10"",""box2"":""10"",""box3"":""100"",""box4"":""100""}","",NA,5,"round3_lift",5,4,3,10,10,100,100,1,1,20,NA,NA,NA,NA,NA,NA,NA,NA,NA,NA,NA,NA,NA,NA,NA,NA,NA,NA,NA,NA,10,10,100,100,1,1,20,NA,NA,NA,"",NA,NA,NA,NA,NA,NA,NA,NA,2025-11-21 02:41:23
"null","https://psyc-201.github.io/xiang2023/exp/index1.html?PROLIFIC_PID=REDACTED&STUDY_ID=691f8ca61c6b4dcbb0aeb5f4&SESSION_ID=691fc801f0414bb77fc353e3","html-keyboard-response",36,2105715,"0.0-343.0","DEdEyO3cAZOc9FwAQ8ebzI1ZFNLZWe2vEsV0Qg40uzpXAyM3P6x7XF1d99QcHf1/5OGN8xdbOuxMrpHNGs9jm6faff/oBpz1qA9MHSHZcAm9HZmg7X/DCZbtmhSvKcLeOEv9n6qlL24CiyyF6txcOagCDBds25FLVHKGrfhakbKYN9vYvZnc1a1hp0jwEZICFdadGACEEXA7oYd3SfupqorZpViIQ64c+yqYmBgoTQT46SOWfjoVM1gMsz1Ec37mM3k1Xoa5fF0l8LOul44kn2ZyC3zkdphOo3ISFeymnfhGf05G7p47cjVbHZG5IqW1Pt++sHtauvjduJR6+e0DZA==","691f8ca61c6b4dcbb0aeb5f4","691fc801f0414bb77fc353e3","index1","<span style='color:red'>Fail,<span style='color:red'>Fail,<span style='color:green'>Lift,<span style='color:green'>Lift,<span style='color:red'>Fail,<span style='color:red'>Fail,<span style='color:red'>Fail,<span style='color:red'>Fail,<span style='color:green'>Lift,<span style='color:red'>Fail,<span style='color:red'>Fail,<span style='color:green'>Lift","<span style='color:red'>Fail,<span style='color:red'>Fail,<span style='color:green'>Lift,<span style='color:green'>Lift,<span style='color:green'>Lift,<span style='color:green'>Lift,<span style='color:green'>Lift,<span style='color:red'>Fail,<span style='color:green'>Lift,<span style='color:green'>Lift,<span style='color:red'>Fail,<span style='color:green'>Lift","<span style='color:red'>Fail,<span style='color:green'>Lift,<span style='color:green'>Lift,<span style='color:red'>Fail,<span style='color:green'>Lift,<span style='color:green'>Lift","0,0,1,1,0,0,0,0,1,0,0,1","0,0,1,1,1,1,1,0,1,1,0,1","0,1,1,0,1,1",10,20,20,"","","<p style='font-size:30px'><b> New Contest! </b></p>","null","","",NA,5,"",NA,NA,NA,NA,NA,NA,NA,NA,NA,NA,NA,NA,NA,NA,NA,NA,NA,NA,NA,NA,NA,NA,NA,NA,NA,NA,NA,NA,NA,NA,NA,NA,NA,NA,NA,NA,NA,NA,NA,NA,"",NA,NA,NA,NA,NA,NA,NA,NA,2025-11-21 02:41:23
"17730.39999985695","https://psyc-201.github.io/xiang2023/exp/index1.html?PROLIFIC_PID=REDACTED&STUDY_ID=691f8ca61c6b4dcbb0aeb5f4&SESSION_ID=691fc801f0414bb77fc353e3","survey-html-form",37,2123447,"0.0-344.0","DEdEyO3cAZOc9FwAQ8ebzI1ZFNLZWe2vEsV0Qg40uzpXAyM3P6x7XF1d99QcHf1/5OGN8xdbOuxMrpHNGs9jm6faff/oBpz1qA9MHSHZcAm9HZmg7X/DCZbtmhSvKcLeOEv9n6qlL24CiyyF6txcOagCDBds25FLVHKGrfhakbKYN9vYvZnc1a1hp0jwEZICFdadGACEEXA7oYd3SfupqorZpViIQ64c+yqYmBgoTQT46SOWfjoVM1gMsz1Ec37mM3k1Xoa5fF0l8LOul44kn2ZyC3zkdphOo3ISFeymnfhGf05G7p47cjVbHZG5IqW1Pt++sHtauvjduJR6+e0DZA==","691f8ca61c6b4dcbb0aeb5f4","691fc801f0414bb77fc353e3","index1","<span style='color:red'>Fail,<span style='color:red'>Fail,<span style='color:green'>Lift,<span style='color:green'>Lift,<span style='color:red'>Fail,<span style='color:red'>Fail,<span style='color:red'>Fail,<span style='color:red'>Fail,<span style='color:green'>Lift,<span style='color:red'>Fail,<span style='color:red'>Fail,<span style='color:green'>Lift","<span style='color:red'>Fail,<span style='color:red'>Fail,<span style='color:green'>Lift,<span style='color:green'>Lift,<span style='color:green'>Lift,<span style='color:green'>Lift,<span style='color:green'>Lift,<span style='color:red'>Fail,<span style='color:green'>Lift,<span style='color:green'>Lift,<span style='color:red'>Fail,<span style='color:green'>Lift","<span style='color:red'>Fail,<span style='color:green'>Lift,<span style='color:green'>Lift,<span style='color:red'>Fail,<span style='color:green'>Lift,<span style='color:green'>Lift","0,0,1,1,0,0,0,0,1,0,0,1","0,0,1,1,1,1,1,0,1,1,0,1","0,1,1,0,1,1",10,20,20,"","","","","{""box1"":""8"",""box2"":""8"",""box3"":""85"",""box4"":""85""}","",NA,5,"round1_outcome",1,5,1,8,8,85,85,1,1,10,8,8,85,85,1,1,10,NA,NA,NA,NA,NA,NA,NA,NA,NA,NA,NA,NA,NA,NA,NA,NA,NA,NA,NA,NA,NA,NA,NA,"",NA,NA,NA,NA,NA,NA,NA,NA,2025-11-21 02:41:23
"11136.399999856949","https://psyc-201.github.io/xiang2023/exp/index1.html?PROLIFIC_PID=REDACTED&STUDY_ID=691f8ca61c6b4dcbb0aeb5f4&SESSION_ID=691fc801f0414bb77fc353e3","survey-html-form",38,2134586,"0.0-345.0","DEdEyO3cAZOc9FwAQ8ebzI1ZFNLZWe2vEsV0Qg40uzpXAyM3P6x7XF1d99QcHf1/5OGN8xdbOuxMrpHNGs9jm6faff/oBpz1qA9MHSHZcAm9HZmg7X/DCZbtmhSvKcLeOEv9n6qlL24CiyyF6txcOagCDBds25FLVHKGrfhakbKYN9vYvZnc1a1hp0jwEZICFdadGACEEXA7oYd3SfupqorZpViIQ64c+yqYmBgoTQT46SOWfjoVM1gMsz1Ec37mM3k1Xoa5fF0l8LOul44kn2ZyC3zkdphOo3ISFeymnfhGf05G7p47cjVbHZG5IqW1Pt++sHtauvjduJR6+e0DZA==","691f8ca61c6b4dcbb0aeb5f4","691fc801f0414bb77fc353e3","index1","<span style='color:red'>Fail,<span style='color:red'>Fail,<span style='color:green'>Lift,<span style='color:green'>Lift,<span style='color:red'>Fail,<span style='color:red'>Fail,<span style='color:red'>Fail,<span style='color:red'>Fail,<span style='color:green'>Lift,<span style='color:red'>Fail,<span style='color:red'>Fail,<span style='color:green'>Lift","<span style='color:red'>Fail,<span style='color:red'>Fail,<span style='color:green'>Lift,<span style='color:green'>Lift,<span style='color:green'>Lift,<span style='color:green'>Lift,<span style='color:green'>Lift,<span style='color:red'>Fail,<span style='color:green'>Lift,<span style='color:green'>Lift,<span style='color:red'>Fail,<span style='color:green'>Lift","<span style='color:red'>Fail,<span style='color:green'>Lift,<span style='color:green'>Lift,<span style='color:red'>Fail,<span style='color:green'>Lift,<span style='color:green'>Lift","0,0,1,1,0,0,0,0,1,0,0,1","0,0,1,1,1,1,1,0,1,1,0,1","0,1,1,0,1,1",10,20,20,"","","","","{""box1"":""85"",""box2"":""85""}","",NA,5,"round2_ready",2,5,2,NA,NA,NA,NA,NA,NA,NA,NA,NA,NA,NA,NA,NA,NA,85,85,85,85,NA,NA,NA,NA,NA,NA,NA,NA,NA,NA,NA,NA,NA,NA,NA,NA,NA,NA,NA,"",NA,NA,NA,NA,NA,NA,NA,NA,2025-11-21 02:41:23
"24506.900000095367","https://psyc-201.github.io/xiang2023/exp/index1.html?PROLIFIC_PID=REDACTED&STUDY_ID=691f8ca61c6b4dcbb0aeb5f4&SESSION_ID=691fc801f0414bb77fc353e3","survey-html-form",39,2159097,"0.0-346.0","DEdEyO3cAZOc9FwAQ8ebzI1ZFNLZWe2vEsV0Qg40uzpXAyM3P6x7XF1d99QcHf1/5OGN8xdbOuxMrpHNGs9jm6faff/oBpz1qA9MHSHZcAm9HZmg7X/DCZbtmhSvKcLeOEv9n6qlL24CiyyF6txcOagCDBds25FLVHKGrfhakbKYN9vYvZnc1a1hp0jwEZICFdadGACEEXA7oYd3SfupqorZpViIQ64c+yqYmBgoTQT46SOWfjoVM1gMsz1Ec37mM3k1Xoa5fF0l8LOul44kn2ZyC3zkdphOo3ISFeymnfhGf05G7p47cjVbHZG5IqW1Pt++sHtauvjduJR6+e0DZA==","691f8ca61c6b4dcbb0aeb5f4","691fc801f0414bb77fc353e3","index1","<span style='color:red'>Fail,<span style='color:red'>Fail,<span style='color:green'>Lift,<span style='color:green'>Lift,<span style='color:red'>Fail,<span style='color:red'>Fail,<span style='color:red'>Fail,<span style='color:red'>Fail,<span style='color:green'>Lift,<span style='color:red'>Fail,<span style='color:red'>Fail,<span style='color:green'>Lift","<span style='color:red'>Fail,<span style='color:red'>Fail,<span style='color:green'>Lift,<span style='color:green'>Lift,<span style='color:green'>Lift,<span style='color:green'>Lift,<span style='color:green'>Lift,<span style='color:red'>Fail,<span style='color:green'>Lift,<span style='color:green'>Lift,<span style='color:red'>Fail,<span style='color:green'>Lift","<span style='color:red'>Fail,<span style='color:green'>Lift,<span style='color:green'>Lift,<span style='color:red'>Fail,<span style='color:green'>Lift,<span style='color:green'>Lift","0,0,1,1,0,0,0,0,1,0,0,1","0,0,1,1,1,1,1,0,1,1,0,1","0,1,1,0,1,1",10,20,20,"","","","","{""box1"":""9"",""box2"":""9"",""box3"":""90"",""box4"":""90""}","",NA,5,"round2_outcome",3,5,2,9,9,90,90,1,1,20,NA,NA,NA,NA,NA,NA,NA,NA,NA,NA,NA,9,9,90,90,1,1,20,NA,NA,NA,NA,NA,NA,NA,NA,NA,NA,NA,NA,"",NA,NA,NA,NA,NA,NA,NA,NA,2025-11-21 02:41:23
"5992.599999904633","https://psyc-201.github.io/xiang2023/exp/index1.html?PROLIFIC_PID=REDACTED&STUDY_ID=691f8ca61c6b4dcbb0aeb5f4&SESSION_ID=691fc801f0414bb77fc353e3","survey-html-form",40,2165094,"0.0-347.0","DEdEyO3cAZOc9FwAQ8ebzI1ZFNLZWe2vEsV0Qg40uzpXAyM3P6x7XF1d99QcHf1/5OGN8xdbOuxMrpHNGs9jm6faff/oBpz1qA9MHSHZcAm9HZmg7X/DCZbtmhSvKcLeOEv9n6qlL24CiyyF6txcOagCDBds25FLVHKGrfhakbKYN9vYvZnc1a1hp0jwEZICFdadGACEEXA7oYd3SfupqorZpViIQ64c+yqYmBgoTQT46SOWfjoVM1gMsz1Ec37mM3k1Xoa5fF0l8LOul44kn2ZyC3zkdphOo3ISFeymnfhGf05G7p47cjVbHZG5IqW1Pt++sHtauvjduJR6+e0DZA==","691f8ca61c6b4dcbb0aeb5f4","691fc801f0414bb77fc353e3","index1","<span style='color:red'>Fail,<span style='color:red'>Fail,<span style='color:green'>Lift,<span style='color:green'>Lift,<span style='color:red'>Fail,<span style='color:red'>Fail,<span style='color:red'>Fail,<span style='color:red'>Fail,<span style='color:green'>Lift,<span style='color:red'>Fail,<span style='color:red'>Fail,<span style='color:green'>Lift","<span style='color:red'>Fail,<span style='color:red'>Fail,<span style='color:green'>Lift,<span style='color:green'>Lift,<span style='color:green'>Lift,<span style='color:green'>Lift,<span style='color:green'>Lift,<span style='color:red'>Fail,<span style='color:green'>Lift,<span style='color:green'>Lift,<span style='color:red'>Fail,<span style='color:green'>Lift","<span style='color:red'>Fail,<span style='color:green'>Lift,<span style='color:green'>Lift,<span style='color:red'>Fail,<span style='color:green'>Lift,<span style='color:green'>Lift","0,0,1,1,0,0,0,0,1,0,0,1","0,0,1,1,1,1,1,0,1,1,0,1","0,1,1,0,1,1",10,20,20,"","","","","{""box1"":""100""}","",NA,5,"round3_ready",4,5,3,NA,NA,NA,NA,NA,NA,NA,NA,NA,NA,NA,NA,NA,NA,100,100,NA,NA,NA,NA,NA,NA,NA,NA,NA,100,100,NA,NA,NA,NA,NA,NA,NA,NA,NA,NA,"",NA,NA,NA,NA,NA,NA,NA,NA,2025-11-21 02:41:23
"16696.39999985695","https://psyc-201.github.io/xiang2023/exp/index1.html?PROLIFIC_PID=REDACTED&STUDY_ID=691f8ca61c6b4dcbb0aeb5f4&SESSION_ID=691fc801f0414bb77fc353e3","survey-html-form",41,2181795,"0.0-348.0-0.0","DEdEyO3cAZOc9FwAQ8ebzI1ZFNLZWe2vEsV0Qg40uzpXAyM3P6x7XF1d99QcHf1/5OGN8xdbOuxMrpHNGs9jm6faff/oBpz1qA9MHSHZcAm9HZmg7X/DCZbtmhSvKcLeOEv9n6qlL24CiyyF6txcOagCDBds25FLVHKGrfhakbKYN9vYvZnc1a1hp0jwEZICFdadGACEEXA7oYd3SfupqorZpViIQ64c+yqYmBgoTQT46SOWfjoVM1gMsz1Ec37mM3k1Xoa5fF0l8LOul44kn2ZyC3zkdphOo3ISFeymnfhGf05G7p47cjVbHZG5IqW1Pt++sHtauvjduJR6+e0DZA==","691f8ca61c6b4dcbb0aeb5f4","691fc801f0414bb77fc353e3","index1","<span style='color:red'>Fail,<span style='color:red'>Fail,<span style='color:green'>Lift,<span style='color:green'>Lift,<span style='color:red'>Fail,<span style='color:red'>Fail,<span style='color:red'>Fail,<span style='color:red'>Fail,<span style='color:green'>Lift,<span style='color:red'>Fail,<span style='color:red'>Fail,<span style='color:green'>Lift","<span style='color:red'>Fail,<span style='color:red'>Fail,<span style='color:green'>Lift,<span style='color:green'>Lift,<span style='color:green'>Lift,<span style='color:green'>Lift,<span style='color:green'>Lift,<span style='color:red'>Fail,<span style='color:green'>Lift,<span style='color:green'>Lift,<span style='color:red'>Fail,<span style='color:green'>Lift","<span style='color:red'>Fail,<span style='color:green'>Lift,<span style='color:green'>Lift,<span style='color:red'>Fail,<span style='color:green'>Lift,<span style='color:green'>Lift","0,0,1,1,0,0,0,0,1,0,0,1","0,0,1,1,1,1,1,0,1,1,0,1","0,1,1,0,1,1",10,20,20,"","","","","{""box1"":""10"",""box2"":""10"",""box3"":""100"",""box4"":""100""}","",NA,6,"round3_lift",5,5,3,10,10,100,100,1,1,20,NA,NA,NA,NA,NA,NA,NA,NA,NA,NA,NA,NA,NA,NA,NA,NA,NA,NA,NA,NA,10,10,100,100,1,1,20,NA,NA,NA,"",NA,NA,NA,NA,NA,NA,NA,NA,2025-11-21 02:41:23
"null","https://psyc-201.github.io/xiang2023/exp/index1.html?PROLIFIC_PID=REDACTED&STUDY_ID=691f8ca61c6b4dcbb0aeb5f4&SESSION_ID=691fc801f0414bb77fc353e3","html-keyboard-response",42,2184799,"0.0-352.0","DEdEyO3cAZOc9FwAQ8ebzI1ZFNLZWe2vEsV0Qg40uzpXAyM3P6x7XF1d99QcHf1/5OGN8xdbOuxMrpHNGs9jm6faff/oBpz1qA9MHSHZcAm9HZmg7X/DCZbtmhSvKcLeOEv9n6qlL24CiyyF6txcOagCDBds25FLVHKGrfhakbKYN9vYvZnc1a1hp0jwEZICFdadGACEEXA7oYd3SfupqorZpViIQ64c+yqYmBgoTQT46SOWfjoVM1gMsz1Ec37mM3k1Xoa5fF0l8LOul44kn2ZyC3zkdphOo3ISFeymnfhGf05G7p47cjVbHZG5IqW1Pt++sHtauvjduJR6+e0DZA==","691f8ca61c6b4dcbb0aeb5f4","691fc801f0414bb77fc353e3","index1","<span style='color:red'>Fail,<span style='color:red'>Fail,<span style='color:green'>Lift,<span style='color:green'>Lift,<span style='color:red'>Fail,<span style='color:red'>Fail,<span style='color:red'>Fail,<span style='color:red'>Fail,<span style='color:green'>Lift,<span style='color:red'>Fail,<span style='color:red'>Fail,<span style='color:green'>Lift","<span style='color:red'>Fail,<span style='color:red'>Fail,<span style='color:green'>Lift,<span style='color:green'>Lift,<span style='color:green'>Lift,<span style='color:green'>Lift,<span style='color:green'>Lift,<span style='color:red'>Fail,<span style='color:green'>Lift,<span style='color:green'>Lift,<span style='color:red'>Fail,<span style='color:green'>Lift","<span style='color:red'>Fail,<span style='color:green'>Lift,<span style='color:green'>Lift,<span style='color:red'>Fail,<span style='color:green'>Lift,<span style='color:green'>Lift","0,0,1,1,0,0,0,0,1,0,0,1","0,0,1,1,1,1,1,0,1,1,0,1","0,1,1,0,1,1",10,20,20,"","","<p style='font-size:30px'><b> New Contest! </b></p>","null","","",NA,6,"",NA,NA,NA,NA,NA,NA,NA,NA,NA,NA,NA,NA,NA,NA,NA,NA,NA,NA,NA,NA,NA,NA,NA,NA,NA,NA,NA,NA,NA,NA,NA,NA,NA,NA,NA,NA,NA,NA,NA,NA,"",NA,NA,NA,NA,NA,NA,NA,NA,2025-11-21 02:41:23
"19775.700000047684","https://psyc-201.github.io/xiang2023/exp/index1.html?PROLIFIC_PID=REDACTED&STUDY_ID=691f8ca61c6b4dcbb0aeb5f4&SESSION_ID=691fc801f0414bb77fc353e3","survey-html-form",43,2204580,"0.0-353.0","DEdEyO3cAZOc9FwAQ8ebzI1ZFNLZWe2vEsV0Qg40uzpXAyM3P6x7XF1d99QcHf1/5OGN8xdbOuxMrpHNGs9jm6faff/oBpz1qA9MHSHZcAm9HZmg7X/DCZbtmhSvKcLeOEv9n6qlL24CiyyF6txcOagCDBds25FLVHKGrfhakbKYN9vYvZnc1a1hp0jwEZICFdadGACEEXA7oYd3SfupqorZpViIQ64c+yqYmBgoTQT46SOWfjoVM1gMsz1Ec37mM3k1Xoa5fF0l8LOul44kn2ZyC3zkdphOo3ISFeymnfhGf05G7p47cjVbHZG5IqW1Pt++sHtauvjduJR6+e0DZA==","691f8ca61c6b4dcbb0aeb5f4","691fc801f0414bb77fc353e3","index1","<span style='color:red'>Fail,<span style='color:red'>Fail,<span style='color:green'>Lift,<span style='color:green'>Lift,<span style='color:red'>Fail,<span style='color:red'>Fail,<span style='color:red'>Fail,<span style='color:red'>Fail,<span style='color:green'>Lift,<span style='color:red'>Fail,<span style='color:red'>Fail,<span style='color:green'>Lift","<span style='color:red'>Fail,<span style='color:red'>Fail,<span style='color:green'>Lift,<span style='color:green'>Lift,<span style='color:green'>Lift,<span style='color:green'>Lift,<span style='color:green'>Lift,<span style='color:red'>Fail,<span style='color:green'>Lift,<span style='color:green'>Lift,<span style='color:red'>Fail,<span style='color:green'>Lift","<span style='color:red'>Fail,<span style='color:green'>Lift,<span style='color:green'>Lift,<span style='color:red'>Fail,<span style='color:green'>Lift,<span style='color:green'>Lift","0,0,1,1,0,0,0,0,1,0,0,1","0,0,1,1,1,1,1,0,1,1,0,1","0,1,1,0,1,1",10,20,20,"","","","","{""box1"":""1"",""box2"":""10"",""box4"":""100""}","",NA,6,"round1_outcome",1,6,1,1,10,NA,100,0,1,10,1,10,NA,100,0,1,10,NA,NA,NA,NA,NA,NA,NA,NA,NA,NA,NA,NA,NA,NA,NA,NA,NA,NA,NA,NA,NA,NA,NA,"",NA,NA,NA,NA,NA,NA,NA,NA,2025-11-21 02:41:23
"17391.299999952316","https://psyc-201.github.io/xiang2023/exp/index1.html?PROLIFIC_PID=REDACTED&STUDY_ID=691f8ca61c6b4dcbb0aeb5f4&SESSION_ID=691fc801f0414bb77fc353e3","survey-html-form",44,2221974,"0.0-354.0","DEdEyO3cAZOc9FwAQ8ebzI1ZFNLZWe2vEsV0Qg40uzpXAyM3P6x7XF1d99QcHf1/5OGN8xdbOuxMrpHNGs9jm6faff/oBpz1qA9MHSHZcAm9HZmg7X/DCZbtmhSvKcLeOEv9n6qlL24CiyyF6txcOagCDBds25FLVHKGrfhakbKYN9vYvZnc1a1hp0jwEZICFdadGACEEXA7oYd3SfupqorZpViIQ64c+yqYmBgoTQT46SOWfjoVM1gMsz1Ec37mM3k1Xoa5fF0l8LOul44kn2ZyC3zkdphOo3ISFeymnfhGf05G7p47cjVbHZG5IqW1Pt++sHtauvjduJR6+e0DZA==","691f8ca61c6b4dcbb0aeb5f4","691fc801f0414bb77fc353e3","index1","<span style='color:red'>Fail,<span style='color:red'>Fail,<span style='color:green'>Lift,<span style='color:green'>Lift,<span style='color:red'>Fail,<span style='color:red'>Fail,<span style='color:red'>Fail,<span style='color:red'>Fail,<span style='color:green'>Lift,<span style='color:red'>Fail,<span style='color:red'>Fail,<span style='color:green'>Lift","<span style='color:red'>Fail,<span style='color:red'>Fail,<span style='color:green'>Lift,<span style='color:green'>Lift,<span style='color:green'>Lift,<span style='color:green'>Lift,<span style='color:green'>Lift,<span style='color:red'>Fail,<span style='color:green'>Lift,<span style='color:green'>Lift,<span style='color:red'>Fail,<span style='color:green'>Lift","<span style='color:red'>Fail,<span style='color:green'>Lift,<span style='color:green'>Lift,<span style='color:red'>Fail,<span style='color:green'>Lift,<span style='color:green'>Lift","0,0,1,1,0,0,0,0,1,0,0,1","0,0,1,1,1,1,1,0,1,1,0,1","0,1,1,0,1,1",10,20,20,"","","","","{""box1"":""10"",""box2"":""10""}","",NA,6,"round2_ready",2,6,2,NA,NA,NA,NA,NA,NA,NA,NA,NA,NA,NA,NA,NA,NA,10,10,10,10,NA,NA,NA,NA,NA,NA,NA,NA,NA,NA,NA,NA,NA,NA,NA,NA,NA,NA,NA,"",NA,NA,NA,NA,NA,NA,NA,NA,2025-11-21 02:41:23
"14136.5","https://psyc-201.github.io/xiang2023/exp/index1.html?PROLIFIC_PID=REDACTED&STUDY_ID=691f8ca61c6b4dcbb0aeb5f4&SESSION_ID=691fc801f0414bb77fc353e3","survey-html-form",45,2236116,"0.0-355.0","DEdEyO3cAZOc9FwAQ8ebzI1ZFNLZWe2vEsV0Qg40uzpXAyM3P6x7XF1d99QcHf1/5OGN8xdbOuxMrpHNGs9jm6faff/oBpz1qA9MHSHZcAm9HZmg7X/DCZbtmhSvKcLeOEv9n6qlL24CiyyF6txcOagCDBds25FLVHKGrfhakbKYN9vYvZnc1a1hp0jwEZICFdadGACEEXA7oYd3SfupqorZpViIQ64c+yqYmBgoTQT46SOWfjoVM1gMsz1Ec37mM3k1Xoa5fF0l8LOul44kn2ZyC3zkdphOo3ISFeymnfhGf05G7p47cjVbHZG5IqW1Pt++sHtauvjduJR6+e0DZA==","691f8ca61c6b4dcbb0aeb5f4","691fc801f0414bb77fc353e3","index1","<span style='color:red'>Fail,<span style='color:red'>Fail,<span style='color:green'>Lift,<span style='color:green'>Lift,<span style='color:red'>Fail,<span style='color:red'>Fail,<span style='color:red'>Fail,<span style='color:red'>Fail,<span style='color:green'>Lift,<span style='color:red'>Fail,<span style='color:red'>Fail,<span style='color:green'>Lift","<span style='color:red'>Fail,<span style='color:red'>Fail,<span style='color:green'>Lift,<span style='color:green'>Lift,<span style='color:green'>Lift,<span style='color:green'>Lift,<span style='color:green'>Lift,<span style='color:red'>Fail,<span style='color:green'>Lift,<span style='color:green'>Lift,<span style='color:red'>Fail,<span style='color:green'>Lift","<span style='color:red'>Fail,<span style='color:green'>Lift,<span style='color:green'>Lift,<span style='color:red'>Fail,<span style='color:green'>Lift,<span style='color:green'>Lift","0,0,1,1,0,0,0,0,1,0,0,1","0,0,1,1,1,1,1,0,1,1,0,1","0,1,1,0,1,1",10,20,20,"","","","","{""box1"":""1"",""box2"":""10"",""box4"":""100""}","",NA,6,"round2_outcome",3,6,2,1,10,NA,100,0,1,20,NA,NA,NA,NA,NA,NA,NA,NA,NA,NA,NA,1,10,NA,100,0,1,20,NA,NA,NA,NA,NA,NA,NA,NA,NA,NA,NA,NA,"",NA,NA,NA,NA,NA,NA,NA,NA,2025-11-21 02:41:23
"16499.900000095367","https://psyc-201.github.io/xiang2023/exp/index1.html?PROLIFIC_PID=REDACTED&STUDY_ID=691f8ca61c6b4dcbb0aeb5f4&SESSION_ID=691fc801f0414bb77fc353e3","survey-html-form",46,2252619,"0.0-356.0","DEdEyO3cAZOc9FwAQ8ebzI1ZFNLZWe2vEsV0Qg40uzpXAyM3P6x7XF1d99QcHf1/5OGN8xdbOuxMrpHNGs9jm6faff/oBpz1qA9MHSHZcAm9HZmg7X/DCZbtmhSvKcLeOEv9n6qlL24CiyyF6txcOagCDBds25FLVHKGrfhakbKYN9vYvZnc1a1hp0jwEZICFdadGACEEXA7oYd3SfupqorZpViIQ64c+yqYmBgoTQT46SOWfjoVM1gMsz1Ec37mM3k1Xoa5fF0l8LOul44kn2ZyC3zkdphOo3ISFeymnfhGf05G7p47cjVbHZG5IqW1Pt++sHtauvjduJR6+e0DZA==","691f8ca61c6b4dcbb0aeb5f4","691fc801f0414bb77fc353e3","index1","<span style='color:red'>Fail,<span style='color:red'>Fail,<span style='color:green'>Lift,<span style='color:green'>Lift,<span style='color:red'>Fail,<span style='color:red'>Fail,<span style='color:red'>Fail,<span style='color:red'>Fail,<span style='color:green'>Lift,<span style='color:red'>Fail,<span style='color:red'>Fail,<span style='color:green'>Lift","<span style='color:red'>Fail,<span style='color:red'>Fail,<span style='color:green'>Lift,<span style='color:green'>Lift,<span style='color:green'>Lift,<span style='color:green'>Lift,<span style='color:green'>Lift,<span style='color:red'>Fail,<span style='color:green'>Lift,<span style='color:green'>Lift,<span style='color:red'>Fail,<span style='color:green'>Lift","<span style='color:red'>Fail,<span style='color:green'>Lift,<span style='color:green'>Lift,<span style='color:red'>Fail,<span style='color:green'>Lift,<span style='color:green'>Lift","0,0,1,1,0,0,0,0,1,0,0,1","0,0,1,1,1,1,1,0,1,1,0,1","0,1,1,0,1,1",10,20,20,"","","","","{""box1"":""20""}","",NA,6,"round3_ready",4,6,3,NA,NA,NA,NA,NA,NA,NA,NA,NA,NA,NA,NA,NA,NA,20,20,NA,NA,NA,NA,NA,NA,NA,NA,NA,20,20,NA,NA,NA,NA,NA,NA,NA,NA,NA,NA,"",NA,NA,NA,NA,NA,NA,NA,NA,2025-11-21 02:41:23
"18197.400000095367","https://psyc-201.github.io/xiang2023/exp/index1.html?PROLIFIC_PID=REDACTED&STUDY_ID=691f8ca61c6b4dcbb0aeb5f4&SESSION_ID=691fc801f0414bb77fc353e3","survey-html-form",47,2270819,"0.0-357.0-0.0","DEdEyO3cAZOc9FwAQ8ebzI1ZFNLZWe2vEsV0Qg40uzpXAyM3P6x7XF1d99QcHf1/5OGN8xdbOuxMrpHNGs9jm6faff/oBpz1qA9MHSHZcAm9HZmg7X/DCZbtmhSvKcLeOEv9n6qlL24CiyyF6txcOagCDBds25FLVHKGrfhakbKYN9vYvZnc1a1hp0jwEZICFdadGACEEXA7oYd3SfupqorZpViIQ64c+yqYmBgoTQT46SOWfjoVM1gMsz1Ec37mM3k1Xoa5fF0l8LOul44kn2ZyC3zkdphOo3ISFeymnfhGf05G7p47cjVbHZG5IqW1Pt++sHtauvjduJR6+e0DZA==","691f8ca61c6b4dcbb0aeb5f4","691fc801f0414bb77fc353e3","index1","<span style='color:red'>Fail,<span style='color:red'>Fail,<span style='color:green'>Lift,<span style='color:green'>Lift,<span style='color:red'>Fail,<span style='color:red'>Fail,<span style='color:red'>Fail,<span style='color:red'>Fail,<span style='color:green'>Lift,<span style='color:red'>Fail,<span style='color:red'>Fail,<span style='color:green'>Lift","<span style='color:red'>Fail,<span style='color:red'>Fail,<span style='color:green'>Lift,<span style='color:green'>Lift,<span style='color:green'>Lift,<span style='color:green'>Lift,<span style='color:green'>Lift,<span style='color:red'>Fail,<span style='color:green'>Lift,<span style='color:green'>Lift,<span style='color:red'>Fail,<span style='color:green'>Lift","<span style='color:red'>Fail,<span style='color:green'>Lift,<span style='color:green'>Lift,<span style='color:red'>Fail,<span style='color:green'>Lift,<span style='color:green'>Lift","0,0,1,1,0,0,0,0,1,0,0,1","0,0,1,1,1,1,1,0,1,1,0,1","0,1,1,0,1,1",10,20,20,"","","","","{""box1"":""10"",""box2"":""10"",""box3"":""100"",""box4"":""100""}","",NA,6,"round3_lift",5,6,3,10,10,100,100,1,1,20,NA,NA,NA,NA,NA,NA,NA,NA,NA,NA,NA,NA,NA,NA,NA,NA,NA,NA,NA,NA,10,10,100,100,1,1,20,NA,NA,NA,"",NA,NA,NA,NA,NA,NA,NA,NA,2025-11-21 02:41:23
"76422.10000014305","https://psyc-201.github.io/xiang2023/exp/index1.html?PROLIFIC_PID=REDACTED&STUDY_ID=691f8ca61c6b4dcbb0aeb5f4&SESSION_ID=691fc801f0414bb77fc353e3","survey-text",48,2347246,"0.0-361.0","DEdEyO3cAZOc9FwAQ8ebzI1ZFNLZWe2vEsV0Qg40uzpXAyM3P6x7XF1d99QcHf1/5OGN8xdbOuxMrpHNGs9jm6faff/oBpz1qA9MHSHZcAm9HZmg7X/DCZbtmhSvKcLeOEv9n6qlL24CiyyF6txcOagCDBds25FLVHKGrfhakbKYN9vYvZnc1a1hp0jwEZICFdadGACEEXA7oYd3SfupqorZpViIQ64c+yqYmBgoTQT46SOWfjoVM1gMsz1Ec37mM3k1Xoa5fF0l8LOul44kn2ZyC3zkdphOo3ISFeymnfhGf05G7p47cjVbHZG5IqW1Pt++sHtauvjduJR6+e0DZA==","691f8ca61c6b4dcbb0aeb5f4","691fc801f0414bb77fc353e3","index1","<span style='color:red'>Fail,<span style='color:red'>Fail,<span style='color:green'>Lift,<span style='color:green'>Lift,<span style='color:red'>Fail,<span style='color:red'>Fail,<span style='color:red'>Fail,<span style='color:red'>Fail,<span style='color:green'>Lift,<span style='color:red'>Fail,<span style='color:red'>Fail,<span style='color:green'>Lift","<span style='color:red'>Fail,<span style='color:red'>Fail,<span style='color:green'>Lift,<span style='color:green'>Lift,<span style='color:green'>Lift,<span style='color:green'>Lift,<span style='color:green'>Lift,<span style='color:red'>Fail,<span style='color:green'>Lift,<span style='color:green'>Lift,<span style='color:red'>Fail,<span style='color:green'>Lift","<span style='color:red'>Fail,<span style='color:green'>Lift,<span style='color:green'>Lift,<span style='color:red'>Fail,<span style='color:green'>Lift,<span style='color:green'>Lift","0,0,1,1,0,0,0,0,1,0,0,1","0,0,1,1,1,1,1,0,1,1,0,1","0,1,1,0,1,1",10,20,20,"","","","","{""Q0"":""The task I just finished was guessing whether or not contestants could lift the boxes by themselves, then together at the end.""}","",NA,NA,"",NA,NA,NA,NA,NA,NA,NA,NA,NA,NA,NA,NA,NA,NA,NA,NA,NA,NA,NA,NA,NA,NA,NA,NA,NA,NA,NA,NA,NA,NA,NA,NA,NA,NA,NA,NA,NA,NA,NA,NA,"",NA,NA,NA,NA,NA,NA,NA,NA,2025-11-21 02:41:23
"8107.400000095367","https://psyc-201.github.io/xiang2023/exp/index1.html?PROLIFIC_PID=REDACTED&STUDY_ID=691f8ca61c6b4dcbb0aeb5f4&SESSION_ID=691fc801f0414bb77fc353e3","survey-text",49,2355358,"0.0-362.0","DEdEyO3cAZOc9FwAQ8ebzI1ZFNLZWe2vEsV0Qg40uzpXAyM3P6x7XF1d99QcHf1/5OGN8xdbOuxMrpHNGs9jm6faff/oBpz1qA9MHSHZcAm9HZmg7X/DCZbtmhSvKcLeOEv9n6qlL24CiyyF6txcOagCDBds25FLVHKGrfhakbKYN9vYvZnc1a1hp0jwEZICFdadGACEEXA7oYd3SfupqorZpViIQ64c+yqYmBgoTQT46SOWfjoVM1gMsz1Ec37mM3k1Xoa5fF0l8LOul44kn2ZyC3zkdphOo3ISFeymnfhGf05G7p47cjVbHZG5IqW1Pt++sHtauvjduJR6+e0DZA==","691f8ca61c6b4dcbb0aeb5f4","691fc801f0414bb77fc353e3","index1","<span style='color:red'>Fail,<span style='color:red'>Fail,<span style='color:green'>Lift,<span style='color:green'>Lift,<span style='color:red'>Fail,<span style='color:red'>Fail,<span style='color:red'>Fail,<span style='color:red'>Fail,<span style='color:green'>Lift,<span style='color:red'>Fail,<span style='color:red'>Fail,<span style='color:green'>Lift","<span style='color:red'>Fail,<span style='color:red'>Fail,<span style='color:green'>Lift,<span style='color:green'>Lift,<span style='color:green'>Lift,<span style='color:green'>Lift,<span style='color:green'>Lift,<span style='color:red'>Fail,<span style='color:green'>Lift,<span style='color:green'>Lift,<span style='color:red'>Fail,<span style='color:green'>Lift","<span style='color:red'>Fail,<span style='color:green'>Lift,<span style='color:green'>Lift,<span style='color:red'>Fail,<span style='color:green'>Lift,<span style='color:green'>Lift","0,0,1,1,0,0,0,0,1,0,0,1","0,0,1,1,1,1,1,0,1,1,0,1","0,1,1,0,1,1",10,20,20,"","","","","{""Q0"":""""}","",NA,NA,"",NA,NA,NA,NA,NA,NA,NA,NA,NA,NA,NA,NA,NA,NA,NA,NA,NA,NA,NA,NA,NA,NA,NA,NA,NA,NA,NA,NA,NA,NA,NA,NA,NA,NA,NA,NA,NA,NA,NA,NA,"[{""event"":""fullscreenenter"",""trial"":1,""time"":115373}]",4,2,1,75,1,0.75,NA,NA,2025-11-21 02:41:23
"7964.299999952316","https://psyc-201.github.io/xiang2023/exp/index1.html?PROLIFIC_PID=REDACTED&STUDY_ID=691f8ca61c6b4dcbb0aeb5f4&SESSION_ID=691fc801f0414bb77fc353e3","html-button-response",50,2363327,"0.0-363.0","DEdEyO3cAZOc9FwAQ8ebzI1ZFNLZWe2vEsV0Qg40uzpXAyM3P6x7XF1d99QcHf1/5OGN8xdbOuxMrpHNGs9jm6faff/oBpz1qA9MHSHZcAm9HZmg7X/DCZbtmhSvKcLeOEv9n6qlL24CiyyF6txcOagCDBds25FLVHKGrfhakbKYN9vYvZnc1a1hp0jwEZICFdadGACEEXA7oYd3SfupqorZpViIQ64c+yqYmBgoTQT46SOWfjoVM1gMsz1Ec37mM3k1Xoa5fF0l8LOul44kn2ZyC3zkdphOo3ISFeymnfhGf05G7p47cjVbHZG5IqW1Pt++sHtauvjduJR6+e0DZA==","691f8ca61c6b4dcbb0aeb5f4","691fc801f0414bb77fc353e3","index1","<span style='color:red'>Fail,<span style='color:red'>Fail,<span style='color:green'>Lift,<span style='color:green'>Lift,<span style='color:red'>Fail,<span style='color:red'>Fail,<span style='color:red'>Fail,<span style='color:red'>Fail,<span style='color:green'>Lift,<span style='color:red'>Fail,<span style='color:red'>Fail,<span style='color:green'>Lift","<span style='color:red'>Fail,<span style='color:red'>Fail,<span style='color:green'>Lift,<span style='color:green'>Lift,<span style='color:green'>Lift,<span style='color:green'>Lift,<span style='color:green'>Lift,<span style='color:red'>Fail,<span style='color:green'>Lift,<span style='color:green'>Lift,<span style='color:red'>Fail,<span style='color:green'>Lift","<span style='color:red'>Fail,<span style='color:green'>Lift,<span style='color:green'>Lift,<span style='color:red'>Fail,<span style='color:green'>Lift,<span style='color:green'>Lift","0,0,1,1,0,0,0,0,1,0,0,1","0,0,1,1,1,1,1,0,1,1,0,1","0,1,1,0,1,1",10,20,20,"","","<p> We randomly picked <b>Contest 4, Round 2</b> to calculate your bonus. </p><p> The outcome of Contestant H on that round is <span style='color:green'>Lift</span>. </p><p> The probability you entered was 75. </p><p><b> You won a bonus of $0.75!</b></p><p> IMPORTANT: Please click 'Next' to complete the game.</p>","","","",0,NA,"",NA,NA,NA,NA,NA,NA,NA,NA,NA,NA,NA,NA,NA,NA,NA,NA,NA,NA,NA,NA,NA,NA,NA,NA,NA,NA,NA,NA,NA,NA,NA,NA,NA,NA,NA,NA,NA,NA,NA,NA,"",NA,NA,NA,NA,NA,NA,1,0,2025-11-21 02:41:23
