"rt","url","trial_type","trial_index","time_elapsed","internal_node_id","encryptedProlificId","studyId","sessionId","expIndex","round1_outcomes","round2_outcomes","round3_outcomes","round1_o","round2_o","round3_o","round1_reward","round2_reward","round3_reward","success","view_history","stimulus","key_press","responses","question_order","button_pressed","j","Stage","stage","contest","round","strength_a","strength_b","effort_a","effort_b","outcome_a","outcome_b","reward","r1_strength_a","r1_strength_b","r1_effort_a","r1_effort_b","r1_outcome_a","r1_outcome_b","r1_reward","probability_a","probability_b","r2_prob_a","r2_prob_b","r2_strength_a","r2_strength_b","r2_effort_a","r2_effort_b","r2_outcome_a","r2_outcome_b","r2_reward","r3_prob_a","r3_prob_b","r3_strength_a","r3_strength_b","r3_effort_a","r3_effort_b","r3_outcome_a","r3_outcome_b","r3_reward","attention_check","count","screen","pick_contest","pick_round","pick_side","trial_probability","trial_outcome","bonus","attention_sum","attention","datapipe_meta.attributes.date_modified"
"34438.90000003576","https://psyc-201.github.io/xiang2023/exp/index1.html?PROLIFIC_PID=REDACTED&STUDY_ID=69168b21477cff9ada6cb980&SESSION_ID=691bd700cfdd9c6c6a09a241","external-html",0,34499,"0.0-0.0","UPV7UOKJX2W8WBJG3Cc2qZqNguLOpKLmG5kfvPl+fFwkwpgRwiFyHQ/+O3iNaasvUdfDO4YiQe4dQkRUniOH0zgyWDnjTGu+oP724nbpkkgAn+tlecXi8I7TXg8Sa2mEjSfVZ5XqssMftnOP/+Z6JB0N/pBThMUqRICsin+96Sq61nDtxhQzhvnVlwLr1g4NX4+Dj1fqWE11MgTtynkr+AazksISfk1MtdJxU5ghcWk/c/7IOrlv1hKVDEi0z/EHkqFq6NYWgHqB8n16SV+j/34MSU5f+itrJUtzheIZw6k6jaSTZjRONzv49lYdENvgPKfanobwpb9PRZFMUDqogQ==","69168b21477cff9ada6cb980","691bd700cfdd9c6c6a09a241","index1","<span style='color:red'>Fail,<span style='color:red'>Fail,<span style='color:green'>Lift,<span style='color:green'>Lift,<span style='color:red'>Fail,<span style='color:red'>Fail,<span style='color:red'>Fail,<span style='color:red'>Fail,<span style='color:green'>Lift,<span style='color:red'>Fail,<span style='color:red'>Fail,<span style='color:green'>Lift","<span style='color:red'>Fail,<span style='color:red'>Fail,<span style='color:green'>Lift,<span style='color:green'>Lift,<span style='color:green'>Lift,<span style='color:green'>Lift,<span style='color:red'>Fail,<span style='color:green'>Lift,<span style='color:green'>Lift,<span style='color:green'>Lift,<span style='color:red'>Fail,<span style='color:green'>Lift","<span style='color:red'>Fail,<span style='color:green'>Lift,<span style='color:green'>Lift,<span style='color:red'>Fail,<span style='color:green'>Lift,<span style='color:green'>Lift","0,0,1,1,0,0,0,0,1,0,0,1","0,0,1,1,1,1,0,1,1,1,0,1","0,1,1,0,1,1",10,20,20,"","","","","","",NA,NA,"",NA,NA,NA,NA,NA,NA,NA,NA,NA,NA,NA,NA,NA,NA,NA,NA,NA,NA,NA,NA,NA,NA,NA,NA,NA,NA,NA,NA,NA,NA,NA,NA,NA,NA,NA,NA,NA,NA,NA,"",NA,NA,NA,NA,NA,NA,NA,NA,2025-11-18 02:36:47
"","https://psyc-201.github.io/xiang2023/exp/index1.html?PROLIFIC_PID=REDACTED&STUDY_ID=69168b21477cff9ada6cb980&SESSION_ID=691bd700cfdd9c6c6a09a241","fullscreen",1,47489,"0.0-1.0","UPV7UOKJX2W8WBJG3Cc2qZqNguLOpKLmG5kfvPl+fFwkwpgRwiFyHQ/+O3iNaasvUdfDO4YiQe4dQkRUniOH0zgyWDnjTGu+oP724nbpkkgAn+tlecXi8I7TXg8Sa2mEjSfVZ5XqssMftnOP/+Z6JB0N/pBThMUqRICsin+96Sq61nDtxhQzhvnVlwLr1g4NX4+Dj1fqWE11MgTtynkr+AazksISfk1MtdJxU5ghcWk/c/7IOrlv1hKVDEi0z/EHkqFq6NYWgHqB8n16SV+j/34MSU5f+itrJUtzheIZw6k6jaSTZjRONzv49lYdENvgPKfanobwpb9PRZFMUDqogQ==","69168b21477cff9ada6cb980","691bd700cfdd9c6c6a09a241","index1","<span style='color:red'>Fail,<span style='color:red'>Fail,<span style='color:green'>Lift,<span style='color:green'>Lift,<span style='color:red'>Fail,<span style='color:red'>Fail,<span style='color:red'>Fail,<span style='color:red'>Fail,<span style='color:green'>Lift,<span style='color:red'>Fail,<span style='color:red'>Fail,<span style='color:green'>Lift","<span style='color:red'>Fail,<span style='color:red'>Fail,<span style='color:green'>Lift,<span style='color:green'>Lift,<span style='color:green'>Lift,<span style='color:green'>Lift,<span style='color:red'>Fail,<span style='color:green'>Lift,<span style='color:green'>Lift,<span style='color:green'>Lift,<span style='color:red'>Fail,<span style='color:green'>Lift","<span style='color:red'>Fail,<span style='color:green'>Lift,<span style='color:green'>Lift,<span style='color:red'>Fail,<span style='color:green'>Lift,<span style='color:green'>Lift","0,0,1,1,0,0,0,0,1,0,0,1","0,0,1,1,1,1,0,1,1,1,0,1","0,1,1,0,1,1",10,20,20,"true","","","","","",NA,NA,"",NA,NA,NA,NA,NA,NA,NA,NA,NA,NA,NA,NA,NA,NA,NA,NA,NA,NA,NA,NA,NA,NA,NA,NA,NA,NA,NA,NA,NA,NA,NA,NA,NA,NA,NA,NA,NA,NA,NA,"",NA,NA,NA,NA,NA,NA,NA,NA,2025-11-18 02:36:47
"285260.5","https://psyc-201.github.io/xiang2023/exp/index1.html?PROLIFIC_PID=REDACTED&STUDY_ID=69168b21477cff9ada6cb980&SESSION_ID=691bd700cfdd9c6c6a09a241","instructions",2,332752,"0.0-2.0","UPV7UOKJX2W8WBJG3Cc2qZqNguLOpKLmG5kfvPl+fFwkwpgRwiFyHQ/+O3iNaasvUdfDO4YiQe4dQkRUniOH0zgyWDnjTGu+oP724nbpkkgAn+tlecXi8I7TXg8Sa2mEjSfVZ5XqssMftnOP/+Z6JB0N/pBThMUqRICsin+96Sq61nDtxhQzhvnVlwLr1g4NX4+Dj1fqWE11MgTtynkr+AazksISfk1MtdJxU5ghcWk/c/7IOrlv1hKVDEi0z/EHkqFq6NYWgHqB8n16SV+j/34MSU5f+itrJUtzheIZw6k6jaSTZjRONzv49lYdENvgPKfanobwpb9PRZFMUDqogQ==","69168b21477cff9ada6cb980","691bd700cfdd9c6c6a09a241","index1","<span style='color:red'>Fail,<span style='color:red'>Fail,<span style='color:green'>Lift,<span style='color:green'>Lift,<span style='color:red'>Fail,<span style='color:red'>Fail,<span style='color:red'>Fail,<span style='color:red'>Fail,<span style='color:green'>Lift,<span style='color:red'>Fail,<span style='color:red'>Fail,<span style='color:green'>Lift","<span style='color:red'>Fail,<span style='color:red'>Fail,<span style='color:green'>Lift,<span style='color:green'>Lift,<span style='color:green'>Lift,<span style='color:green'>Lift,<span style='color:red'>Fail,<span style='color:green'>Lift,<span style='color:green'>Lift,<span style='color:green'>Lift,<span style='color:red'>Fail,<span style='color:green'>Lift","<span style='color:red'>Fail,<span style='color:green'>Lift,<span style='color:green'>Lift,<span style='color:red'>Fail,<span style='color:green'>Lift,<span style='color:green'>Lift","0,0,1,1,0,0,0,0,1,0,0,1","0,0,1,1,1,1,0,1,1,1,0,1","0,1,1,0,1,1",10,20,20,"","[{""page_index"":0,""viewing_time"":97958.79999995232},{""page_index"":1,""viewing_time"":43270.200000047684},{""page_index"":2,""viewing_time"":35238.299999952316},{""page_index"":3,""viewing_time"":55265.30000001192},{""page_index"":4,""viewing_time"":17751.600000023842},{""page_index"":5,""viewing_time"":29404.19999998808},{""page_index"":6,""viewing_time"":6371.5}]","","","","",NA,NA,"",NA,NA,NA,NA,NA,NA,NA,NA,NA,NA,NA,NA,NA,NA,NA,NA,NA,NA,NA,NA,NA,NA,NA,NA,NA,NA,NA,NA,NA,NA,NA,NA,NA,NA,NA,NA,NA,NA,NA,"",NA,NA,NA,NA,NA,NA,NA,NA,2025-11-18 02:36:47
"null","https://psyc-201.github.io/xiang2023/exp/index1.html?PROLIFIC_PID=REDACTED&STUDY_ID=69168b21477cff9ada6cb980&SESSION_ID=691bd700cfdd9c6c6a09a241","html-keyboard-response",3,333769,"0.0-3.0","UPV7UOKJX2W8WBJG3Cc2qZqNguLOpKLmG5kfvPl+fFwkwpgRwiFyHQ/+O3iNaasvUdfDO4YiQe4dQkRUniOH0zgyWDnjTGu+oP724nbpkkgAn+tlecXi8I7TXg8Sa2mEjSfVZ5XqssMftnOP/+Z6JB0N/pBThMUqRICsin+96Sq61nDtxhQzhvnVlwLr1g4NX4+Dj1fqWE11MgTtynkr+AazksISfk1MtdJxU5ghcWk/c/7IOrlv1hKVDEi0z/EHkqFq6NYWgHqB8n16SV+j/34MSU5f+itrJUtzheIZw6k6jaSTZjRONzv49lYdENvgPKfanobwpb9PRZFMUDqogQ==","69168b21477cff9ada6cb980","691bd700cfdd9c6c6a09a241","index1","<span style='color:red'>Fail,<span style='color:red'>Fail,<span style='color:green'>Lift,<span style='color:green'>Lift,<span style='color:red'>Fail,<span style='color:red'>Fail,<span style='color:red'>Fail,<span style='color:red'>Fail,<span style='color:green'>Lift,<span style='color:red'>Fail,<span style='color:red'>Fail,<span style='color:green'>Lift","<span style='color:red'>Fail,<span style='color:red'>Fail,<span style='color:green'>Lift,<span style='color:green'>Lift,<span style='color:green'>Lift,<span style='color:green'>Lift,<span style='color:red'>Fail,<span style='color:green'>Lift,<span style='color:green'>Lift,<span style='color:green'>Lift,<span style='color:red'>Fail,<span style='color:green'>Lift","<span style='color:red'>Fail,<span style='color:green'>Lift,<span style='color:green'>Lift,<span style='color:red'>Fail,<span style='color:green'>Lift,<span style='color:green'>Lift","0,0,1,1,0,0,0,0,1,0,0,1","0,0,1,1,1,1,0,1,1,1,0,1","0,1,1,0,1,1",10,20,20,"",""," ","null","","",NA,NA,"",NA,NA,NA,NA,NA,NA,NA,NA,NA,NA,NA,NA,NA,NA,NA,NA,NA,NA,NA,NA,NA,NA,NA,NA,NA,NA,NA,NA,NA,NA,NA,NA,NA,NA,NA,NA,NA,NA,NA,"",NA,NA,NA,NA,NA,NA,NA,NA,2025-11-18 02:36:47
"60524.19999998808","https://psyc-201.github.io/xiang2023/exp/index1.html?PROLIFIC_PID=REDACTED&STUDY_ID=69168b21477cff9ada6cb980&SESSION_ID=691bd700cfdd9c6c6a09a241","survey-multi-choice",4,394296,"0.0-4.0","UPV7UOKJX2W8WBJG3Cc2qZqNguLOpKLmG5kfvPl+fFwkwpgRwiFyHQ/+O3iNaasvUdfDO4YiQe4dQkRUniOH0zgyWDnjTGu+oP724nbpkkgAn+tlecXi8I7TXg8Sa2mEjSfVZ5XqssMftnOP/+Z6JB0N/pBThMUqRICsin+96Sq61nDtxhQzhvnVlwLr1g4NX4+Dj1fqWE11MgTtynkr+AazksISfk1MtdJxU5ghcWk/c/7IOrlv1hKVDEi0z/EHkqFq6NYWgHqB8n16SV+j/34MSU5f+itrJUtzheIZw6k6jaSTZjRONzv49lYdENvgPKfanobwpb9PRZFMUDqogQ==","69168b21477cff9ada6cb980","691bd700cfdd9c6c6a09a241","index1","<span style='color:red'>Fail,<span style='color:red'>Fail,<span style='color:green'>Lift,<span style='color:green'>Lift,<span style='color:red'>Fail,<span style='color:red'>Fail,<span style='color:red'>Fail,<span style='color:red'>Fail,<span style='color:green'>Lift,<span style='color:red'>Fail,<span style='color:red'>Fail,<span style='color:green'>Lift","<span style='color:red'>Fail,<span style='color:red'>Fail,<span style='color:green'>Lift,<span style='color:green'>Lift,<span style='color:green'>Lift,<span style='color:green'>Lift,<span style='color:red'>Fail,<span style='color:green'>Lift,<span style='color:green'>Lift,<span style='color:green'>Lift,<span style='color:red'>Fail,<span style='color:green'>Lift","<span style='color:red'>Fail,<span style='color:green'>Lift,<span style='color:green'>Lift,<span style='color:red'>Fail,<span style='color:green'>Lift,<span style='color:green'>Lift","0,0,1,1,0,0,0,0,1,0,0,1","0,0,1,1,1,1,0,1,1,1,0,1","0,1,1,0,1,1",10,20,20,"","","","","{""Q0"":""It consists of multiple contests, each contest with three rounds."",""Q1"":""When a new round starts."",""Q2"":""The box weight always stays the same (equivalent to strength of 5)."",""Q3"":""Each will get $20."",""Q4"":""How close my guesses are to the actual outcome.""}","[0,1,2,3,4]",NA,NA,"",NA,NA,NA,NA,NA,NA,NA,NA,NA,NA,NA,NA,NA,NA,NA,NA,NA,NA,NA,NA,NA,NA,NA,NA,NA,NA,NA,NA,NA,NA,NA,NA,NA,NA,NA,NA,NA,NA,NA,"",NA,NA,NA,NA,NA,NA,NA,NA,2025-11-18 02:36:47
"3887.199999988079","https://psyc-201.github.io/xiang2023/exp/index1.html?PROLIFIC_PID=REDACTED&STUDY_ID=69168b21477cff9ada6cb980&SESSION_ID=691bd700cfdd9c6c6a09a241","html-button-response",5,398184,"0.0-5.0-0.0","UPV7UOKJX2W8WBJG3Cc2qZqNguLOpKLmG5kfvPl+fFwkwpgRwiFyHQ/+O3iNaasvUdfDO4YiQe4dQkRUniOH0zgyWDnjTGu+oP724nbpkkgAn+tlecXi8I7TXg8Sa2mEjSfVZ5XqssMftnOP/+Z6JB0N/pBThMUqRICsin+96Sq61nDtxhQzhvnVlwLr1g4NX4+Dj1fqWE11MgTtynkr+AazksISfk1MtdJxU5ghcWk/c/7IOrlv1hKVDEi0z/EHkqFq6NYWgHqB8n16SV+j/34MSU5f+itrJUtzheIZw6k6jaSTZjRONzv49lYdENvgPKfanobwpb9PRZFMUDqogQ==","69168b21477cff9ada6cb980","691bd700cfdd9c6c6a09a241","index1","<span style='color:red'>Fail,<span style='color:red'>Fail,<span style='color:green'>Lift,<span style='color:green'>Lift,<span style='color:red'>Fail,<span style='color:red'>Fail,<span style='color:red'>Fail,<span style='color:red'>Fail,<span style='color:green'>Lift,<span style='color:red'>Fail,<span style='color:red'>Fail,<span style='color:green'>Lift","<span style='color:red'>Fail,<span style='color:red'>Fail,<span style='color:green'>Lift,<span style='color:green'>Lift,<span style='color:green'>Lift,<span style='color:green'>Lift,<span style='color:red'>Fail,<span style='color:green'>Lift,<span style='color:green'>Lift,<span style='color:green'>Lift,<span style='color:red'>Fail,<span style='color:green'>Lift","<span style='color:red'>Fail,<span style='color:green'>Lift,<span style='color:green'>Lift,<span style='color:red'>Fail,<span style='color:green'>Lift,<span style='color:green'>Lift","0,0,1,1,0,0,0,0,1,0,0,1","0,0,1,1,1,1,0,1,1,1,0,1","0,1,1,0,1,1",10,20,20,"","","<p> Oops! You did not pass the comprehension check.</p>","","","",0,NA,"",NA,NA,NA,NA,NA,NA,NA,NA,NA,NA,NA,NA,NA,NA,NA,NA,NA,NA,NA,NA,NA,NA,NA,NA,NA,NA,NA,NA,NA,NA,NA,NA,NA,NA,NA,NA,NA,NA,NA,"",NA,NA,NA,NA,NA,NA,NA,NA,2025-11-18 02:36:47
"41713.30000001192","https://psyc-201.github.io/xiang2023/exp/index1.html?PROLIFIC_PID=REDACTED&STUDY_ID=69168b21477cff9ada6cb980&SESSION_ID=691bd700cfdd9c6c6a09a241","survey-multi-choice",6,439901,"0.0-7.0-0.0","UPV7UOKJX2W8WBJG3Cc2qZqNguLOpKLmG5kfvPl+fFwkwpgRwiFyHQ/+O3iNaasvUdfDO4YiQe4dQkRUniOH0zgyWDnjTGu+oP724nbpkkgAn+tlecXi8I7TXg8Sa2mEjSfVZ5XqssMftnOP/+Z6JB0N/pBThMUqRICsin+96Sq61nDtxhQzhvnVlwLr1g4NX4+Dj1fqWE11MgTtynkr+AazksISfk1MtdJxU5ghcWk/c/7IOrlv1hKVDEi0z/EHkqFq6NYWgHqB8n16SV+j/34MSU5f+itrJUtzheIZw6k6jaSTZjRONzv49lYdENvgPKfanobwpb9PRZFMUDqogQ==","69168b21477cff9ada6cb980","691bd700cfdd9c6c6a09a241","index1","<span style='color:red'>Fail,<span style='color:red'>Fail,<span style='color:green'>Lift,<span style='color:green'>Lift,<span style='color:red'>Fail,<span style='color:red'>Fail,<span style='color:red'>Fail,<span style='color:red'>Fail,<span style='color:green'>Lift,<span style='color:red'>Fail,<span style='color:red'>Fail,<span style='color:green'>Lift","<span style='color:red'>Fail,<span style='color:red'>Fail,<span style='color:green'>Lift,<span style='color:green'>Lift,<span style='color:green'>Lift,<span style='color:green'>Lift,<span style='color:red'>Fail,<span style='color:green'>Lift,<span style='color:green'>Lift,<span style='color:green'>Lift,<span style='color:red'>Fail,<span style='color:green'>Lift","<span style='color:red'>Fail,<span style='color:green'>Lift,<span style='color:green'>Lift,<span style='color:red'>Fail,<span style='color:green'>Lift,<span style='color:green'>Lift","0,0,1,1,0,0,0,0,1,0,0,1","0,0,1,1,1,1,0,1,1,1,0,1","0,1,1,0,1,1",10,20,20,"","","","","{""Q0"":""It consists of multiple contests, each contest with three rounds."",""Q1"":""Contestants are always the same across contests."",""Q2"":""The box weight always stays the same (equivalent to strength of 5)."",""Q3"":""Each will get $20."",""Q4"":""How close my guesses are to the actual outcome.""}","[0,1,2,3,4]",NA,NA,"",NA,NA,NA,NA,NA,NA,NA,NA,NA,NA,NA,NA,NA,NA,NA,NA,NA,NA,NA,NA,NA,NA,NA,NA,NA,NA,NA,NA,NA,NA,NA,NA,NA,NA,NA,NA,NA,NA,NA,"",NA,NA,NA,NA,NA,NA,NA,NA,2025-11-18 02:36:47
"1769","https://psyc-201.github.io/xiang2023/exp/index1.html?PROLIFIC_PID=REDACTED&STUDY_ID=69168b21477cff9ada6cb980&SESSION_ID=691bd700cfdd9c6c6a09a241","html-button-response",7,441672,"0.0-8.0-0.0","UPV7UOKJX2W8WBJG3Cc2qZqNguLOpKLmG5kfvPl+fFwkwpgRwiFyHQ/+O3iNaasvUdfDO4YiQe4dQkRUniOH0zgyWDnjTGu+oP724nbpkkgAn+tlecXi8I7TXg8Sa2mEjSfVZ5XqssMftnOP/+Z6JB0N/pBThMUqRICsin+96Sq61nDtxhQzhvnVlwLr1g4NX4+Dj1fqWE11MgTtynkr+AazksISfk1MtdJxU5ghcWk/c/7IOrlv1hKVDEi0z/EHkqFq6NYWgHqB8n16SV+j/34MSU5f+itrJUtzheIZw6k6jaSTZjRONzv49lYdENvgPKfanobwpb9PRZFMUDqogQ==","69168b21477cff9ada6cb980","691bd700cfdd9c6c6a09a241","index1","<span style='color:red'>Fail,<span style='color:red'>Fail,<span style='color:green'>Lift,<span style='color:green'>Lift,<span style='color:red'>Fail,<span style='color:red'>Fail,<span style='color:red'>Fail,<span style='color:red'>Fail,<span style='color:green'>Lift,<span style='color:red'>Fail,<span style='color:red'>Fail,<span style='color:green'>Lift","<span style='color:red'>Fail,<span style='color:red'>Fail,<span style='color:green'>Lift,<span style='color:green'>Lift,<span style='color:green'>Lift,<span style='color:green'>Lift,<span style='color:red'>Fail,<span style='color:green'>Lift,<span style='color:green'>Lift,<span style='color:green'>Lift,<span style='color:red'>Fail,<span style='color:green'>Lift","<span style='color:red'>Fail,<span style='color:green'>Lift,<span style='color:green'>Lift,<span style='color:red'>Fail,<span style='color:green'>Lift,<span style='color:green'>Lift","0,0,1,1,0,0,0,0,1,0,0,1","0,0,1,1,1,1,0,1,1,1,0,1","0,1,1,0,1,1",10,20,20,"","","<p> Oops! You did not pass the comprehension check.</p>","","","",1,NA,"",NA,NA,NA,NA,NA,NA,NA,NA,NA,NA,NA,NA,NA,NA,NA,NA,NA,NA,NA,NA,NA,NA,NA,NA,NA,NA,NA,NA,NA,NA,NA,NA,NA,NA,NA,NA,NA,NA,NA,"",NA,NA,NA,NA,NA,NA,NA,NA,2025-11-18 02:36:47
"118682.69999998808","https://psyc-201.github.io/xiang2023/exp/index1.html?PROLIFIC_PID=REDACTED&STUDY_ID=69168b21477cff9ada6cb980&SESSION_ID=691bd700cfdd9c6c6a09a241","instructions",8,560355,"0.0-9.0-0.0","UPV7UOKJX2W8WBJG3Cc2qZqNguLOpKLmG5kfvPl+fFwkwpgRwiFyHQ/+O3iNaasvUdfDO4YiQe4dQkRUniOH0zgyWDnjTGu+oP724nbpkkgAn+tlecXi8I7TXg8Sa2mEjSfVZ5XqssMftnOP/+Z6JB0N/pBThMUqRICsin+96Sq61nDtxhQzhvnVlwLr1g4NX4+Dj1fqWE11MgTtynkr+AazksISfk1MtdJxU5ghcWk/c/7IOrlv1hKVDEi0z/EHkqFq6NYWgHqB8n16SV+j/34MSU5f+itrJUtzheIZw6k6jaSTZjRONzv49lYdENvgPKfanobwpb9PRZFMUDqogQ==","69168b21477cff9ada6cb980","691bd700cfdd9c6c6a09a241","index1","<span style='color:red'>Fail,<span style='color:red'>Fail,<span style='color:green'>Lift,<span style='color:green'>Lift,<span style='color:red'>Fail,<span style='color:red'>Fail,<span style='color:red'>Fail,<span style='color:red'>Fail,<span style='color:green'>Lift,<span style='color:red'>Fail,<span style='color:red'>Fail,<span style='color:green'>Lift","<span style='color:red'>Fail,<span style='color:red'>Fail,<span style='color:green'>Lift,<span style='color:green'>Lift,<span style='color:green'>Lift,<span style='color:green'>Lift,<span style='color:red'>Fail,<span style='color:green'>Lift,<span style='color:green'>Lift,<span style='color:green'>Lift,<span style='color:red'>Fail,<span style='color:green'>Lift","<span style='color:red'>Fail,<span style='color:green'>Lift,<span style='color:green'>Lift,<span style='color:red'>Fail,<span style='color:green'>Lift,<span style='color:green'>Lift","0,0,1,1,0,0,0,0,1,0,0,1","0,0,1,1,1,1,0,1,1,1,0,1","0,1,1,0,1,1",10,20,20,"","[{""page_index"":0,""viewing_time"":14706.300000011921},{""page_index"":1,""viewing_time"":4649.600000023842},{""page_index"":2,""viewing_time"":23554.5},{""page_index"":3,""viewing_time"":29273},{""page_index"":4,""viewing_time"":3938},{""page_index"":5,""viewing_time"":39555.59999996424},{""page_index"":6,""viewing_time"":3005.600000023842}]","","","","",NA,NA,"",NA,NA,NA,NA,NA,NA,NA,NA,NA,NA,NA,NA,NA,NA,NA,NA,NA,NA,NA,NA,NA,NA,NA,NA,NA,NA,NA,NA,NA,NA,NA,NA,NA,NA,NA,NA,NA,NA,NA,"",NA,NA,NA,NA,NA,NA,NA,NA,2025-11-18 02:36:47
"null","https://psyc-201.github.io/xiang2023/exp/index1.html?PROLIFIC_PID=REDACTED&STUDY_ID=69168b21477cff9ada6cb980&SESSION_ID=691bd700cfdd9c6c6a09a241","html-keyboard-response",9,561366,"0.0-9.0-1.0","UPV7UOKJX2W8WBJG3Cc2qZqNguLOpKLmG5kfvPl+fFwkwpgRwiFyHQ/+O3iNaasvUdfDO4YiQe4dQkRUniOH0zgyWDnjTGu+oP724nbpkkgAn+tlecXi8I7TXg8Sa2mEjSfVZ5XqssMftnOP/+Z6JB0N/pBThMUqRICsin+96Sq61nDtxhQzhvnVlwLr1g4NX4+Dj1fqWE11MgTtynkr+AazksISfk1MtdJxU5ghcWk/c/7IOrlv1hKVDEi0z/EHkqFq6NYWgHqB8n16SV+j/34MSU5f+itrJUtzheIZw6k6jaSTZjRONzv49lYdENvgPKfanobwpb9PRZFMUDqogQ==","69168b21477cff9ada6cb980","691bd700cfdd9c6c6a09a241","index1","<span style='color:red'>Fail,<span style='color:red'>Fail,<span style='color:green'>Lift,<span style='color:green'>Lift,<span style='color:red'>Fail,<span style='color:red'>Fail,<span style='color:red'>Fail,<span style='color:red'>Fail,<span style='color:green'>Lift,<span style='color:red'>Fail,<span style='color:red'>Fail,<span style='color:green'>Lift","<span style='color:red'>Fail,<span style='color:red'>Fail,<span style='color:green'>Lift,<span style='color:green'>Lift,<span style='color:green'>Lift,<span style='color:green'>Lift,<span style='color:red'>Fail,<span style='color:green'>Lift,<span style='color:green'>Lift,<span style='color:green'>Lift,<span style='color:red'>Fail,<span style='color:green'>Lift","<span style='color:red'>Fail,<span style='color:green'>Lift,<span style='color:green'>Lift,<span style='color:red'>Fail,<span style='color:green'>Lift,<span style='color:green'>Lift","0,0,1,1,0,0,0,0,1,0,0,1","0,0,1,1,1,1,0,1,1,1,0,1","0,1,1,0,1,1",10,20,20,"",""," ","null","","",NA,NA,"",NA,NA,NA,NA,NA,NA,NA,NA,NA,NA,NA,NA,NA,NA,NA,NA,NA,NA,NA,NA,NA,NA,NA,NA,NA,NA,NA,NA,NA,NA,NA,NA,NA,NA,NA,NA,NA,NA,NA,"",NA,NA,NA,NA,NA,NA,NA,NA,2025-11-18 02:36:47
"33594.60000002384","https://psyc-201.github.io/xiang2023/exp/index1.html?PROLIFIC_PID=REDACTED&STUDY_ID=69168b21477cff9ada6cb980&SESSION_ID=691bd700cfdd9c6c6a09a241","survey-multi-choice",10,594962,"0.0-10.0-0.0","UPV7UOKJX2W8WBJG3Cc2qZqNguLOpKLmG5kfvPl+fFwkwpgRwiFyHQ/+O3iNaasvUdfDO4YiQe4dQkRUniOH0zgyWDnjTGu+oP724nbpkkgAn+tlecXi8I7TXg8Sa2mEjSfVZ5XqssMftnOP/+Z6JB0N/pBThMUqRICsin+96Sq61nDtxhQzhvnVlwLr1g4NX4+Dj1fqWE11MgTtynkr+AazksISfk1MtdJxU5ghcWk/c/7IOrlv1hKVDEi0z/EHkqFq6NYWgHqB8n16SV+j/34MSU5f+itrJUtzheIZw6k6jaSTZjRONzv49lYdENvgPKfanobwpb9PRZFMUDqogQ==","69168b21477cff9ada6cb980","691bd700cfdd9c6c6a09a241","index1","<span style='color:red'>Fail,<span style='color:red'>Fail,<span style='color:green'>Lift,<span style='color:green'>Lift,<span style='color:red'>Fail,<span style='color:red'>Fail,<span style='color:red'>Fail,<span style='color:red'>Fail,<span style='color:green'>Lift,<span style='color:red'>Fail,<span style='color:red'>Fail,<span style='color:green'>Lift","<span style='color:red'>Fail,<span style='color:red'>Fail,<span style='color:green'>Lift,<span style='color:green'>Lift,<span style='color:green'>Lift,<span style='color:green'>Lift,<span style='color:red'>Fail,<span style='color:green'>Lift,<span style='color:green'>Lift,<span style='color:green'>Lift,<span style='color:red'>Fail,<span style='color:green'>Lift","<span style='color:red'>Fail,<span style='color:green'>Lift,<span style='color:green'>Lift,<span style='color:red'>Fail,<span style='color:green'>Lift,<span style='color:green'>Lift","0,0,1,1,0,0,0,0,1,0,0,1","0,0,1,1,1,1,0,1,1,1,0,1","0,1,1,0,1,1",10,20,20,"","","","","{""Q0"":""It consists of multiple contests, each contest with three rounds."",""Q1"":""When a new contest begins."",""Q2"":""The box weight always stays the same (equivalent to strength of 5)."",""Q3"":""Each will get $20."",""Q4"":""How close my guesses are to the actual outcome.""}","[0,1,2,3,4]",NA,NA,"",NA,NA,NA,NA,NA,NA,NA,NA,NA,NA,NA,NA,NA,NA,NA,NA,NA,NA,NA,NA,NA,NA,NA,NA,NA,NA,NA,NA,NA,NA,NA,NA,NA,NA,NA,NA,NA,NA,NA,"",NA,NA,NA,NA,NA,NA,NA,NA,2025-11-18 02:36:47
"26618.69999998808","https://psyc-201.github.io/xiang2023/exp/index1.html?PROLIFIC_PID=REDACTED&STUDY_ID=69168b21477cff9ada6cb980&SESSION_ID=691bd700cfdd9c6c6a09a241","instructions",11,621585,"0.0-305.0","UPV7UOKJX2W8WBJG3Cc2qZqNguLOpKLmG5kfvPl+fFwkwpgRwiFyHQ/+O3iNaasvUdfDO4YiQe4dQkRUniOH0zgyWDnjTGu+oP724nbpkkgAn+tlecXi8I7TXg8Sa2mEjSfVZ5XqssMftnOP/+Z6JB0N/pBThMUqRICsin+96Sq61nDtxhQzhvnVlwLr1g4NX4+Dj1fqWE11MgTtynkr+AazksISfk1MtdJxU5ghcWk/c/7IOrlv1hKVDEi0z/EHkqFq6NYWgHqB8n16SV+j/34MSU5f+itrJUtzheIZw6k6jaSTZjRONzv49lYdENvgPKfanobwpb9PRZFMUDqogQ==","69168b21477cff9ada6cb980","691bd700cfdd9c6c6a09a241","index1","<span style='color:red'>Fail,<span style='color:red'>Fail,<span style='color:green'>Lift,<span style='color:green'>Lift,<span style='color:red'>Fail,<span style='color:red'>Fail,<span style='color:red'>Fail,<span style='color:red'>Fail,<span style='color:green'>Lift,<span style='color:red'>Fail,<span style='color:red'>Fail,<span style='color:green'>Lift","<span style='color:red'>Fail,<span style='color:red'>Fail,<span style='color:green'>Lift,<span style='color:green'>Lift,<span style='color:green'>Lift,<span style='color:green'>Lift,<span style='color:red'>Fail,<span style='color:green'>Lift,<span style='color:green'>Lift,<span style='color:green'>Lift,<span style='color:red'>Fail,<span style='color:green'>Lift","<span style='color:red'>Fail,<span style='color:green'>Lift,<span style='color:green'>Lift,<span style='color:red'>Fail,<span style='color:green'>Lift,<span style='color:green'>Lift","0,0,1,1,0,0,0,0,1,0,0,1","0,0,1,1,1,1,0,1,1,1,0,1","0,1,1,0,1,1",10,20,20,"","[{""page_index"":0,""viewing_time"":17392.899999976158},{""page_index"":1,""viewing_time"":9225.400000035763}]","","","","",NA,NA,"",NA,NA,NA,NA,NA,NA,NA,NA,NA,NA,NA,NA,NA,NA,NA,NA,NA,NA,NA,NA,NA,NA,NA,NA,NA,NA,NA,NA,NA,NA,NA,NA,NA,NA,NA,NA,NA,NA,NA,"",NA,NA,NA,NA,NA,NA,NA,NA,2025-11-18 02:36:47
"null","https://psyc-201.github.io/xiang2023/exp/index1.html?PROLIFIC_PID=REDACTED&STUDY_ID=69168b21477cff9ada6cb980&SESSION_ID=691bd700cfdd9c6c6a09a241","html-keyboard-response",12,622586,"0.0-306.0","UPV7UOKJX2W8WBJG3Cc2qZqNguLOpKLmG5kfvPl+fFwkwpgRwiFyHQ/+O3iNaasvUdfDO4YiQe4dQkRUniOH0zgyWDnjTGu+oP724nbpkkgAn+tlecXi8I7TXg8Sa2mEjSfVZ5XqssMftnOP/+Z6JB0N/pBThMUqRICsin+96Sq61nDtxhQzhvnVlwLr1g4NX4+Dj1fqWE11MgTtynkr+AazksISfk1MtdJxU5ghcWk/c/7IOrlv1hKVDEi0z/EHkqFq6NYWgHqB8n16SV+j/34MSU5f+itrJUtzheIZw6k6jaSTZjRONzv49lYdENvgPKfanobwpb9PRZFMUDqogQ==","69168b21477cff9ada6cb980","691bd700cfdd9c6c6a09a241","index1","<span style='color:red'>Fail,<span style='color:red'>Fail,<span style='color:green'>Lift,<span style='color:green'>Lift,<span style='color:red'>Fail,<span style='color:red'>Fail,<span style='color:red'>Fail,<span style='color:red'>Fail,<span style='color:green'>Lift,<span style='color:red'>Fail,<span style='color:red'>Fail,<span style='color:green'>Lift","<span style='color:red'>Fail,<span style='color:red'>Fail,<span style='color:green'>Lift,<span style='color:green'>Lift,<span style='color:green'>Lift,<span style='color:green'>Lift,<span style='color:red'>Fail,<span style='color:green'>Lift,<span style='color:green'>Lift,<span style='color:green'>Lift,<span style='color:red'>Fail,<span style='color:green'>Lift","<span style='color:red'>Fail,<span style='color:green'>Lift,<span style='color:green'>Lift,<span style='color:red'>Fail,<span style='color:green'>Lift,<span style='color:green'>Lift","0,0,1,1,0,0,0,0,1,0,0,1","0,0,1,1,1,1,0,1,1,1,0,1","0,1,1,0,1,1",10,20,20,"",""," ","null","","",NA,1,"",NA,NA,NA,NA,NA,NA,NA,NA,NA,NA,NA,NA,NA,NA,NA,NA,NA,NA,NA,NA,NA,NA,NA,NA,NA,NA,NA,NA,NA,NA,NA,NA,NA,NA,NA,NA,NA,NA,NA,"",NA,NA,NA,NA,NA,NA,NA,NA,2025-11-18 02:36:47
"null","https://psyc-201.github.io/xiang2023/exp/index1.html?PROLIFIC_PID=REDACTED&STUDY_ID=69168b21477cff9ada6cb980&SESSION_ID=691bd700cfdd9c6c6a09a241","html-keyboard-response",13,625602,"0.0-307.0","UPV7UOKJX2W8WBJG3Cc2qZqNguLOpKLmG5kfvPl+fFwkwpgRwiFyHQ/+O3iNaasvUdfDO4YiQe4dQkRUniOH0zgyWDnjTGu+oP724nbpkkgAn+tlecXi8I7TXg8Sa2mEjSfVZ5XqssMftnOP/+Z6JB0N/pBThMUqRICsin+96Sq61nDtxhQzhvnVlwLr1g4NX4+Dj1fqWE11MgTtynkr+AazksISfk1MtdJxU5ghcWk/c/7IOrlv1hKVDEi0z/EHkqFq6NYWgHqB8n16SV+j/34MSU5f+itrJUtzheIZw6k6jaSTZjRONzv49lYdENvgPKfanobwpb9PRZFMUDqogQ==","69168b21477cff9ada6cb980","691bd700cfdd9c6c6a09a241","index1","<span style='color:red'>Fail,<span style='color:red'>Fail,<span style='color:green'>Lift,<span style='color:green'>Lift,<span style='color:red'>Fail,<span style='color:red'>Fail,<span style='color:red'>Fail,<span style='color:red'>Fail,<span style='color:green'>Lift,<span style='color:red'>Fail,<span style='color:red'>Fail,<span style='color:green'>Lift","<span style='color:red'>Fail,<span style='color:red'>Fail,<span style='color:green'>Lift,<span style='color:green'>Lift,<span style='color:green'>Lift,<span style='color:green'>Lift,<span style='color:red'>Fail,<span style='color:green'>Lift,<span style='color:green'>Lift,<span style='color:green'>Lift,<span style='color:red'>Fail,<span style='color:green'>Lift","<span style='color:red'>Fail,<span style='color:green'>Lift,<span style='color:green'>Lift,<span style='color:red'>Fail,<span style='color:green'>Lift,<span style='color:green'>Lift","0,0,1,1,0,0,0,0,1,0,0,1","0,0,1,1,1,1,0,1,1,1,0,1","0,1,1,0,1,1",10,20,20,"","","<p style='font-size:30px'><b> New Contest! </b></p>","null","","",NA,1,"",NA,NA,NA,NA,NA,NA,NA,NA,NA,NA,NA,NA,NA,NA,NA,NA,NA,NA,NA,NA,NA,NA,NA,NA,NA,NA,NA,NA,NA,NA,NA,NA,NA,NA,NA,NA,NA,NA,NA,"",NA,NA,NA,NA,NA,NA,NA,NA,2025-11-18 02:36:47
"36920.5","https://psyc-201.github.io/xiang2023/exp/index1.html?PROLIFIC_PID=REDACTED&STUDY_ID=69168b21477cff9ada6cb980&SESSION_ID=691bd700cfdd9c6c6a09a241","survey-html-form",14,662528,"0.0-308.0","UPV7UOKJX2W8WBJG3Cc2qZqNguLOpKLmG5kfvPl+fFwkwpgRwiFyHQ/+O3iNaasvUdfDO4YiQe4dQkRUniOH0zgyWDnjTGu+oP724nbpkkgAn+tlecXi8I7TXg8Sa2mEjSfVZ5XqssMftnOP/+Z6JB0N/pBThMUqRICsin+96Sq61nDtxhQzhvnVlwLr1g4NX4+Dj1fqWE11MgTtynkr+AazksISfk1MtdJxU5ghcWk/c/7IOrlv1hKVDEi0z/EHkqFq6NYWgHqB8n16SV+j/34MSU5f+itrJUtzheIZw6k6jaSTZjRONzv49lYdENvgPKfanobwpb9PRZFMUDqogQ==","69168b21477cff9ada6cb980","691bd700cfdd9c6c6a09a241","index1","<span style='color:red'>Fail,<span style='color:red'>Fail,<span style='color:green'>Lift,<span style='color:green'>Lift,<span style='color:red'>Fail,<span style='color:red'>Fail,<span style='color:red'>Fail,<span style='color:red'>Fail,<span style='color:green'>Lift,<span style='color:red'>Fail,<span style='color:red'>Fail,<span style='color:green'>Lift","<span style='color:red'>Fail,<span style='color:red'>Fail,<span style='color:green'>Lift,<span style='color:green'>Lift,<span style='color:green'>Lift,<span style='color:green'>Lift,<span style='color:red'>Fail,<span style='color:green'>Lift,<span style='color:green'>Lift,<span style='color:green'>Lift,<span style='color:red'>Fail,<span style='color:green'>Lift","<span style='color:red'>Fail,<span style='color:green'>Lift,<span style='color:green'>Lift,<span style='color:red'>Fail,<span style='color:green'>Lift,<span style='color:green'>Lift","0,0,1,1,0,0,0,0,1,0,0,1","0,0,1,1,1,1,0,1,1,1,0,1","0,1,1,0,1,1",10,20,20,"","","","","{""box1"":""3"",""box2"":""6"",""box4"":""70""}","",NA,1,"round1_outcome",1,1,1,3,6,NA,70,0,1,10,3,6,NA,70,0,1,10,NA,NA,NA,NA,NA,NA,NA,NA,NA,NA,NA,NA,NA,NA,NA,NA,NA,NA,NA,NA,NA,NA,"",NA,NA,NA,NA,NA,NA,NA,NA,2025-11-18 02:36:47
"15960.100000023842","https://psyc-201.github.io/xiang2023/exp/index1.html?PROLIFIC_PID=REDACTED&STUDY_ID=69168b21477cff9ada6cb980&SESSION_ID=691bd700cfdd9c6c6a09a241","survey-html-form",15,678492,"0.0-309.0","UPV7UOKJX2W8WBJG3Cc2qZqNguLOpKLmG5kfvPl+fFwkwpgRwiFyHQ/+O3iNaasvUdfDO4YiQe4dQkRUniOH0zgyWDnjTGu+oP724nbpkkgAn+tlecXi8I7TXg8Sa2mEjSfVZ5XqssMftnOP/+Z6JB0N/pBThMUqRICsin+96Sq61nDtxhQzhvnVlwLr1g4NX4+Dj1fqWE11MgTtynkr+AazksISfk1MtdJxU5ghcWk/c/7IOrlv1hKVDEi0z/EHkqFq6NYWgHqB8n16SV+j/34MSU5f+itrJUtzheIZw6k6jaSTZjRONzv49lYdENvgPKfanobwpb9PRZFMUDqogQ==","69168b21477cff9ada6cb980","691bd700cfdd9c6c6a09a241","index1","<span style='color:red'>Fail,<span style='color:red'>Fail,<span style='color:green'>Lift,<span style='color:green'>Lift,<span style='color:red'>Fail,<span style='color:red'>Fail,<span style='color:red'>Fail,<span style='color:red'>Fail,<span style='color:green'>Lift,<span style='color:red'>Fail,<span style='color:red'>Fail,<span style='color:green'>Lift","<span style='color:red'>Fail,<span style='color:red'>Fail,<span style='color:green'>Lift,<span style='color:green'>Lift,<span style='color:green'>Lift,<span style='color:green'>Lift,<span style='color:red'>Fail,<span style='color:green'>Lift,<span style='color:green'>Lift,<span style='color:green'>Lift,<span style='color:red'>Fail,<span style='color:green'>Lift","<span style='color:red'>Fail,<span style='color:green'>Lift,<span style='color:green'>Lift,<span style='color:red'>Fail,<span style='color:green'>Lift,<span style='color:green'>Lift","0,0,1,1,0,0,0,0,1,0,0,1","0,0,1,1,1,1,0,1,1,1,0,1","0,1,1,0,1,1",10,20,20,"","","","","{""box1"":""50"",""box2"":""100""}","",NA,1,"round2_ready",2,1,2,NA,NA,NA,NA,NA,NA,NA,NA,NA,NA,NA,NA,NA,NA,50,100,50,100,NA,NA,NA,NA,NA,NA,NA,NA,NA,NA,NA,NA,NA,NA,NA,NA,NA,NA,"",NA,NA,NA,NA,NA,NA,NA,NA,2025-11-18 02:36:47
"31906.69999998808","https://psyc-201.github.io/xiang2023/exp/index1.html?PROLIFIC_PID=REDACTED&STUDY_ID=69168b21477cff9ada6cb980&SESSION_ID=691bd700cfdd9c6c6a09a241","survey-html-form",16,710402,"0.0-310.0","UPV7UOKJX2W8WBJG3Cc2qZqNguLOpKLmG5kfvPl+fFwkwpgRwiFyHQ/+O3iNaasvUdfDO4YiQe4dQkRUniOH0zgyWDnjTGu+oP724nbpkkgAn+tlecXi8I7TXg8Sa2mEjSfVZ5XqssMftnOP/+Z6JB0N/pBThMUqRICsin+96Sq61nDtxhQzhvnVlwLr1g4NX4+Dj1fqWE11MgTtynkr+AazksISfk1MtdJxU5ghcWk/c/7IOrlv1hKVDEi0z/EHkqFq6NYWgHqB8n16SV+j/34MSU5f+itrJUtzheIZw6k6jaSTZjRONzv49lYdENvgPKfanobwpb9PRZFMUDqogQ==","69168b21477cff9ada6cb980","691bd700cfdd9c6c6a09a241","index1","<span style='color:red'>Fail,<span style='color:red'>Fail,<span style='color:green'>Lift,<span style='color:green'>Lift,<span style='color:red'>Fail,<span style='color:red'>Fail,<span style='color:red'>Fail,<span style='color:red'>Fail,<span style='color:green'>Lift,<span style='color:red'>Fail,<span style='color:red'>Fail,<span style='color:green'>Lift","<span style='color:red'>Fail,<span style='color:red'>Fail,<span style='color:green'>Lift,<span style='color:green'>Lift,<span style='color:green'>Lift,<span style='color:green'>Lift,<span style='color:red'>Fail,<span style='color:green'>Lift,<span style='color:green'>Lift,<span style='color:green'>Lift,<span style='color:red'>Fail,<span style='color:green'>Lift","<span style='color:red'>Fail,<span style='color:green'>Lift,<span style='color:green'>Lift,<span style='color:red'>Fail,<span style='color:green'>Lift,<span style='color:green'>Lift","0,0,1,1,0,0,0,0,1,0,0,1","0,0,1,1,1,1,0,1,1,1,0,1","0,1,1,0,1,1",10,20,20,"","","","","{""box1"":""1"",""box2"":""7"",""box4"":""100""}","",NA,1,"round2_outcome",3,1,2,1,7,NA,100,0,1,20,NA,NA,NA,NA,NA,NA,NA,NA,NA,NA,NA,1,7,NA,100,0,1,20,NA,NA,NA,NA,NA,NA,NA,NA,NA,NA,NA,"",NA,NA,NA,NA,NA,NA,NA,NA,2025-11-18 02:36:47
"8882.199999988079","https://psyc-201.github.io/xiang2023/exp/index1.html?PROLIFIC_PID=REDACTED&STUDY_ID=69168b21477cff9ada6cb980&SESSION_ID=691bd700cfdd9c6c6a09a241","survey-html-form",17,719288,"0.0-311.0","UPV7UOKJX2W8WBJG3Cc2qZqNguLOpKLmG5kfvPl+fFwkwpgRwiFyHQ/+O3iNaasvUdfDO4YiQe4dQkRUniOH0zgyWDnjTGu+oP724nbpkkgAn+tlecXi8I7TXg8Sa2mEjSfVZ5XqssMftnOP/+Z6JB0N/pBThMUqRICsin+96Sq61nDtxhQzhvnVlwLr1g4NX4+Dj1fqWE11MgTtynkr+AazksISfk1MtdJxU5ghcWk/c/7IOrlv1hKVDEi0z/EHkqFq6NYWgHqB8n16SV+j/34MSU5f+itrJUtzheIZw6k6jaSTZjRONzv49lYdENvgPKfanobwpb9PRZFMUDqogQ==","69168b21477cff9ada6cb980","691bd700cfdd9c6c6a09a241","index1","<span style='color:red'>Fail,<span style='color:red'>Fail,<span style='color:green'>Lift,<span style='color:green'>Lift,<span style='color:red'>Fail,<span style='color:red'>Fail,<span style='color:red'>Fail,<span style='color:red'>Fail,<span style='color:green'>Lift,<span style='color:red'>Fail,<span style='color:red'>Fail,<span style='color:green'>Lift","<span style='color:red'>Fail,<span style='color:red'>Fail,<span style='color:green'>Lift,<span style='color:green'>Lift,<span style='color:green'>Lift,<span style='color:green'>Lift,<span style='color:red'>Fail,<span style='color:green'>Lift,<span style='color:green'>Lift,<span style='color:green'>Lift,<span style='color:red'>Fail,<span style='color:green'>Lift","<span style='color:red'>Fail,<span style='color:green'>Lift,<span style='color:green'>Lift,<span style='color:red'>Fail,<span style='color:green'>Lift,<span style='color:green'>Lift","0,0,1,1,0,0,0,0,1,0,0,1","0,0,1,1,1,1,0,1,1,1,0,1","0,1,1,0,1,1",10,20,20,"","","","","{""box1"":""100""}","",NA,1,"round3_ready",4,1,3,NA,NA,NA,NA,NA,NA,NA,NA,NA,NA,NA,NA,NA,NA,100,100,NA,NA,NA,NA,NA,NA,NA,NA,NA,100,100,NA,NA,NA,NA,NA,NA,NA,NA,NA,"",NA,NA,NA,NA,NA,NA,NA,NA,2025-11-18 02:36:47
"22452.200000047684","https://psyc-201.github.io/xiang2023/exp/index1.html?PROLIFIC_PID=REDACTED&STUDY_ID=69168b21477cff9ada6cb980&SESSION_ID=691bd700cfdd9c6c6a09a241","survey-html-form",18,741741,"0.0-312.0-0.0","UPV7UOKJX2W8WBJG3Cc2qZqNguLOpKLmG5kfvPl+fFwkwpgRwiFyHQ/+O3iNaasvUdfDO4YiQe4dQkRUniOH0zgyWDnjTGu+oP724nbpkkgAn+tlecXi8I7TXg8Sa2mEjSfVZ5XqssMftnOP/+Z6JB0N/pBThMUqRICsin+96Sq61nDtxhQzhvnVlwLr1g4NX4+Dj1fqWE11MgTtynkr+AazksISfk1MtdJxU5ghcWk/c/7IOrlv1hKVDEi0z/EHkqFq6NYWgHqB8n16SV+j/34MSU5f+itrJUtzheIZw6k6jaSTZjRONzv49lYdENvgPKfanobwpb9PRZFMUDqogQ==","69168b21477cff9ada6cb980","691bd700cfdd9c6c6a09a241","index1","<span style='color:red'>Fail,<span style='color:red'>Fail,<span style='color:green'>Lift,<span style='color:green'>Lift,<span style='color:red'>Fail,<span style='color:red'>Fail,<span style='color:red'>Fail,<span style='color:red'>Fail,<span style='color:green'>Lift,<span style='color:red'>Fail,<span style='color:red'>Fail,<span style='color:green'>Lift","<span style='color:red'>Fail,<span style='color:red'>Fail,<span style='color:green'>Lift,<span style='color:green'>Lift,<span style='color:green'>Lift,<span style='color:green'>Lift,<span style='color:red'>Fail,<span style='color:green'>Lift,<span style='color:green'>Lift,<span style='color:green'>Lift,<span style='color:red'>Fail,<span style='color:green'>Lift","<span style='color:red'>Fail,<span style='color:green'>Lift,<span style='color:green'>Lift,<span style='color:red'>Fail,<span style='color:green'>Lift,<span style='color:green'>Lift","0,0,1,1,0,0,0,0,1,0,0,1","0,0,1,1,1,1,0,1,1,1,0,1","0,1,1,0,1,1",10,20,20,"","","","","{""box1"":""2"",""box2"":""7"",""box3"":""100"",""box4"":""50""}","",NA,2,"round3_lift",5,1,3,2,7,100,50,1,1,20,NA,NA,NA,NA,NA,NA,NA,NA,NA,NA,NA,NA,NA,NA,NA,NA,NA,NA,NA,NA,2,7,100,50,1,1,20,NA,NA,"",NA,NA,NA,NA,NA,NA,NA,NA,2025-11-18 02:36:47
"null","https://psyc-201.github.io/xiang2023/exp/index1.html?PROLIFIC_PID=REDACTED&STUDY_ID=69168b21477cff9ada6cb980&SESSION_ID=691bd700cfdd9c6c6a09a241","html-keyboard-response",19,744748,"0.0-316.0","UPV7UOKJX2W8WBJG3Cc2qZqNguLOpKLmG5kfvPl+fFwkwpgRwiFyHQ/+O3iNaasvUdfDO4YiQe4dQkRUniOH0zgyWDnjTGu+oP724nbpkkgAn+tlecXi8I7TXg8Sa2mEjSfVZ5XqssMftnOP/+Z6JB0N/pBThMUqRICsin+96Sq61nDtxhQzhvnVlwLr1g4NX4+Dj1fqWE11MgTtynkr+AazksISfk1MtdJxU5ghcWk/c/7IOrlv1hKVDEi0z/EHkqFq6NYWgHqB8n16SV+j/34MSU5f+itrJUtzheIZw6k6jaSTZjRONzv49lYdENvgPKfanobwpb9PRZFMUDqogQ==","69168b21477cff9ada6cb980","691bd700cfdd9c6c6a09a241","index1","<span style='color:red'>Fail,<span style='color:red'>Fail,<span style='color:green'>Lift,<span style='color:green'>Lift,<span style='color:red'>Fail,<span style='color:red'>Fail,<span style='color:red'>Fail,<span style='color:red'>Fail,<span style='color:green'>Lift,<span style='color:red'>Fail,<span style='color:red'>Fail,<span style='color:green'>Lift","<span style='color:red'>Fail,<span style='color:red'>Fail,<span style='color:green'>Lift,<span style='color:green'>Lift,<span style='color:green'>Lift,<span style='color:green'>Lift,<span style='color:red'>Fail,<span style='color:green'>Lift,<span style='color:green'>Lift,<span style='color:green'>Lift,<span style='color:red'>Fail,<span style='color:green'>Lift","<span style='color:red'>Fail,<span style='color:green'>Lift,<span style='color:green'>Lift,<span style='color:red'>Fail,<span style='color:green'>Lift,<span style='color:green'>Lift","0,0,1,1,0,0,0,0,1,0,0,1","0,0,1,1,1,1,0,1,1,1,0,1","0,1,1,0,1,1",10,20,20,"","","<p style='font-size:30px'><b> New Contest! </b></p>","null","","",NA,2,"",NA,NA,NA,NA,NA,NA,NA,NA,NA,NA,NA,NA,NA,NA,NA,NA,NA,NA,NA,NA,NA,NA,NA,NA,NA,NA,NA,NA,NA,NA,NA,NA,NA,NA,NA,NA,NA,NA,NA,"",NA,NA,NA,NA,NA,NA,NA,NA,2025-11-18 02:36:47
"14793.300000011921","https://psyc-201.github.io/xiang2023/exp/index1.html?PROLIFIC_PID=REDACTED&STUDY_ID=69168b21477cff9ada6cb980&SESSION_ID=691bd700cfdd9c6c6a09a241","survey-html-form",20,759546,"0.0-317.0","UPV7UOKJX2W8WBJG3Cc2qZqNguLOpKLmG5kfvPl+fFwkwpgRwiFyHQ/+O3iNaasvUdfDO4YiQe4dQkRUniOH0zgyWDnjTGu+oP724nbpkkgAn+tlecXi8I7TXg8Sa2mEjSfVZ5XqssMftnOP/+Z6JB0N/pBThMUqRICsin+96Sq61nDtxhQzhvnVlwLr1g4NX4+Dj1fqWE11MgTtynkr+AazksISfk1MtdJxU5ghcWk/c/7IOrlv1hKVDEi0z/EHkqFq6NYWgHqB8n16SV+j/34MSU5f+itrJUtzheIZw6k6jaSTZjRONzv49lYdENvgPKfanobwpb9PRZFMUDqogQ==","69168b21477cff9ada6cb980","691bd700cfdd9c6c6a09a241","index1","<span style='color:red'>Fail,<span style='color:red'>Fail,<span style='color:green'>Lift,<span style='color:green'>Lift,<span style='color:red'>Fail,<span style='color:red'>Fail,<span style='color:red'>Fail,<span style='color:red'>Fail,<span style='color:green'>Lift,<span style='color:red'>Fail,<span style='color:red'>Fail,<span style='color:green'>Lift","<span style='color:red'>Fail,<span style='color:red'>Fail,<span style='color:green'>Lift,<span style='color:green'>Lift,<span style='color:green'>Lift,<span style='color:green'>Lift,<span style='color:red'>Fail,<span style='color:green'>Lift,<span style='color:green'>Lift,<span style='color:green'>Lift,<span style='color:red'>Fail,<span style='color:green'>Lift","<span style='color:red'>Fail,<span style='color:green'>Lift,<span style='color:green'>Lift,<span style='color:red'>Fail,<span style='color:green'>Lift,<span style='color:green'>Lift","0,0,1,1,0,0,0,0,1,0,0,1","0,0,1,1,1,1,0,1,1,1,0,1","0,1,1,0,1,1",10,20,20,"","","","","{""box1"":""1"",""box2"":""1""}","",NA,2,"round1_outcome",1,2,1,1,1,NA,NA,0,0,10,1,1,NA,NA,0,0,10,NA,NA,NA,NA,NA,NA,NA,NA,NA,NA,NA,NA,NA,NA,NA,NA,NA,NA,NA,NA,NA,NA,"",NA,NA,NA,NA,NA,NA,NA,NA,2025-11-18 02:36:47
"9851.700000047684","https://psyc-201.github.io/xiang2023/exp/index1.html?PROLIFIC_PID=REDACTED&STUDY_ID=69168b21477cff9ada6cb980&SESSION_ID=691bd700cfdd9c6c6a09a241","survey-html-form",21,769400,"0.0-318.0","UPV7UOKJX2W8WBJG3Cc2qZqNguLOpKLmG5kfvPl+fFwkwpgRwiFyHQ/+O3iNaasvUdfDO4YiQe4dQkRUniOH0zgyWDnjTGu+oP724nbpkkgAn+tlecXi8I7TXg8Sa2mEjSfVZ5XqssMftnOP/+Z6JB0N/pBThMUqRICsin+96Sq61nDtxhQzhvnVlwLr1g4NX4+Dj1fqWE11MgTtynkr+AazksISfk1MtdJxU5ghcWk/c/7IOrlv1hKVDEi0z/EHkqFq6NYWgHqB8n16SV+j/34MSU5f+itrJUtzheIZw6k6jaSTZjRONzv49lYdENvgPKfanobwpb9PRZFMUDqogQ==","69168b21477cff9ada6cb980","691bd700cfdd9c6c6a09a241","index1","<span style='color:red'>Fail,<span style='color:red'>Fail,<span style='color:green'>Lift,<span style='color:green'>Lift,<span style='color:red'>Fail,<span style='color:red'>Fail,<span style='color:red'>Fail,<span style='color:red'>Fail,<span style='color:green'>Lift,<span style='color:red'>Fail,<span style='color:red'>Fail,<span style='color:green'>Lift","<span style='color:red'>Fail,<span style='color:red'>Fail,<span style='color:green'>Lift,<span style='color:green'>Lift,<span style='color:green'>Lift,<span style='color:green'>Lift,<span style='color:red'>Fail,<span style='color:green'>Lift,<span style='color:green'>Lift,<span style='color:green'>Lift,<span style='color:red'>Fail,<span style='color:green'>Lift","<span style='color:red'>Fail,<span style='color:green'>Lift,<span style='color:green'>Lift,<span style='color:red'>Fail,<span style='color:green'>Lift,<span style='color:green'>Lift","0,0,1,1,0,0,0,0,1,0,0,1","0,0,1,1,1,1,0,1,1,1,0,1","0,1,1,0,1,1",10,20,20,"","","","","{""box1"":""0"",""box2"":""0""}","",NA,2,"round2_ready",2,2,2,NA,NA,NA,NA,NA,NA,NA,NA,NA,NA,NA,NA,NA,NA,0,0,0,0,NA,NA,NA,NA,NA,NA,NA,NA,NA,NA,NA,NA,NA,NA,NA,NA,NA,NA,"",NA,NA,NA,NA,NA,NA,NA,NA,2025-11-18 02:36:47
"16873.5","https://psyc-201.github.io/xiang2023/exp/index1.html?PROLIFIC_PID=REDACTED&STUDY_ID=69168b21477cff9ada6cb980&SESSION_ID=691bd700cfdd9c6c6a09a241","survey-html-form",22,786276,"0.0-319.0","UPV7UOKJX2W8WBJG3Cc2qZqNguLOpKLmG5kfvPl+fFwkwpgRwiFyHQ/+O3iNaasvUdfDO4YiQe4dQkRUniOH0zgyWDnjTGu+oP724nbpkkgAn+tlecXi8I7TXg8Sa2mEjSfVZ5XqssMftnOP/+Z6JB0N/pBThMUqRICsin+96Sq61nDtxhQzhvnVlwLr1g4NX4+Dj1fqWE11MgTtynkr+AazksISfk1MtdJxU5ghcWk/c/7IOrlv1hKVDEi0z/EHkqFq6NYWgHqB8n16SV+j/34MSU5f+itrJUtzheIZw6k6jaSTZjRONzv49lYdENvgPKfanobwpb9PRZFMUDqogQ==","69168b21477cff9ada6cb980","691bd700cfdd9c6c6a09a241","index1","<span style='color:red'>Fail,<span style='color:red'>Fail,<span style='color:green'>Lift,<span style='color:green'>Lift,<span style='color:red'>Fail,<span style='color:red'>Fail,<span style='color:red'>Fail,<span style='color:red'>Fail,<span style='color:green'>Lift,<span style='color:red'>Fail,<span style='color:red'>Fail,<span style='color:green'>Lift","<span style='color:red'>Fail,<span style='color:red'>Fail,<span style='color:green'>Lift,<span style='color:green'>Lift,<span style='color:green'>Lift,<span style='color:green'>Lift,<span style='color:red'>Fail,<span style='color:green'>Lift,<span style='color:green'>Lift,<span style='color:green'>Lift,<span style='color:red'>Fail,<span style='color:green'>Lift","<span style='color:red'>Fail,<span style='color:green'>Lift,<span style='color:green'>Lift,<span style='color:red'>Fail,<span style='color:green'>Lift,<span style='color:green'>Lift","0,0,1,1,0,0,0,0,1,0,0,1","0,0,1,1,1,1,0,1,1,1,0,1","0,1,1,0,1,1",10,20,20,"","","","","{""box1"":""5"",""box2"":""5"",""box3"":""100"",""box4"":""100""}","",NA,2,"round2_outcome",3,2,2,5,5,100,100,1,1,20,NA,NA,NA,NA,NA,NA,NA,NA,NA,NA,NA,5,5,100,100,1,1,20,NA,NA,NA,NA,NA,NA,NA,NA,NA,NA,NA,"",NA,NA,NA,NA,NA,NA,NA,NA,2025-11-18 02:36:47
"4401.400000035763","https://psyc-201.github.io/xiang2023/exp/index1.html?PROLIFIC_PID=REDACTED&STUDY_ID=69168b21477cff9ada6cb980&SESSION_ID=691bd700cfdd9c6c6a09a241","survey-html-form",23,790681,"0.0-320.0","UPV7UOKJX2W8WBJG3Cc2qZqNguLOpKLmG5kfvPl+fFwkwpgRwiFyHQ/+O3iNaasvUdfDO4YiQe4dQkRUniOH0zgyWDnjTGu+oP724nbpkkgAn+tlecXi8I7TXg8Sa2mEjSfVZ5XqssMftnOP/+Z6JB0N/pBThMUqRICsin+96Sq61nDtxhQzhvnVlwLr1g4NX4+Dj1fqWE11MgTtynkr+AazksISfk1MtdJxU5ghcWk/c/7IOrlv1hKVDEi0z/EHkqFq6NYWgHqB8n16SV+j/34MSU5f+itrJUtzheIZw6k6jaSTZjRONzv49lYdENvgPKfanobwpb9PRZFMUDqogQ==","69168b21477cff9ada6cb980","691bd700cfdd9c6c6a09a241","index1","<span style='color:red'>Fail,<span style='color:red'>Fail,<span style='color:green'>Lift,<span style='color:green'>Lift,<span style='color:red'>Fail,<span style='color:red'>Fail,<span style='color:red'>Fail,<span style='color:red'>Fail,<span style='color:green'>Lift,<span style='color:red'>Fail,<span style='color:red'>Fail,<span style='color:green'>Lift","<span style='color:red'>Fail,<span style='color:red'>Fail,<span style='color:green'>Lift,<span style='color:green'>Lift,<span style='color:green'>Lift,<span style='color:green'>Lift,<span style='color:red'>Fail,<span style='color:green'>Lift,<span style='color:green'>Lift,<span style='color:green'>Lift,<span style='color:red'>Fail,<span style='color:green'>Lift","<span style='color:red'>Fail,<span style='color:green'>Lift,<span style='color:green'>Lift,<span style='color:red'>Fail,<span style='color:green'>Lift,<span style='color:green'>Lift","0,0,1,1,0,0,0,0,1,0,0,1","0,0,1,1,1,1,0,1,1,1,0,1","0,1,1,0,1,1",10,20,20,"","","","","{""box1"":""100""}","",NA,2,"round3_ready",4,2,3,NA,NA,NA,NA,NA,NA,NA,NA,NA,NA,NA,NA,NA,NA,100,100,NA,NA,NA,NA,NA,NA,NA,NA,NA,100,100,NA,NA,NA,NA,NA,NA,NA,NA,NA,"",NA,NA,NA,NA,NA,NA,NA,NA,2025-11-18 02:36:47
"20128","https://psyc-201.github.io/xiang2023/exp/index1.html?PROLIFIC_PID=REDACTED&STUDY_ID=69168b21477cff9ada6cb980&SESSION_ID=691bd700cfdd9c6c6a09a241","survey-html-form",24,810812,"0.0-321.0-0.0","UPV7UOKJX2W8WBJG3Cc2qZqNguLOpKLmG5kfvPl+fFwkwpgRwiFyHQ/+O3iNaasvUdfDO4YiQe4dQkRUniOH0zgyWDnjTGu+oP724nbpkkgAn+tlecXi8I7TXg8Sa2mEjSfVZ5XqssMftnOP/+Z6JB0N/pBThMUqRICsin+96Sq61nDtxhQzhvnVlwLr1g4NX4+Dj1fqWE11MgTtynkr+AazksISfk1MtdJxU5ghcWk/c/7IOrlv1hKVDEi0z/EHkqFq6NYWgHqB8n16SV+j/34MSU5f+itrJUtzheIZw6k6jaSTZjRONzv49lYdENvgPKfanobwpb9PRZFMUDqogQ==","69168b21477cff9ada6cb980","691bd700cfdd9c6c6a09a241","index1","<span style='color:red'>Fail,<span style='color:red'>Fail,<span style='color:green'>Lift,<span style='color:green'>Lift,<span style='color:red'>Fail,<span style='color:red'>Fail,<span style='color:red'>Fail,<span style='color:red'>Fail,<span style='color:green'>Lift,<span style='color:red'>Fail,<span style='color:red'>Fail,<span style='color:green'>Lift","<span style='color:red'>Fail,<span style='color:red'>Fail,<span style='color:green'>Lift,<span style='color:green'>Lift,<span style='color:green'>Lift,<span style='color:green'>Lift,<span style='color:red'>Fail,<span style='color:green'>Lift,<span style='color:green'>Lift,<span style='color:green'>Lift,<span style='color:red'>Fail,<span style='color:green'>Lift","<span style='color:red'>Fail,<span style='color:green'>Lift,<span style='color:green'>Lift,<span style='color:red'>Fail,<span style='color:green'>Lift,<span style='color:green'>Lift","0,0,1,1,0,0,0,0,1,0,0,1","0,0,1,1,1,1,0,1,1,1,0,1","0,1,1,0,1,1",10,20,20,"","","","","{""box1"":""1"",""box2"":""5"",""box3"":""100"",""box4"":""50""}","",NA,3,"round3_lift",5,2,3,1,5,100,50,1,1,20,NA,NA,NA,NA,NA,NA,NA,NA,NA,NA,NA,NA,NA,NA,NA,NA,NA,NA,NA,NA,1,5,100,50,1,1,20,NA,NA,"",NA,NA,NA,NA,NA,NA,NA,NA,2025-11-18 02:36:47
"null","https://psyc-201.github.io/xiang2023/exp/index1.html?PROLIFIC_PID=REDACTED&STUDY_ID=69168b21477cff9ada6cb980&SESSION_ID=691bd700cfdd9c6c6a09a241","html-keyboard-response",25,813823,"0.0-325.0","UPV7UOKJX2W8WBJG3Cc2qZqNguLOpKLmG5kfvPl+fFwkwpgRwiFyHQ/+O3iNaasvUdfDO4YiQe4dQkRUniOH0zgyWDnjTGu+oP724nbpkkgAn+tlecXi8I7TXg8Sa2mEjSfVZ5XqssMftnOP/+Z6JB0N/pBThMUqRICsin+96Sq61nDtxhQzhvnVlwLr1g4NX4+Dj1fqWE11MgTtynkr+AazksISfk1MtdJxU5ghcWk/c/7IOrlv1hKVDEi0z/EHkqFq6NYWgHqB8n16SV+j/34MSU5f+itrJUtzheIZw6k6jaSTZjRONzv49lYdENvgPKfanobwpb9PRZFMUDqogQ==","69168b21477cff9ada6cb980","691bd700cfdd9c6c6a09a241","index1","<span style='color:red'>Fail,<span style='color:red'>Fail,<span style='color:green'>Lift,<span style='color:green'>Lift,<span style='color:red'>Fail,<span style='color:red'>Fail,<span style='color:red'>Fail,<span style='color:red'>Fail,<span style='color:green'>Lift,<span style='color:red'>Fail,<span style='color:red'>Fail,<span style='color:green'>Lift","<span style='color:red'>Fail,<span style='color:red'>Fail,<span style='color:green'>Lift,<span style='color:green'>Lift,<span style='color:green'>Lift,<span style='color:green'>Lift,<span style='color:red'>Fail,<span style='color:green'>Lift,<span style='color:green'>Lift,<span style='color:green'>Lift,<span style='color:red'>Fail,<span style='color:green'>Lift","<span style='color:red'>Fail,<span style='color:green'>Lift,<span style='color:green'>Lift,<span style='color:red'>Fail,<span style='color:green'>Lift,<span style='color:green'>Lift","0,0,1,1,0,0,0,0,1,0,0,1","0,0,1,1,1,1,0,1,1,1,0,1","0,1,1,0,1,1",10,20,20,"","","<p style='font-size:30px'><b> New Contest! </b></p>","null","","",NA,3,"",NA,NA,NA,NA,NA,NA,NA,NA,NA,NA,NA,NA,NA,NA,NA,NA,NA,NA,NA,NA,NA,NA,NA,NA,NA,NA,NA,NA,NA,NA,NA,NA,NA,NA,NA,NA,NA,NA,NA,"",NA,NA,NA,NA,NA,NA,NA,NA,2025-11-18 02:36:47
"19558.5","https://psyc-201.github.io/xiang2023/exp/index1.html?PROLIFIC_PID=REDACTED&STUDY_ID=69168b21477cff9ada6cb980&SESSION_ID=691bd700cfdd9c6c6a09a241","survey-html-form",26,833385,"0.0-326.0","UPV7UOKJX2W8WBJG3Cc2qZqNguLOpKLmG5kfvPl+fFwkwpgRwiFyHQ/+O3iNaasvUdfDO4YiQe4dQkRUniOH0zgyWDnjTGu+oP724nbpkkgAn+tlecXi8I7TXg8Sa2mEjSfVZ5XqssMftnOP/+Z6JB0N/pBThMUqRICsin+96Sq61nDtxhQzhvnVlwLr1g4NX4+Dj1fqWE11MgTtynkr+AazksISfk1MtdJxU5ghcWk/c/7IOrlv1hKVDEi0z/EHkqFq6NYWgHqB8n16SV+j/34MSU5f+itrJUtzheIZw6k6jaSTZjRONzv49lYdENvgPKfanobwpb9PRZFMUDqogQ==","69168b21477cff9ada6cb980","691bd700cfdd9c6c6a09a241","index1","<span style='color:red'>Fail,<span style='color:red'>Fail,<span style='color:green'>Lift,<span style='color:green'>Lift,<span style='color:red'>Fail,<span style='color:red'>Fail,<span style='color:red'>Fail,<span style='color:red'>Fail,<span style='color:green'>Lift,<span style='color:red'>Fail,<span style='color:red'>Fail,<span style='color:green'>Lift","<span style='color:red'>Fail,<span style='color:red'>Fail,<span style='color:green'>Lift,<span style='color:green'>Lift,<span style='color:green'>Lift,<span style='color:green'>Lift,<span style='color:red'>Fail,<span style='color:green'>Lift,<span style='color:green'>Lift,<span style='color:green'>Lift,<span style='color:red'>Fail,<span style='color:green'>Lift","<span style='color:red'>Fail,<span style='color:green'>Lift,<span style='color:green'>Lift,<span style='color:red'>Fail,<span style='color:green'>Lift,<span style='color:green'>Lift","0,0,1,1,0,0,0,0,1,0,0,1","0,0,1,1,1,1,0,1,1,1,0,1","0,1,1,0,1,1",10,20,20,"","","","","{""box1"":""2"",""box2"":""2""}","",NA,3,"round1_outcome",1,3,1,2,2,NA,NA,0,0,10,2,2,NA,NA,0,0,10,NA,NA,NA,NA,NA,NA,NA,NA,NA,NA,NA,NA,NA,NA,NA,NA,NA,NA,NA,NA,NA,NA,"",NA,NA,NA,NA,NA,NA,NA,NA,2025-11-18 02:36:47
"11132.900000035763","https://psyc-201.github.io/xiang2023/exp/index1.html?PROLIFIC_PID=REDACTED&STUDY_ID=69168b21477cff9ada6cb980&SESSION_ID=691bd700cfdd9c6c6a09a241","survey-html-form",27,844521,"0.0-327.0","UPV7UOKJX2W8WBJG3Cc2qZqNguLOpKLmG5kfvPl+fFwkwpgRwiFyHQ/+O3iNaasvUdfDO4YiQe4dQkRUniOH0zgyWDnjTGu+oP724nbpkkgAn+tlecXi8I7TXg8Sa2mEjSfVZ5XqssMftnOP/+Z6JB0N/pBThMUqRICsin+96Sq61nDtxhQzhvnVlwLr1g4NX4+Dj1fqWE11MgTtynkr+AazksISfk1MtdJxU5ghcWk/c/7IOrlv1hKVDEi0z/EHkqFq6NYWgHqB8n16SV+j/34MSU5f+itrJUtzheIZw6k6jaSTZjRONzv49lYdENvgPKfanobwpb9PRZFMUDqogQ==","69168b21477cff9ada6cb980","691bd700cfdd9c6c6a09a241","index1","<span style='color:red'>Fail,<span style='color:red'>Fail,<span style='color:green'>Lift,<span style='color:green'>Lift,<span style='color:red'>Fail,<span style='color:red'>Fail,<span style='color:red'>Fail,<span style='color:red'>Fail,<span style='color:green'>Lift,<span style='color:red'>Fail,<span style='color:red'>Fail,<span style='color:green'>Lift","<span style='color:red'>Fail,<span style='color:red'>Fail,<span style='color:green'>Lift,<span style='color:green'>Lift,<span style='color:green'>Lift,<span style='color:green'>Lift,<span style='color:red'>Fail,<span style='color:green'>Lift,<span style='color:green'>Lift,<span style='color:green'>Lift,<span style='color:red'>Fail,<span style='color:green'>Lift","<span style='color:red'>Fail,<span style='color:green'>Lift,<span style='color:green'>Lift,<span style='color:red'>Fail,<span style='color:green'>Lift,<span style='color:green'>Lift","0,0,1,1,0,0,0,0,1,0,0,1","0,0,1,1,1,1,0,1,1,1,0,1","0,1,1,0,1,1",10,20,20,"","","","","{""box1"":""50"",""box2"":""50""}","",NA,3,"round2_ready",2,3,2,NA,NA,NA,NA,NA,NA,NA,NA,NA,NA,NA,NA,NA,NA,50,50,50,50,NA,NA,NA,NA,NA,NA,NA,NA,NA,NA,NA,NA,NA,NA,NA,NA,NA,NA,"",NA,NA,NA,NA,NA,NA,NA,NA,2025-11-18 02:36:47
"8923.200000047684","https://psyc-201.github.io/xiang2023/exp/index1.html?PROLIFIC_PID=REDACTED&STUDY_ID=69168b21477cff9ada6cb980&SESSION_ID=691bd700cfdd9c6c6a09a241","survey-html-form",28,853448,"0.0-328.0","UPV7UOKJX2W8WBJG3Cc2qZqNguLOpKLmG5kfvPl+fFwkwpgRwiFyHQ/+O3iNaasvUdfDO4YiQe4dQkRUniOH0zgyWDnjTGu+oP724nbpkkgAn+tlecXi8I7TXg8Sa2mEjSfVZ5XqssMftnOP/+Z6JB0N/pBThMUqRICsin+96Sq61nDtxhQzhvnVlwLr1g4NX4+Dj1fqWE11MgTtynkr+AazksISfk1MtdJxU5ghcWk/c/7IOrlv1hKVDEi0z/EHkqFq6NYWgHqB8n16SV+j/34MSU5f+itrJUtzheIZw6k6jaSTZjRONzv49lYdENvgPKfanobwpb9PRZFMUDqogQ==","69168b21477cff9ada6cb980","691bd700cfdd9c6c6a09a241","index1","<span style='color:red'>Fail,<span style='color:red'>Fail,<span style='color:green'>Lift,<span style='color:green'>Lift,<span style='color:red'>Fail,<span style='color:red'>Fail,<span style='color:red'>Fail,<span style='color:red'>Fail,<span style='color:green'>Lift,<span style='color:red'>Fail,<span style='color:red'>Fail,<span style='color:green'>Lift","<span style='color:red'>Fail,<span style='color:red'>Fail,<span style='color:green'>Lift,<span style='color:green'>Lift,<span style='color:green'>Lift,<span style='color:green'>Lift,<span style='color:red'>Fail,<span style='color:green'>Lift,<span style='color:green'>Lift,<span style='color:green'>Lift,<span style='color:red'>Fail,<span style='color:green'>Lift","<span style='color:red'>Fail,<span style='color:green'>Lift,<span style='color:green'>Lift,<span style='color:red'>Fail,<span style='color:green'>Lift,<span style='color:green'>Lift","0,0,1,1,0,0,0,0,1,0,0,1","0,0,1,1,1,1,0,1,1,1,0,1","0,1,1,0,1,1",10,20,20,"","","","","{""box1"":""1"",""box2"":""1""}","",NA,3,"round2_outcome",3,3,2,1,1,NA,NA,0,0,20,NA,NA,NA,NA,NA,NA,NA,NA,NA,NA,NA,1,1,NA,NA,0,0,20,NA,NA,NA,NA,NA,NA,NA,NA,NA,NA,NA,"",NA,NA,NA,NA,NA,NA,NA,NA,2025-11-18 02:36:47
"4097.299999952316","https://psyc-201.github.io/xiang2023/exp/index1.html?PROLIFIC_PID=REDACTED&STUDY_ID=69168b21477cff9ada6cb980&SESSION_ID=691bd700cfdd9c6c6a09a241","survey-html-form",29,857547,"0.0-329.0","UPV7UOKJX2W8WBJG3Cc2qZqNguLOpKLmG5kfvPl+fFwkwpgRwiFyHQ/+O3iNaasvUdfDO4YiQe4dQkRUniOH0zgyWDnjTGu+oP724nbpkkgAn+tlecXi8I7TXg8Sa2mEjSfVZ5XqssMftnOP/+Z6JB0N/pBThMUqRICsin+96Sq61nDtxhQzhvnVlwLr1g4NX4+Dj1fqWE11MgTtynkr+AazksISfk1MtdJxU5ghcWk/c/7IOrlv1hKVDEi0z/EHkqFq6NYWgHqB8n16SV+j/34MSU5f+itrJUtzheIZw6k6jaSTZjRONzv49lYdENvgPKfanobwpb9PRZFMUDqogQ==","69168b21477cff9ada6cb980","691bd700cfdd9c6c6a09a241","index1","<span style='color:red'>Fail,<span style='color:red'>Fail,<span style='color:green'>Lift,<span style='color:green'>Lift,<span style='color:red'>Fail,<span style='color:red'>Fail,<span style='color:red'>Fail,<span style='color:red'>Fail,<span style='color:green'>Lift,<span style='color:red'>Fail,<span style='color:red'>Fail,<span style='color:green'>Lift","<span style='color:red'>Fail,<span style='color:red'>Fail,<span style='color:green'>Lift,<span style='color:green'>Lift,<span style='color:green'>Lift,<span style='color:green'>Lift,<span style='color:red'>Fail,<span style='color:green'>Lift,<span style='color:green'>Lift,<span style='color:green'>Lift,<span style='color:red'>Fail,<span style='color:green'>Lift","<span style='color:red'>Fail,<span style='color:green'>Lift,<span style='color:green'>Lift,<span style='color:red'>Fail,<span style='color:green'>Lift,<span style='color:green'>Lift","0,0,1,1,0,0,0,0,1,0,0,1","0,0,1,1,1,1,0,1,1,1,0,1","0,1,1,0,1,1",10,20,20,"","","","","{""box1"":""0""}","",NA,3,"round3_ready",4,3,3,NA,NA,NA,NA,NA,NA,NA,NA,NA,NA,NA,NA,NA,NA,0,0,NA,NA,NA,NA,NA,NA,NA,NA,NA,0,0,NA,NA,NA,NA,NA,NA,NA,NA,NA,"",NA,NA,NA,NA,NA,NA,NA,NA,2025-11-18 02:36:47
"17181.80000001192","https://psyc-201.github.io/xiang2023/exp/index1.html?PROLIFIC_PID=REDACTED&STUDY_ID=69168b21477cff9ada6cb980&SESSION_ID=691bd700cfdd9c6c6a09a241","survey-html-form",30,874731,"0.0-331.0-0.0","UPV7UOKJX2W8WBJG3Cc2qZqNguLOpKLmG5kfvPl+fFwkwpgRwiFyHQ/+O3iNaasvUdfDO4YiQe4dQkRUniOH0zgyWDnjTGu+oP724nbpkkgAn+tlecXi8I7TXg8Sa2mEjSfVZ5XqssMftnOP/+Z6JB0N/pBThMUqRICsin+96Sq61nDtxhQzhvnVlwLr1g4NX4+Dj1fqWE11MgTtynkr+AazksISfk1MtdJxU5ghcWk/c/7IOrlv1hKVDEi0z/EHkqFq6NYWgHqB8n16SV+j/34MSU5f+itrJUtzheIZw6k6jaSTZjRONzv49lYdENvgPKfanobwpb9PRZFMUDqogQ==","69168b21477cff9ada6cb980","691bd700cfdd9c6c6a09a241","index1","<span style='color:red'>Fail,<span style='color:red'>Fail,<span style='color:green'>Lift,<span style='color:green'>Lift,<span style='color:red'>Fail,<span style='color:red'>Fail,<span style='color:red'>Fail,<span style='color:red'>Fail,<span style='color:green'>Lift,<span style='color:red'>Fail,<span style='color:red'>Fail,<span style='color:green'>Lift","<span style='color:red'>Fail,<span style='color:red'>Fail,<span style='color:green'>Lift,<span style='color:green'>Lift,<span style='color:green'>Lift,<span style='color:green'>Lift,<span style='color:red'>Fail,<span style='color:green'>Lift,<span style='color:green'>Lift,<span style='color:green'>Lift,<span style='color:red'>Fail,<span style='color:green'>Lift","<span style='color:red'>Fail,<span style='color:green'>Lift,<span style='color:green'>Lift,<span style='color:red'>Fail,<span style='color:green'>Lift,<span style='color:green'>Lift","0,0,1,1,0,0,0,0,1,0,0,1","0,0,1,1,1,1,0,1,1,1,0,1","0,1,1,0,1,1",10,20,20,"","","","","{""box1"":""1"",""box2"":""1"",""box3"":""999"",""box4"":""999""}","",NA,4,"round3_fail",5,3,3,1,1,NA,NA,0,0,20,NA,NA,NA,NA,NA,NA,NA,NA,NA,NA,NA,NA,NA,NA,NA,NA,NA,NA,NA,NA,1,1,NA,NA,0,0,20,1,1,"",NA,NA,NA,NA,NA,NA,NA,NA,2025-11-18 02:36:47
"null","https://psyc-201.github.io/xiang2023/exp/index1.html?PROLIFIC_PID=REDACTED&STUDY_ID=69168b21477cff9ada6cb980&SESSION_ID=691bd700cfdd9c6c6a09a241","html-keyboard-response",31,877734,"0.0-334.0","UPV7UOKJX2W8WBJG3Cc2qZqNguLOpKLmG5kfvPl+fFwkwpgRwiFyHQ/+O3iNaasvUdfDO4YiQe4dQkRUniOH0zgyWDnjTGu+oP724nbpkkgAn+tlecXi8I7TXg8Sa2mEjSfVZ5XqssMftnOP/+Z6JB0N/pBThMUqRICsin+96Sq61nDtxhQzhvnVlwLr1g4NX4+Dj1fqWE11MgTtynkr+AazksISfk1MtdJxU5ghcWk/c/7IOrlv1hKVDEi0z/EHkqFq6NYWgHqB8n16SV+j/34MSU5f+itrJUtzheIZw6k6jaSTZjRONzv49lYdENvgPKfanobwpb9PRZFMUDqogQ==","69168b21477cff9ada6cb980","691bd700cfdd9c6c6a09a241","index1","<span style='color:red'>Fail,<span style='color:red'>Fail,<span style='color:green'>Lift,<span style='color:green'>Lift,<span style='color:red'>Fail,<span style='color:red'>Fail,<span style='color:red'>Fail,<span style='color:red'>Fail,<span style='color:green'>Lift,<span style='color:red'>Fail,<span style='color:red'>Fail,<span style='color:green'>Lift","<span style='color:red'>Fail,<span style='color:red'>Fail,<span style='color:green'>Lift,<span style='color:green'>Lift,<span style='color:green'>Lift,<span style='color:green'>Lift,<span style='color:red'>Fail,<span style='color:green'>Lift,<span style='color:green'>Lift,<span style='color:green'>Lift,<span style='color:red'>Fail,<span style='color:green'>Lift","<span style='color:red'>Fail,<span style='color:green'>Lift,<span style='color:green'>Lift,<span style='color:red'>Fail,<span style='color:green'>Lift,<span style='color:green'>Lift","0,0,1,1,0,0,0,0,1,0,0,1","0,0,1,1,1,1,0,1,1,1,0,1","0,1,1,0,1,1",10,20,20,"","","<p style='font-size:30px'><b> New Contest! </b></p>","null","","",NA,4,"",NA,NA,NA,NA,NA,NA,NA,NA,NA,NA,NA,NA,NA,NA,NA,NA,NA,NA,NA,NA,NA,NA,NA,NA,NA,NA,NA,NA,NA,NA,NA,NA,NA,NA,NA,NA,NA,NA,NA,"",NA,NA,NA,NA,NA,NA,NA,NA,2025-11-18 02:36:47
"35004.10000002384","https://psyc-201.github.io/xiang2023/exp/index1.html?PROLIFIC_PID=REDACTED&STUDY_ID=69168b21477cff9ada6cb980&SESSION_ID=691bd700cfdd9c6c6a09a241","survey-html-form",32,912740,"0.0-335.0","UPV7UOKJX2W8WBJG3Cc2qZqNguLOpKLmG5kfvPl+fFwkwpgRwiFyHQ/+O3iNaasvUdfDO4YiQe4dQkRUniOH0zgyWDnjTGu+oP724nbpkkgAn+tlecXi8I7TXg8Sa2mEjSfVZ5XqssMftnOP/+Z6JB0N/pBThMUqRICsin+96Sq61nDtxhQzhvnVlwLr1g4NX4+Dj1fqWE11MgTtynkr+AazksISfk1MtdJxU5ghcWk/c/7IOrlv1hKVDEi0z/EHkqFq6NYWgHqB8n16SV+j/34MSU5f+itrJUtzheIZw6k6jaSTZjRONzv49lYdENvgPKfanobwpb9PRZFMUDqogQ==","69168b21477cff9ada6cb980","691bd700cfdd9c6c6a09a241","index1","<span style='color:red'>Fail,<span style='color:red'>Fail,<span style='color:green'>Lift,<span style='color:green'>Lift,<span style='color:red'>Fail,<span style='color:red'>Fail,<span style='color:red'>Fail,<span style='color:red'>Fail,<span style='color:green'>Lift,<span style='color:red'>Fail,<span style='color:red'>Fail,<span style='color:green'>Lift","<span style='color:red'>Fail,<span style='color:red'>Fail,<span style='color:green'>Lift,<span style='color:green'>Lift,<span style='color:green'>Lift,<span style='color:green'>Lift,<span style='color:red'>Fail,<span style='color:green'>Lift,<span style='color:green'>Lift,<span style='color:green'>Lift,<span style='color:red'>Fail,<span style='color:green'>Lift","<span style='color:red'>Fail,<span style='color:green'>Lift,<span style='color:green'>Lift,<span style='color:red'>Fail,<span style='color:green'>Lift,<span style='color:green'>Lift","0,0,1,1,0,0,0,0,1,0,0,1","0,0,1,1,1,1,0,1,1,1,0,1","0,1,1,0,1,1",10,20,20,"","","","","{""box1"":""8"",""box2"":""8"",""box3"":""30"",""box4"":""40""}","",NA,4,"round1_outcome",1,4,1,8,8,30,40,1,1,10,8,8,30,40,1,1,10,NA,NA,NA,NA,NA,NA,NA,NA,NA,NA,NA,NA,NA,NA,NA,NA,NA,NA,NA,NA,NA,NA,"",NA,NA,NA,NA,NA,NA,NA,NA,2025-11-18 02:36:47
"13968.100000023842","https://psyc-201.github.io/xiang2023/exp/index1.html?PROLIFIC_PID=REDACTED&STUDY_ID=69168b21477cff9ada6cb980&SESSION_ID=691bd700cfdd9c6c6a09a241","survey-html-form",33,926709,"0.0-336.0","UPV7UOKJX2W8WBJG3Cc2qZqNguLOpKLmG5kfvPl+fFwkwpgRwiFyHQ/+O3iNaasvUdfDO4YiQe4dQkRUniOH0zgyWDnjTGu+oP724nbpkkgAn+tlecXi8I7TXg8Sa2mEjSfVZ5XqssMftnOP/+Z6JB0N/pBThMUqRICsin+96Sq61nDtxhQzhvnVlwLr1g4NX4+Dj1fqWE11MgTtynkr+AazksISfk1MtdJxU5ghcWk/c/7IOrlv1hKVDEi0z/EHkqFq6NYWgHqB8n16SV+j/34MSU5f+itrJUtzheIZw6k6jaSTZjRONzv49lYdENvgPKfanobwpb9PRZFMUDqogQ==","69168b21477cff9ada6cb980","691bd700cfdd9c6c6a09a241","index1","<span style='color:red'>Fail,<span style='color:red'>Fail,<span style='color:green'>Lift,<span style='color:green'>Lift,<span style='color:red'>Fail,<span style='color:red'>Fail,<span style='color:red'>Fail,<span style='color:red'>Fail,<span style='color:green'>Lift,<span style='color:red'>Fail,<span style='color:red'>Fail,<span style='color:green'>Lift","<span style='color:red'>Fail,<span style='color:red'>Fail,<span style='color:green'>Lift,<span style='color:green'>Lift,<span style='color:green'>Lift,<span style='color:green'>Lift,<span style='color:red'>Fail,<span style='color:green'>Lift,<span style='color:green'>Lift,<span style='color:green'>Lift,<span style='color:red'>Fail,<span style='color:green'>Lift","<span style='color:red'>Fail,<span style='color:green'>Lift,<span style='color:green'>Lift,<span style='color:red'>Fail,<span style='color:green'>Lift,<span style='color:green'>Lift","0,0,1,1,0,0,0,0,1,0,0,1","0,0,1,1,1,1,0,1,1,1,0,1","0,1,1,0,1,1",10,20,20,"","","","","{""box1"":""100"",""box2"":""100""}","",NA,4,"round2_ready",2,4,2,NA,NA,NA,NA,NA,NA,NA,NA,NA,NA,NA,NA,NA,NA,100,100,100,100,NA,NA,NA,NA,NA,NA,NA,NA,NA,NA,NA,NA,NA,NA,NA,NA,NA,NA,"",NA,NA,NA,NA,NA,NA,NA,NA,2025-11-18 02:36:47
"22625.299999952316","https://psyc-201.github.io/xiang2023/exp/index1.html?PROLIFIC_PID=REDACTED&STUDY_ID=69168b21477cff9ada6cb980&SESSION_ID=691bd700cfdd9c6c6a09a241","survey-html-form",34,949337,"0.0-337.0","UPV7UOKJX2W8WBJG3Cc2qZqNguLOpKLmG5kfvPl+fFwkwpgRwiFyHQ/+O3iNaasvUdfDO4YiQe4dQkRUniOH0zgyWDnjTGu+oP724nbpkkgAn+tlecXi8I7TXg8Sa2mEjSfVZ5XqssMftnOP/+Z6JB0N/pBThMUqRICsin+96Sq61nDtxhQzhvnVlwLr1g4NX4+Dj1fqWE11MgTtynkr+AazksISfk1MtdJxU5ghcWk/c/7IOrlv1hKVDEi0z/EHkqFq6NYWgHqB8n16SV+j/34MSU5f+itrJUtzheIZw6k6jaSTZjRONzv49lYdENvgPKfanobwpb9PRZFMUDqogQ==","69168b21477cff9ada6cb980","691bd700cfdd9c6c6a09a241","index1","<span style='color:red'>Fail,<span style='color:red'>Fail,<span style='color:green'>Lift,<span style='color:green'>Lift,<span style='color:red'>Fail,<span style='color:red'>Fail,<span style='color:red'>Fail,<span style='color:red'>Fail,<span style='color:green'>Lift,<span style='color:red'>Fail,<span style='color:red'>Fail,<span style='color:green'>Lift","<span style='color:red'>Fail,<span style='color:red'>Fail,<span style='color:green'>Lift,<span style='color:green'>Lift,<span style='color:green'>Lift,<span style='color:green'>Lift,<span style='color:red'>Fail,<span style='color:green'>Lift,<span style='color:green'>Lift,<span style='color:green'>Lift,<span style='color:red'>Fail,<span style='color:green'>Lift","<span style='color:red'>Fail,<span style='color:green'>Lift,<span style='color:green'>Lift,<span style='color:red'>Fail,<span style='color:green'>Lift,<span style='color:green'>Lift","0,0,1,1,0,0,0,0,1,0,0,1","0,0,1,1,1,1,0,1,1,1,0,1","0,1,1,0,1,1",10,20,20,"","","","","{""box1"":""7"",""box2"":""8"",""box3"":""30"",""box4"":""40""}","",NA,4,"round2_outcome",3,4,2,7,8,30,40,1,1,20,NA,NA,NA,NA,NA,NA,NA,NA,NA,NA,NA,7,8,30,40,1,1,20,NA,NA,NA,NA,NA,NA,NA,NA,NA,NA,NA,"",NA,NA,NA,NA,NA,NA,NA,NA,2025-11-18 02:36:47
"7051.800000011921","https://psyc-201.github.io/xiang2023/exp/index1.html?PROLIFIC_PID=REDACTED&STUDY_ID=69168b21477cff9ada6cb980&SESSION_ID=691bd700cfdd9c6c6a09a241","survey-html-form",35,956392,"0.0-338.0","UPV7UOKJX2W8WBJG3Cc2qZqNguLOpKLmG5kfvPl+fFwkwpgRwiFyHQ/+O3iNaasvUdfDO4YiQe4dQkRUniOH0zgyWDnjTGu+oP724nbpkkgAn+tlecXi8I7TXg8Sa2mEjSfVZ5XqssMftnOP/+Z6JB0N/pBThMUqRICsin+96Sq61nDtxhQzhvnVlwLr1g4NX4+Dj1fqWE11MgTtynkr+AazksISfk1MtdJxU5ghcWk/c/7IOrlv1hKVDEi0z/EHkqFq6NYWgHqB8n16SV+j/34MSU5f+itrJUtzheIZw6k6jaSTZjRONzv49lYdENvgPKfanobwpb9PRZFMUDqogQ==","69168b21477cff9ada6cb980","691bd700cfdd9c6c6a09a241","index1","<span style='color:red'>Fail,<span style='color:red'>Fail,<span style='color:green'>Lift,<span style='color:green'>Lift,<span style='color:red'>Fail,<span style='color:red'>Fail,<span style='color:red'>Fail,<span style='color:red'>Fail,<span style='color:green'>Lift,<span style='color:red'>Fail,<span style='color:red'>Fail,<span style='color:green'>Lift","<span style='color:red'>Fail,<span style='color:red'>Fail,<span style='color:green'>Lift,<span style='color:green'>Lift,<span style='color:green'>Lift,<span style='color:green'>Lift,<span style='color:red'>Fail,<span style='color:green'>Lift,<span style='color:green'>Lift,<span style='color:green'>Lift,<span style='color:red'>Fail,<span style='color:green'>Lift","<span style='color:red'>Fail,<span style='color:green'>Lift,<span style='color:green'>Lift,<span style='color:red'>Fail,<span style='color:green'>Lift,<span style='color:green'>Lift","0,0,1,1,0,0,0,0,1,0,0,1","0,0,1,1,1,1,0,1,1,1,0,1","0,1,1,0,1,1",10,20,20,"","","","","{""box1"":""100""}","",NA,4,"round3_ready",4,4,3,NA,NA,NA,NA,NA,NA,NA,NA,NA,NA,NA,NA,NA,NA,100,100,NA,NA,NA,NA,NA,NA,NA,NA,NA,100,100,NA,NA,NA,NA,NA,NA,NA,NA,NA,"",NA,NA,NA,NA,NA,NA,NA,NA,2025-11-18 02:36:47
"12017.900000035763","https://psyc-201.github.io/xiang2023/exp/index1.html?PROLIFIC_PID=REDACTED&STUDY_ID=69168b21477cff9ada6cb980&SESSION_ID=691bd700cfdd9c6c6a09a241","survey-html-form",36,968411,"0.0-339.0-0.0","UPV7UOKJX2W8WBJG3Cc2qZqNguLOpKLmG5kfvPl+fFwkwpgRwiFyHQ/+O3iNaasvUdfDO4YiQe4dQkRUniOH0zgyWDnjTGu+oP724nbpkkgAn+tlecXi8I7TXg8Sa2mEjSfVZ5XqssMftnOP/+Z6JB0N/pBThMUqRICsin+96Sq61nDtxhQzhvnVlwLr1g4NX4+Dj1fqWE11MgTtynkr+AazksISfk1MtdJxU5ghcWk/c/7IOrlv1hKVDEi0z/EHkqFq6NYWgHqB8n16SV+j/34MSU5f+itrJUtzheIZw6k6jaSTZjRONzv49lYdENvgPKfanobwpb9PRZFMUDqogQ==","69168b21477cff9ada6cb980","691bd700cfdd9c6c6a09a241","index1","<span style='color:red'>Fail,<span style='color:red'>Fail,<span style='color:green'>Lift,<span style='color:green'>Lift,<span style='color:red'>Fail,<span style='color:red'>Fail,<span style='color:red'>Fail,<span style='color:red'>Fail,<span style='color:green'>Lift,<span style='color:red'>Fail,<span style='color:red'>Fail,<span style='color:green'>Lift","<span style='color:red'>Fail,<span style='color:red'>Fail,<span style='color:green'>Lift,<span style='color:green'>Lift,<span style='color:green'>Lift,<span style='color:green'>Lift,<span style='color:red'>Fail,<span style='color:green'>Lift,<span style='color:green'>Lift,<span style='color:green'>Lift,<span style='color:red'>Fail,<span style='color:green'>Lift","<span style='color:red'>Fail,<span style='color:green'>Lift,<span style='color:green'>Lift,<span style='color:red'>Fail,<span style='color:green'>Lift,<span style='color:green'>Lift","0,0,1,1,0,0,0,0,1,0,0,1","0,0,1,1,1,1,0,1,1,1,0,1","0,1,1,0,1,1",10,20,20,"","","","","{""box1"":""7"",""box2"":""8"",""box3"":""30"",""box4"":""40""}","",NA,5,"round3_lift",5,4,3,7,8,30,40,1,1,20,NA,NA,NA,NA,NA,NA,NA,NA,NA,NA,NA,NA,NA,NA,NA,NA,NA,NA,NA,NA,7,8,30,40,1,1,20,NA,NA,"",NA,NA,NA,NA,NA,NA,NA,NA,2025-11-18 02:36:47
"null","https://psyc-201.github.io/xiang2023/exp/index1.html?PROLIFIC_PID=REDACTED&STUDY_ID=69168b21477cff9ada6cb980&SESSION_ID=691bd700cfdd9c6c6a09a241","html-keyboard-response",37,971417,"0.0-343.0","UPV7UOKJX2W8WBJG3Cc2qZqNguLOpKLmG5kfvPl+fFwkwpgRwiFyHQ/+O3iNaasvUdfDO4YiQe4dQkRUniOH0zgyWDnjTGu+oP724nbpkkgAn+tlecXi8I7TXg8Sa2mEjSfVZ5XqssMftnOP/+Z6JB0N/pBThMUqRICsin+96Sq61nDtxhQzhvnVlwLr1g4NX4+Dj1fqWE11MgTtynkr+AazksISfk1MtdJxU5ghcWk/c/7IOrlv1hKVDEi0z/EHkqFq6NYWgHqB8n16SV+j/34MSU5f+itrJUtzheIZw6k6jaSTZjRONzv49lYdENvgPKfanobwpb9PRZFMUDqogQ==","69168b21477cff9ada6cb980","691bd700cfdd9c6c6a09a241","index1","<span style='color:red'>Fail,<span style='color:red'>Fail,<span style='color:green'>Lift,<span style='color:green'>Lift,<span style='color:red'>Fail,<span style='color:red'>Fail,<span style='color:red'>Fail,<span style='color:red'>Fail,<span style='color:green'>Lift,<span style='color:red'>Fail,<span style='color:red'>Fail,<span style='color:green'>Lift","<span style='color:red'>Fail,<span style='color:red'>Fail,<span style='color:green'>Lift,<span style='color:green'>Lift,<span style='color:green'>Lift,<span style='color:green'>Lift,<span style='color:red'>Fail,<span style='color:green'>Lift,<span style='color:green'>Lift,<span style='color:green'>Lift,<span style='color:red'>Fail,<span style='color:green'>Lift","<span style='color:red'>Fail,<span style='color:green'>Lift,<span style='color:green'>Lift,<span style='color:red'>Fail,<span style='color:green'>Lift,<span style='color:green'>Lift","0,0,1,1,0,0,0,0,1,0,0,1","0,0,1,1,1,1,0,1,1,1,0,1","0,1,1,0,1,1",10,20,20,"","","<p style='font-size:30px'><b> New Contest! </b></p>","null","","",NA,5,"",NA,NA,NA,NA,NA,NA,NA,NA,NA,NA,NA,NA,NA,NA,NA,NA,NA,NA,NA,NA,NA,NA,NA,NA,NA,NA,NA,NA,NA,NA,NA,NA,NA,NA,NA,NA,NA,NA,NA,"",NA,NA,NA,NA,NA,NA,NA,NA,2025-11-18 02:36:47
"13775.699999988079","https://psyc-201.github.io/xiang2023/exp/index1.html?PROLIFIC_PID=REDACTED&STUDY_ID=69168b21477cff9ada6cb980&SESSION_ID=691bd700cfdd9c6c6a09a241","survey-html-form",38,985195,"0.0-344.0","UPV7UOKJX2W8WBJG3Cc2qZqNguLOpKLmG5kfvPl+fFwkwpgRwiFyHQ/+O3iNaasvUdfDO4YiQe4dQkRUniOH0zgyWDnjTGu+oP724nbpkkgAn+tlecXi8I7TXg8Sa2mEjSfVZ5XqssMftnOP/+Z6JB0N/pBThMUqRICsin+96Sq61nDtxhQzhvnVlwLr1g4NX4+Dj1fqWE11MgTtynkr+AazksISfk1MtdJxU5ghcWk/c/7IOrlv1hKVDEi0z/EHkqFq6NYWgHqB8n16SV+j/34MSU5f+itrJUtzheIZw6k6jaSTZjRONzv49lYdENvgPKfanobwpb9PRZFMUDqogQ==","69168b21477cff9ada6cb980","691bd700cfdd9c6c6a09a241","index1","<span style='color:red'>Fail,<span style='color:red'>Fail,<span style='color:green'>Lift,<span style='color:green'>Lift,<span style='color:red'>Fail,<span style='color:red'>Fail,<span style='color:red'>Fail,<span style='color:red'>Fail,<span style='color:green'>Lift,<span style='color:red'>Fail,<span style='color:red'>Fail,<span style='color:green'>Lift","<span style='color:red'>Fail,<span style='color:red'>Fail,<span style='color:green'>Lift,<span style='color:green'>Lift,<span style='color:green'>Lift,<span style='color:green'>Lift,<span style='color:red'>Fail,<span style='color:green'>Lift,<span style='color:green'>Lift,<span style='color:green'>Lift,<span style='color:red'>Fail,<span style='color:green'>Lift","<span style='color:red'>Fail,<span style='color:green'>Lift,<span style='color:green'>Lift,<span style='color:red'>Fail,<span style='color:green'>Lift,<span style='color:green'>Lift","0,0,1,1,0,0,0,0,1,0,0,1","0,0,1,1,1,1,0,1,1,1,0,1","0,1,1,0,1,1",10,20,20,"","","","","{""box1"":""1"",""box2"":""1""}","",NA,5,"round1_outcome",1,5,1,1,1,NA,NA,0,0,10,1,1,NA,NA,0,0,10,NA,NA,NA,NA,NA,NA,NA,NA,NA,NA,NA,NA,NA,NA,NA,NA,NA,NA,NA,NA,NA,NA,"",NA,NA,NA,NA,NA,NA,NA,NA,2025-11-18 02:36:47
"8788.400000035763","https://psyc-201.github.io/xiang2023/exp/index1.html?PROLIFIC_PID=REDACTED&STUDY_ID=69168b21477cff9ada6cb980&SESSION_ID=691bd700cfdd9c6c6a09a241","survey-html-form",39,993986,"0.0-345.0","UPV7UOKJX2W8WBJG3Cc2qZqNguLOpKLmG5kfvPl+fFwkwpgRwiFyHQ/+O3iNaasvUdfDO4YiQe4dQkRUniOH0zgyWDnjTGu+oP724nbpkkgAn+tlecXi8I7TXg8Sa2mEjSfVZ5XqssMftnOP/+Z6JB0N/pBThMUqRICsin+96Sq61nDtxhQzhvnVlwLr1g4NX4+Dj1fqWE11MgTtynkr+AazksISfk1MtdJxU5ghcWk/c/7IOrlv1hKVDEi0z/EHkqFq6NYWgHqB8n16SV+j/34MSU5f+itrJUtzheIZw6k6jaSTZjRONzv49lYdENvgPKfanobwpb9PRZFMUDqogQ==","69168b21477cff9ada6cb980","691bd700cfdd9c6c6a09a241","index1","<span style='color:red'>Fail,<span style='color:red'>Fail,<span style='color:green'>Lift,<span style='color:green'>Lift,<span style='color:red'>Fail,<span style='color:red'>Fail,<span style='color:red'>Fail,<span style='color:red'>Fail,<span style='color:green'>Lift,<span style='color:red'>Fail,<span style='color:red'>Fail,<span style='color:green'>Lift","<span style='color:red'>Fail,<span style='color:red'>Fail,<span style='color:green'>Lift,<span style='color:green'>Lift,<span style='color:green'>Lift,<span style='color:green'>Lift,<span style='color:red'>Fail,<span style='color:green'>Lift,<span style='color:green'>Lift,<span style='color:green'>Lift,<span style='color:red'>Fail,<span style='color:green'>Lift","<span style='color:red'>Fail,<span style='color:green'>Lift,<span style='color:green'>Lift,<span style='color:red'>Fail,<span style='color:green'>Lift,<span style='color:green'>Lift","0,0,1,1,0,0,0,0,1,0,0,1","0,0,1,1,1,1,0,1,1,1,0,1","0,1,1,0,1,1",10,20,20,"","","","","{""box1"":""0"",""box2"":""0""}","",NA,5,"round2_ready",2,5,2,NA,NA,NA,NA,NA,NA,NA,NA,NA,NA,NA,NA,NA,NA,0,0,0,0,NA,NA,NA,NA,NA,NA,NA,NA,NA,NA,NA,NA,NA,NA,NA,NA,NA,NA,"",NA,NA,NA,NA,NA,NA,NA,NA,2025-11-18 02:36:47
"16956.19999998808","https://psyc-201.github.io/xiang2023/exp/index1.html?PROLIFIC_PID=REDACTED&STUDY_ID=69168b21477cff9ada6cb980&SESSION_ID=691bd700cfdd9c6c6a09a241","survey-html-form",40,1010945,"0.0-346.0","UPV7UOKJX2W8WBJG3Cc2qZqNguLOpKLmG5kfvPl+fFwkwpgRwiFyHQ/+O3iNaasvUdfDO4YiQe4dQkRUniOH0zgyWDnjTGu+oP724nbpkkgAn+tlecXi8I7TXg8Sa2mEjSfVZ5XqssMftnOP/+Z6JB0N/pBThMUqRICsin+96Sq61nDtxhQzhvnVlwLr1g4NX4+Dj1fqWE11MgTtynkr+AazksISfk1MtdJxU5ghcWk/c/7IOrlv1hKVDEi0z/EHkqFq6NYWgHqB8n16SV+j/34MSU5f+itrJUtzheIZw6k6jaSTZjRONzv49lYdENvgPKfanobwpb9PRZFMUDqogQ==","69168b21477cff9ada6cb980","691bd700cfdd9c6c6a09a241","index1","<span style='color:red'>Fail,<span style='color:red'>Fail,<span style='color:green'>Lift,<span style='color:green'>Lift,<span style='color:red'>Fail,<span style='color:red'>Fail,<span style='color:red'>Fail,<span style='color:red'>Fail,<span style='color:green'>Lift,<span style='color:red'>Fail,<span style='color:red'>Fail,<span style='color:green'>Lift","<span style='color:red'>Fail,<span style='color:red'>Fail,<span style='color:green'>Lift,<span style='color:green'>Lift,<span style='color:green'>Lift,<span style='color:green'>Lift,<span style='color:red'>Fail,<span style='color:green'>Lift,<span style='color:green'>Lift,<span style='color:green'>Lift,<span style='color:red'>Fail,<span style='color:green'>Lift","<span style='color:red'>Fail,<span style='color:green'>Lift,<span style='color:green'>Lift,<span style='color:red'>Fail,<span style='color:green'>Lift,<span style='color:green'>Lift","0,0,1,1,0,0,0,0,1,0,0,1","0,0,1,1,1,1,0,1,1,1,0,1","0,1,1,0,1,1",10,20,20,"","","","","{""box1"":""1"",""box2"":""5"",""box4"":""50""}","",NA,5,"round2_outcome",3,5,2,1,5,NA,50,0,1,20,NA,NA,NA,NA,NA,NA,NA,NA,NA,NA,NA,1,5,NA,50,0,1,20,NA,NA,NA,NA,NA,NA,NA,NA,NA,NA,NA,"",NA,NA,NA,NA,NA,NA,NA,NA,2025-11-18 02:36:47
"8066.600000023842","https://psyc-201.github.io/xiang2023/exp/index1.html?PROLIFIC_PID=REDACTED&STUDY_ID=69168b21477cff9ada6cb980&SESSION_ID=691bd700cfdd9c6c6a09a241","survey-html-form",41,1019015,"0.0-347.0","UPV7UOKJX2W8WBJG3Cc2qZqNguLOpKLmG5kfvPl+fFwkwpgRwiFyHQ/+O3iNaasvUdfDO4YiQe4dQkRUniOH0zgyWDnjTGu+oP724nbpkkgAn+tlecXi8I7TXg8Sa2mEjSfVZ5XqssMftnOP/+Z6JB0N/pBThMUqRICsin+96Sq61nDtxhQzhvnVlwLr1g4NX4+Dj1fqWE11MgTtynkr+AazksISfk1MtdJxU5ghcWk/c/7IOrlv1hKVDEi0z/EHkqFq6NYWgHqB8n16SV+j/34MSU5f+itrJUtzheIZw6k6jaSTZjRONzv49lYdENvgPKfanobwpb9PRZFMUDqogQ==","69168b21477cff9ada6cb980","691bd700cfdd9c6c6a09a241","index1","<span style='color:red'>Fail,<span style='color:red'>Fail,<span style='color:green'>Lift,<span style='color:green'>Lift,<span style='color:red'>Fail,<span style='color:red'>Fail,<span style='color:red'>Fail,<span style='color:red'>Fail,<span style='color:green'>Lift,<span style='color:red'>Fail,<span style='color:red'>Fail,<span style='color:green'>Lift","<span style='color:red'>Fail,<span style='color:red'>Fail,<span style='color:green'>Lift,<span style='color:green'>Lift,<span style='color:green'>Lift,<span style='color:green'>Lift,<span style='color:red'>Fail,<span style='color:green'>Lift,<span style='color:green'>Lift,<span style='color:green'>Lift,<span style='color:red'>Fail,<span style='color:green'>Lift","<span style='color:red'>Fail,<span style='color:green'>Lift,<span style='color:green'>Lift,<span style='color:red'>Fail,<span style='color:green'>Lift,<span style='color:green'>Lift","0,0,1,1,0,0,0,0,1,0,0,1","0,0,1,1,1,1,0,1,1,1,0,1","0,1,1,0,1,1",10,20,20,"","","","","{""box1"":""100""}","",NA,5,"round3_ready",4,5,3,NA,NA,NA,NA,NA,NA,NA,NA,NA,NA,NA,NA,NA,NA,100,100,NA,NA,NA,NA,NA,NA,NA,NA,NA,100,100,NA,NA,NA,NA,NA,NA,NA,NA,NA,"",NA,NA,NA,NA,NA,NA,NA,NA,2025-11-18 02:36:47
"29238.099999964237","https://psyc-201.github.io/xiang2023/exp/index1.html?PROLIFIC_PID=REDACTED&STUDY_ID=69168b21477cff9ada6cb980&SESSION_ID=691bd700cfdd9c6c6a09a241","survey-html-form",42,1048257,"0.0-349.0-0.0","UPV7UOKJX2W8WBJG3Cc2qZqNguLOpKLmG5kfvPl+fFwkwpgRwiFyHQ/+O3iNaasvUdfDO4YiQe4dQkRUniOH0zgyWDnjTGu+oP724nbpkkgAn+tlecXi8I7TXg8Sa2mEjSfVZ5XqssMftnOP/+Z6JB0N/pBThMUqRICsin+96Sq61nDtxhQzhvnVlwLr1g4NX4+Dj1fqWE11MgTtynkr+AazksISfk1MtdJxU5ghcWk/c/7IOrlv1hKVDEi0z/EHkqFq6NYWgHqB8n16SV+j/34MSU5f+itrJUtzheIZw6k6jaSTZjRONzv49lYdENvgPKfanobwpb9PRZFMUDqogQ==","69168b21477cff9ada6cb980","691bd700cfdd9c6c6a09a241","index1","<span style='color:red'>Fail,<span style='color:red'>Fail,<span style='color:green'>Lift,<span style='color:green'>Lift,<span style='color:red'>Fail,<span style='color:red'>Fail,<span style='color:red'>Fail,<span style='color:red'>Fail,<span style='color:green'>Lift,<span style='color:red'>Fail,<span style='color:red'>Fail,<span style='color:green'>Lift","<span style='color:red'>Fail,<span style='color:red'>Fail,<span style='color:green'>Lift,<span style='color:green'>Lift,<span style='color:green'>Lift,<span style='color:green'>Lift,<span style='color:red'>Fail,<span style='color:green'>Lift,<span style='color:green'>Lift,<span style='color:green'>Lift,<span style='color:red'>Fail,<span style='color:green'>Lift","<span style='color:red'>Fail,<span style='color:green'>Lift,<span style='color:green'>Lift,<span style='color:red'>Fail,<span style='color:green'>Lift,<span style='color:green'>Lift","0,0,1,1,0,0,0,0,1,0,0,1","0,0,1,1,1,1,0,1,1,1,0,1","0,1,1,0,1,1",10,20,20,"","","","","{""box1"":""1"",""box2"":""4"",""box3"":""999"",""box4"":""999""}","",NA,6,"round3_fail",5,5,3,1,4,NA,NA,0,0,20,NA,NA,NA,NA,NA,NA,NA,NA,NA,NA,NA,NA,NA,NA,NA,NA,NA,NA,NA,NA,1,4,NA,NA,0,0,20,1,1,"",NA,NA,NA,NA,NA,NA,NA,NA,2025-11-18 02:36:47
"null","https://psyc-201.github.io/xiang2023/exp/index1.html?PROLIFIC_PID=REDACTED&STUDY_ID=69168b21477cff9ada6cb980&SESSION_ID=691bd700cfdd9c6c6a09a241","html-keyboard-response",43,1051271,"0.0-352.0","UPV7UOKJX2W8WBJG3Cc2qZqNguLOpKLmG5kfvPl+fFwkwpgRwiFyHQ/+O3iNaasvUdfDO4YiQe4dQkRUniOH0zgyWDnjTGu+oP724nbpkkgAn+tlecXi8I7TXg8Sa2mEjSfVZ5XqssMftnOP/+Z6JB0N/pBThMUqRICsin+96Sq61nDtxhQzhvnVlwLr1g4NX4+Dj1fqWE11MgTtynkr+AazksISfk1MtdJxU5ghcWk/c/7IOrlv1hKVDEi0z/EHkqFq6NYWgHqB8n16SV+j/34MSU5f+itrJUtzheIZw6k6jaSTZjRONzv49lYdENvgPKfanobwpb9PRZFMUDqogQ==","69168b21477cff9ada6cb980","691bd700cfdd9c6c6a09a241","index1","<span style='color:red'>Fail,<span style='color:red'>Fail,<span style='color:green'>Lift,<span style='color:green'>Lift,<span style='color:red'>Fail,<span style='color:red'>Fail,<span style='color:red'>Fail,<span style='color:red'>Fail,<span style='color:green'>Lift,<span style='color:red'>Fail,<span style='color:red'>Fail,<span style='color:green'>Lift","<span style='color:red'>Fail,<span style='color:red'>Fail,<span style='color:green'>Lift,<span style='color:green'>Lift,<span style='color:green'>Lift,<span style='color:green'>Lift,<span style='color:red'>Fail,<span style='color:green'>Lift,<span style='color:green'>Lift,<span style='color:green'>Lift,<span style='color:red'>Fail,<span style='color:green'>Lift","<span style='color:red'>Fail,<span style='color:green'>Lift,<span style='color:green'>Lift,<span style='color:red'>Fail,<span style='color:green'>Lift,<span style='color:green'>Lift","0,0,1,1,0,0,0,0,1,0,0,1","0,0,1,1,1,1,0,1,1,1,0,1","0,1,1,0,1,1",10,20,20,"","","<p style='font-size:30px'><b> New Contest! </b></p>","null","","",NA,6,"",NA,NA,NA,NA,NA,NA,NA,NA,NA,NA,NA,NA,NA,NA,NA,NA,NA,NA,NA,NA,NA,NA,NA,NA,NA,NA,NA,NA,NA,NA,NA,NA,NA,NA,NA,NA,NA,NA,NA,"",NA,NA,NA,NA,NA,NA,NA,NA,2025-11-18 02:36:47
"18748","https://psyc-201.github.io/xiang2023/exp/index1.html?PROLIFIC_PID=REDACTED&STUDY_ID=69168b21477cff9ada6cb980&SESSION_ID=691bd700cfdd9c6c6a09a241","survey-html-form",44,1070024,"0.0-353.0","UPV7UOKJX2W8WBJG3Cc2qZqNguLOpKLmG5kfvPl+fFwkwpgRwiFyHQ/+O3iNaasvUdfDO4YiQe4dQkRUniOH0zgyWDnjTGu+oP724nbpkkgAn+tlecXi8I7TXg8Sa2mEjSfVZ5XqssMftnOP/+Z6JB0N/pBThMUqRICsin+96Sq61nDtxhQzhvnVlwLr1g4NX4+Dj1fqWE11MgTtynkr+AazksISfk1MtdJxU5ghcWk/c/7IOrlv1hKVDEi0z/EHkqFq6NYWgHqB8n16SV+j/34MSU5f+itrJUtzheIZw6k6jaSTZjRONzv49lYdENvgPKfanobwpb9PRZFMUDqogQ==","69168b21477cff9ada6cb980","691bd700cfdd9c6c6a09a241","index1","<span style='color:red'>Fail,<span style='color:red'>Fail,<span style='color:green'>Lift,<span style='color:green'>Lift,<span style='color:red'>Fail,<span style='color:red'>Fail,<span style='color:red'>Fail,<span style='color:red'>Fail,<span style='color:green'>Lift,<span style='color:red'>Fail,<span style='color:red'>Fail,<span style='color:green'>Lift","<span style='color:red'>Fail,<span style='color:red'>Fail,<span style='color:green'>Lift,<span style='color:green'>Lift,<span style='color:green'>Lift,<span style='color:green'>Lift,<span style='color:red'>Fail,<span style='color:green'>Lift,<span style='color:green'>Lift,<span style='color:green'>Lift,<span style='color:red'>Fail,<span style='color:green'>Lift","<span style='color:red'>Fail,<span style='color:green'>Lift,<span style='color:green'>Lift,<span style='color:red'>Fail,<span style='color:green'>Lift,<span style='color:green'>Lift","0,0,1,1,0,0,0,0,1,0,0,1","0,0,1,1,1,1,0,1,1,1,0,1","0,1,1,0,1,1",10,20,20,"","","","","{""box1"":""6"",""box2"":""2"",""box3"":""75""}","",NA,6,"round1_outcome",1,6,1,6,2,75,NA,1,0,10,6,2,75,NA,1,0,10,NA,NA,NA,NA,NA,NA,NA,NA,NA,NA,NA,NA,NA,NA,NA,NA,NA,NA,NA,NA,NA,NA,"",NA,NA,NA,NA,NA,NA,NA,NA,2025-11-18 02:36:47
"9903","https://psyc-201.github.io/xiang2023/exp/index1.html?PROLIFIC_PID=REDACTED&STUDY_ID=69168b21477cff9ada6cb980&SESSION_ID=691bd700cfdd9c6c6a09a241","survey-html-form",45,1079930,"0.0-354.0","UPV7UOKJX2W8WBJG3Cc2qZqNguLOpKLmG5kfvPl+fFwkwpgRwiFyHQ/+O3iNaasvUdfDO4YiQe4dQkRUniOH0zgyWDnjTGu+oP724nbpkkgAn+tlecXi8I7TXg8Sa2mEjSfVZ5XqssMftnOP/+Z6JB0N/pBThMUqRICsin+96Sq61nDtxhQzhvnVlwLr1g4NX4+Dj1fqWE11MgTtynkr+AazksISfk1MtdJxU5ghcWk/c/7IOrlv1hKVDEi0z/EHkqFq6NYWgHqB8n16SV+j/34MSU5f+itrJUtzheIZw6k6jaSTZjRONzv49lYdENvgPKfanobwpb9PRZFMUDqogQ==","69168b21477cff9ada6cb980","691bd700cfdd9c6c6a09a241","index1","<span style='color:red'>Fail,<span style='color:red'>Fail,<span style='color:green'>Lift,<span style='color:green'>Lift,<span style='color:red'>Fail,<span style='color:red'>Fail,<span style='color:red'>Fail,<span style='color:red'>Fail,<span style='color:green'>Lift,<span style='color:red'>Fail,<span style='color:red'>Fail,<span style='color:green'>Lift","<span style='color:red'>Fail,<span style='color:red'>Fail,<span style='color:green'>Lift,<span style='color:green'>Lift,<span style='color:green'>Lift,<span style='color:green'>Lift,<span style='color:red'>Fail,<span style='color:green'>Lift,<span style='color:green'>Lift,<span style='color:green'>Lift,<span style='color:red'>Fail,<span style='color:green'>Lift","<span style='color:red'>Fail,<span style='color:green'>Lift,<span style='color:green'>Lift,<span style='color:red'>Fail,<span style='color:green'>Lift,<span style='color:green'>Lift","0,0,1,1,0,0,0,0,1,0,0,1","0,0,1,1,1,1,0,1,1,1,0,1","0,1,1,0,1,1",10,20,20,"","","","","{""box1"":""100"",""box2"":""50""}","",NA,6,"round2_ready",2,6,2,NA,NA,NA,NA,NA,NA,NA,NA,NA,NA,NA,NA,NA,NA,100,50,100,50,NA,NA,NA,NA,NA,NA,NA,NA,NA,NA,NA,NA,NA,NA,NA,NA,NA,NA,"",NA,NA,NA,NA,NA,NA,NA,NA,2025-11-18 02:36:47
"24815.599999964237","https://psyc-201.github.io/xiang2023/exp/index1.html?PROLIFIC_PID=REDACTED&STUDY_ID=69168b21477cff9ada6cb980&SESSION_ID=691bd700cfdd9c6c6a09a241","survey-html-form",46,1104751,"0.0-355.0","UPV7UOKJX2W8WBJG3Cc2qZqNguLOpKLmG5kfvPl+fFwkwpgRwiFyHQ/+O3iNaasvUdfDO4YiQe4dQkRUniOH0zgyWDnjTGu+oP724nbpkkgAn+tlecXi8I7TXg8Sa2mEjSfVZ5XqssMftnOP/+Z6JB0N/pBThMUqRICsin+96Sq61nDtxhQzhvnVlwLr1g4NX4+Dj1fqWE11MgTtynkr+AazksISfk1MtdJxU5ghcWk/c/7IOrlv1hKVDEi0z/EHkqFq6NYWgHqB8n16SV+j/34MSU5f+itrJUtzheIZw6k6jaSTZjRONzv49lYdENvgPKfanobwpb9PRZFMUDqogQ==","69168b21477cff9ada6cb980","691bd700cfdd9c6c6a09a241","index1","<span style='color:red'>Fail,<span style='color:red'>Fail,<span style='color:green'>Lift,<span style='color:green'>Lift,<span style='color:red'>Fail,<span style='color:red'>Fail,<span style='color:red'>Fail,<span style='color:red'>Fail,<span style='color:green'>Lift,<span style='color:red'>Fail,<span style='color:red'>Fail,<span style='color:green'>Lift","<span style='color:red'>Fail,<span style='color:red'>Fail,<span style='color:green'>Lift,<span style='color:green'>Lift,<span style='color:green'>Lift,<span style='color:green'>Lift,<span style='color:red'>Fail,<span style='color:green'>Lift,<span style='color:green'>Lift,<span style='color:green'>Lift,<span style='color:red'>Fail,<span style='color:green'>Lift","<span style='color:red'>Fail,<span style='color:green'>Lift,<span style='color:green'>Lift,<span style='color:red'>Fail,<span style='color:green'>Lift,<span style='color:green'>Lift","0,0,1,1,0,0,0,0,1,0,0,1","0,0,1,1,1,1,0,1,1,1,0,1","0,1,1,0,1,1",10,20,20,"","","","","{""box1"":""7"",""box2"":""5"",""box3"":""70"",""box4"":""100""}","",NA,6,"round2_outcome",3,6,2,7,5,70,100,1,1,20,NA,NA,NA,NA,NA,NA,NA,NA,NA,NA,NA,7,5,70,100,1,1,20,NA,NA,NA,NA,NA,NA,NA,NA,NA,NA,NA,"",NA,NA,NA,NA,NA,NA,NA,NA,2025-11-18 02:36:47
"5647.899999976158","https://psyc-201.github.io/xiang2023/exp/index1.html?PROLIFIC_PID=REDACTED&STUDY_ID=69168b21477cff9ada6cb980&SESSION_ID=691bd700cfdd9c6c6a09a241","survey-html-form",47,1110402,"0.0-356.0","UPV7UOKJX2W8WBJG3Cc2qZqNguLOpKLmG5kfvPl+fFwkwpgRwiFyHQ/+O3iNaasvUdfDO4YiQe4dQkRUniOH0zgyWDnjTGu+oP724nbpkkgAn+tlecXi8I7TXg8Sa2mEjSfVZ5XqssMftnOP/+Z6JB0N/pBThMUqRICsin+96Sq61nDtxhQzhvnVlwLr1g4NX4+Dj1fqWE11MgTtynkr+AazksISfk1MtdJxU5ghcWk/c/7IOrlv1hKVDEi0z/EHkqFq6NYWgHqB8n16SV+j/34MSU5f+itrJUtzheIZw6k6jaSTZjRONzv49lYdENvgPKfanobwpb9PRZFMUDqogQ==","69168b21477cff9ada6cb980","691bd700cfdd9c6c6a09a241","index1","<span style='color:red'>Fail,<span style='color:red'>Fail,<span style='color:green'>Lift,<span style='color:green'>Lift,<span style='color:red'>Fail,<span style='color:red'>Fail,<span style='color:red'>Fail,<span style='color:red'>Fail,<span style='color:green'>Lift,<span style='color:red'>Fail,<span style='color:red'>Fail,<span style='color:green'>Lift","<span style='color:red'>Fail,<span style='color:red'>Fail,<span style='color:green'>Lift,<span style='color:green'>Lift,<span style='color:green'>Lift,<span style='color:green'>Lift,<span style='color:red'>Fail,<span style='color:green'>Lift,<span style='color:green'>Lift,<span style='color:green'>Lift,<span style='color:red'>Fail,<span style='color:green'>Lift","<span style='color:red'>Fail,<span style='color:green'>Lift,<span style='color:green'>Lift,<span style='color:red'>Fail,<span style='color:green'>Lift,<span style='color:green'>Lift","0,0,1,1,0,0,0,0,1,0,0,1","0,0,1,1,1,1,0,1,1,1,0,1","0,1,1,0,1,1",10,20,20,"","","","","{""box1"":""100""}","",NA,6,"round3_ready",4,6,3,NA,NA,NA,NA,NA,NA,NA,NA,NA,NA,NA,NA,NA,NA,100,100,NA,NA,NA,NA,NA,NA,NA,NA,NA,100,100,NA,NA,NA,NA,NA,NA,NA,NA,NA,"",NA,NA,NA,NA,NA,NA,NA,NA,2025-11-18 02:36:47
"25434.600000023842","https://psyc-201.github.io/xiang2023/exp/index1.html?PROLIFIC_PID=REDACTED&STUDY_ID=69168b21477cff9ada6cb980&SESSION_ID=691bd700cfdd9c6c6a09a241","survey-html-form",48,1135839,"0.0-357.0-0.0","UPV7UOKJX2W8WBJG3Cc2qZqNguLOpKLmG5kfvPl+fFwkwpgRwiFyHQ/+O3iNaasvUdfDO4YiQe4dQkRUniOH0zgyWDnjTGu+oP724nbpkkgAn+tlecXi8I7TXg8Sa2mEjSfVZ5XqssMftnOP/+Z6JB0N/pBThMUqRICsin+96Sq61nDtxhQzhvnVlwLr1g4NX4+Dj1fqWE11MgTtynkr+AazksISfk1MtdJxU5ghcWk/c/7IOrlv1hKVDEi0z/EHkqFq6NYWgHqB8n16SV+j/34MSU5f+itrJUtzheIZw6k6jaSTZjRONzv49lYdENvgPKfanobwpb9PRZFMUDqogQ==","69168b21477cff9ada6cb980","691bd700cfdd9c6c6a09a241","index1","<span style='color:red'>Fail,<span style='color:red'>Fail,<span style='color:green'>Lift,<span style='color:green'>Lift,<span style='color:red'>Fail,<span style='color:red'>Fail,<span style='color:red'>Fail,<span style='color:red'>Fail,<span style='color:green'>Lift,<span style='color:red'>Fail,<span style='color:red'>Fail,<span style='color:green'>Lift","<span style='color:red'>Fail,<span style='color:red'>Fail,<span style='color:green'>Lift,<span style='color:green'>Lift,<span style='color:green'>Lift,<span style='color:green'>Lift,<span style='color:red'>Fail,<span style='color:green'>Lift,<span style='color:green'>Lift,<span style='color:green'>Lift,<span style='color:red'>Fail,<span style='color:green'>Lift","<span style='color:red'>Fail,<span style='color:green'>Lift,<span style='color:green'>Lift,<span style='color:red'>Fail,<span style='color:green'>Lift,<span style='color:green'>Lift","0,0,1,1,0,0,0,0,1,0,0,1","0,0,1,1,1,1,0,1,1,1,0,1","0,1,1,0,1,1",10,20,20,"","","","","{""box1"":""7"",""box2"":""6"",""box3"":""40"",""box4"":""70""}","",NA,6,"round3_lift",5,6,3,7,6,40,70,1,1,20,NA,NA,NA,NA,NA,NA,NA,NA,NA,NA,NA,NA,NA,NA,NA,NA,NA,NA,NA,NA,7,6,40,70,1,1,20,NA,NA,"",NA,NA,NA,NA,NA,NA,NA,NA,2025-11-18 02:36:47
"42420.60000002384","https://psyc-201.github.io/xiang2023/exp/index1.html?PROLIFIC_PID=REDACTED&STUDY_ID=69168b21477cff9ada6cb980&SESSION_ID=691bd700cfdd9c6c6a09a241","survey-text",49,1178261,"0.0-361.0","UPV7UOKJX2W8WBJG3Cc2qZqNguLOpKLmG5kfvPl+fFwkwpgRwiFyHQ/+O3iNaasvUdfDO4YiQe4dQkRUniOH0zgyWDnjTGu+oP724nbpkkgAn+tlecXi8I7TXg8Sa2mEjSfVZ5XqssMftnOP/+Z6JB0N/pBThMUqRICsin+96Sq61nDtxhQzhvnVlwLr1g4NX4+Dj1fqWE11MgTtynkr+AazksISfk1MtdJxU5ghcWk/c/7IOrlv1hKVDEi0z/EHkqFq6NYWgHqB8n16SV+j/34MSU5f+itrJUtzheIZw6k6jaSTZjRONzv49lYdENvgPKfanobwpb9PRZFMUDqogQ==","69168b21477cff9ada6cb980","691bd700cfdd9c6c6a09a241","index1","<span style='color:red'>Fail,<span style='color:red'>Fail,<span style='color:green'>Lift,<span style='color:green'>Lift,<span style='color:red'>Fail,<span style='color:red'>Fail,<span style='color:red'>Fail,<span style='color:red'>Fail,<span style='color:green'>Lift,<span style='color:red'>Fail,<span style='color:red'>Fail,<span style='color:green'>Lift","<span style='color:red'>Fail,<span style='color:red'>Fail,<span style='color:green'>Lift,<span style='color:green'>Lift,<span style='color:green'>Lift,<span style='color:green'>Lift,<span style='color:red'>Fail,<span style='color:green'>Lift,<span style='color:green'>Lift,<span style='color:green'>Lift,<span style='color:red'>Fail,<span style='color:green'>Lift","<span style='color:red'>Fail,<span style='color:green'>Lift,<span style='color:green'>Lift,<span style='color:red'>Fail,<span style='color:green'>Lift,<span style='color:green'>Lift","0,0,1,1,0,0,0,0,1,0,0,1","0,0,1,1,1,1,0,1,1,1,0,1","0,1,1,0,1,1",10,20,20,"","","","","{""Q0"":""to guess the strength of each character. to guess the percentage of effort they used to lift the box.""}","",NA,NA,"",NA,NA,NA,NA,NA,NA,NA,NA,NA,NA,NA,NA,NA,NA,NA,NA,NA,NA,NA,NA,NA,NA,NA,NA,NA,NA,NA,NA,NA,NA,NA,NA,NA,NA,NA,NA,NA,NA,NA,"",NA,NA,NA,NA,NA,NA,NA,NA,2025-11-18 02:36:47
"11738.199999988079","https://psyc-201.github.io/xiang2023/exp/index1.html?PROLIFIC_PID=REDACTED&STUDY_ID=69168b21477cff9ada6cb980&SESSION_ID=691bd700cfdd9c6c6a09a241","survey-text",50,1190001,"0.0-362.0","UPV7UOKJX2W8WBJG3Cc2qZqNguLOpKLmG5kfvPl+fFwkwpgRwiFyHQ/+O3iNaasvUdfDO4YiQe4dQkRUniOH0zgyWDnjTGu+oP724nbpkkgAn+tlecXi8I7TXg8Sa2mEjSfVZ5XqssMftnOP/+Z6JB0N/pBThMUqRICsin+96Sq61nDtxhQzhvnVlwLr1g4NX4+Dj1fqWE11MgTtynkr+AazksISfk1MtdJxU5ghcWk/c/7IOrlv1hKVDEi0z/EHkqFq6NYWgHqB8n16SV+j/34MSU5f+itrJUtzheIZw6k6jaSTZjRONzv49lYdENvgPKfanobwpb9PRZFMUDqogQ==","69168b21477cff9ada6cb980","691bd700cfdd9c6c6a09a241","index1","<span style='color:red'>Fail,<span style='color:red'>Fail,<span style='color:green'>Lift,<span style='color:green'>Lift,<span style='color:red'>Fail,<span style='color:red'>Fail,<span style='color:red'>Fail,<span style='color:red'>Fail,<span style='color:green'>Lift,<span style='color:red'>Fail,<span style='color:red'>Fail,<span style='color:green'>Lift","<span style='color:red'>Fail,<span style='color:red'>Fail,<span style='color:green'>Lift,<span style='color:green'>Lift,<span style='color:green'>Lift,<span style='color:green'>Lift,<span style='color:red'>Fail,<span style='color:green'>Lift,<span style='color:green'>Lift,<span style='color:green'>Lift,<span style='color:red'>Fail,<span style='color:green'>Lift","<span style='color:red'>Fail,<span style='color:green'>Lift,<span style='color:green'>Lift,<span style='color:red'>Fail,<span style='color:green'>Lift,<span style='color:green'>Lift","0,0,1,1,0,0,0,0,1,0,0,1","0,0,1,1,1,1,0,1,1,1,0,1","0,1,1,0,1,1",10,20,20,"","","","","{""Q0"":""n/a""}","",NA,NA,"",NA,NA,NA,NA,NA,NA,NA,NA,NA,NA,NA,NA,NA,NA,NA,NA,NA,NA,NA,NA,NA,NA,NA,NA,NA,NA,NA,NA,NA,NA,NA,NA,NA,NA,NA,NA,NA,NA,NA,"[{""event"":""blur"",""trial"":0,""time"":952},{""event"":""focus"",""trial"":0,""time"":4223},{""event"":""blur"",""trial"":0,""time"":15112},{""event"":""focus"",""trial"":0,""time"":18308},{""event"":""fullscreenenter"",""trial"":1,""time"":46499}]",4,2,0,100,1,1,NA,NA,2025-11-18 02:36:47
"7764.300000011921","https://psyc-201.github.io/xiang2023/exp/index1.html?PROLIFIC_PID=REDACTED&STUDY_ID=69168b21477cff9ada6cb980&SESSION_ID=691bd700cfdd9c6c6a09a241","html-button-response",51,1197768,"0.0-363.0","UPV7UOKJX2W8WBJG3Cc2qZqNguLOpKLmG5kfvPl+fFwkwpgRwiFyHQ/+O3iNaasvUdfDO4YiQe4dQkRUniOH0zgyWDnjTGu+oP724nbpkkgAn+tlecXi8I7TXg8Sa2mEjSfVZ5XqssMftnOP/+Z6JB0N/pBThMUqRICsin+96Sq61nDtxhQzhvnVlwLr1g4NX4+Dj1fqWE11MgTtynkr+AazksISfk1MtdJxU5ghcWk/c/7IOrlv1hKVDEi0z/EHkqFq6NYWgHqB8n16SV+j/34MSU5f+itrJUtzheIZw6k6jaSTZjRONzv49lYdENvgPKfanobwpb9PRZFMUDqogQ==","69168b21477cff9ada6cb980","691bd700cfdd9c6c6a09a241","index1","<span style='color:red'>Fail,<span style='color:red'>Fail,<span style='color:green'>Lift,<span style='color:green'>Lift,<span style='color:red'>Fail,<span style='color:red'>Fail,<span style='color:red'>Fail,<span style='color:red'>Fail,<span style='color:green'>Lift,<span style='color:red'>Fail,<span style='color:red'>Fail,<span style='color:green'>Lift","<span style='color:red'>Fail,<span style='color:red'>Fail,<span style='color:green'>Lift,<span style='color:green'>Lift,<span style='color:green'>Lift,<span style='color:green'>Lift,<span style='color:red'>Fail,<span style='color:green'>Lift,<span style='color:green'>Lift,<span style='color:green'>Lift,<span style='color:red'>Fail,<span style='color:green'>Lift","<span style='color:red'>Fail,<span style='color:green'>Lift,<span style='color:green'>Lift,<span style='color:red'>Fail,<span style='color:green'>Lift,<span style='color:green'>Lift","0,0,1,1,0,0,0,0,1,0,0,1","0,0,1,1,1,1,0,1,1,1,0,1","0,1,1,0,1,1",10,20,20,"","","<p> We randomly picked <b>Contest 4, Round 2</b> to calculate your bonus. </p><p> The outcome of Contestant G on that round is <span style='color:green'>Lift</span>. </p><p> The probability you entered was 100. </p><p><b> You won a bonus of $1.00!</b></p><p> IMPORTANT: Please click 'Next' to complete the game.</p>","","","",0,NA,"",NA,NA,NA,NA,NA,NA,NA,NA,NA,NA,NA,NA,NA,NA,NA,NA,NA,NA,NA,NA,NA,NA,NA,NA,NA,NA,NA,NA,NA,NA,NA,NA,NA,NA,NA,NA,NA,NA,NA,"",NA,NA,NA,NA,NA,NA,2,1,2025-11-18 02:36:47
