"rt","url","trial_type","trial_index","time_elapsed","internal_node_id","encryptedProlificId","studyId","sessionId","expIndex","round1_outcomes","round2_outcomes","round3_outcomes","round1_o","round2_o","round3_o","round1_reward","round2_reward","round3_reward","success","view_history","stimulus","key_press","responses","question_order","button_pressed","j","Stage","stage","contest","round","strength_a","strength_b","effort_a","effort_b","outcome_a","outcome_b","reward","r1_strength_a","r1_strength_b","r1_effort_a","r1_effort_b","r1_outcome_a","r1_outcome_b","r1_reward","probability_a","probability_b","r2_prob_a","r2_prob_b","r2_strength_a","r2_strength_b","r2_effort_a","r2_effort_b","r2_outcome_a","r2_outcome_b","r2_reward","r3_prob_a","r3_prob_b","r3_strength_a","r3_strength_b","r3_effort_a","r3_effort_b","r3_outcome_a","r3_outcome_b","r3_reward","attention_check","count","already","screen","pick_contest","pick_round","pick_side","trial_probability","trial_outcome","bonus","attention_sum","attention","datapipe_meta.attributes.date_modified"
"6937.100000023842","https://psyc-201.github.io/xiang2023/exp/index1.html?PROLIFIC_PID=REDACTED&STUDY_ID=69168b21477cff9ada6cb980&SESSION_ID=691bd37d64ad38f5e85eb401","external-html",0,7503,"0.0-0.0","WjS5+oO5If5BTrOfmm0gM8gjH4j7wt5zLqyK7D5cQYxIAYmWMRemKn1wN6FLZoIdGTQ5L6knT79lUfKVdP6Lu+o0ZFwzT2JtgRjdGRPDYeHRMb7k6/cwQXskRkbCMLK994uJNtVO4hUUTfHPq1bAWLZ/uLhpbngwFj7HizaScwiIxn5LhabDe2VAKc/3KtapSr6V6v5Tz4aC33WKSY9Jn+20ZzisH0rrzzj9RQybs19wLETgyCUQyeOHO2C2SiePkkfGhloVkn40/HwKNFj3gu/n3Ebz/Qy+PZ0SOk/u2LzabJ2JZ36OrK+YJhOwiyetgJlUEBRZmAye+Ehv0RL+mA==","69168b21477cff9ada6cb980","691bd37d64ad38f5e85eb401","index1","<span style='color:red'>Fail,<span style='color:red'>Fail,<span style='color:green'>Lift,<span style='color:green'>Lift,<span style='color:red'>Fail,<span style='color:red'>Fail,<span style='color:red'>Fail,<span style='color:red'>Fail,<span style='color:red'>Fail,<span style='color:green'>Lift,<span style='color:red'>Fail,<span style='color:green'>Lift","<span style='color:red'>Fail,<span style='color:red'>Fail,<span style='color:green'>Lift,<span style='color:green'>Lift,<span style='color:green'>Lift,<span style='color:green'>Lift,<span style='color:red'>Fail,<span style='color:green'>Lift,<span style='color:green'>Lift,<span style='color:green'>Lift,<span style='color:red'>Fail,<span style='color:green'>Lift","<span style='color:red'>Fail,<span style='color:green'>Lift,<span style='color:green'>Lift,<span style='color:red'>Fail,<span style='color:green'>Lift,<span style='color:green'>Lift","0,0,1,1,0,0,0,0,0,1,0,1","0,0,1,1,1,1,0,1,1,1,0,1","0,1,1,0,1,1",10,20,20,"","","","","","",NA,NA,"",NA,NA,NA,NA,NA,NA,NA,NA,NA,NA,NA,NA,NA,NA,NA,NA,NA,NA,NA,NA,NA,NA,NA,NA,NA,NA,NA,NA,NA,NA,NA,NA,NA,NA,NA,NA,NA,NA,NA,NA,"",NA,NA,NA,NA,NA,NA,NA,NA,2025-11-18 02:32:55
"","https://psyc-201.github.io/xiang2023/exp/index1.html?PROLIFIC_PID=REDACTED&STUDY_ID=69168b21477cff9ada6cb980&SESSION_ID=691bd37d64ad38f5e85eb401","fullscreen",1,11505,"0.0-1.0","WjS5+oO5If5BTrOfmm0gM8gjH4j7wt5zLqyK7D5cQYxIAYmWMRemKn1wN6FLZoIdGTQ5L6knT79lUfKVdP6Lu+o0ZFwzT2JtgRjdGRPDYeHRMb7k6/cwQXskRkbCMLK994uJNtVO4hUUTfHPq1bAWLZ/uLhpbngwFj7HizaScwiIxn5LhabDe2VAKc/3KtapSr6V6v5Tz4aC33WKSY9Jn+20ZzisH0rrzzj9RQybs19wLETgyCUQyeOHO2C2SiePkkfGhloVkn40/HwKNFj3gu/n3Ebz/Qy+PZ0SOk/u2LzabJ2JZ36OrK+YJhOwiyetgJlUEBRZmAye+Ehv0RL+mA==","69168b21477cff9ada6cb980","691bd37d64ad38f5e85eb401","index1","<span style='color:red'>Fail,<span style='color:red'>Fail,<span style='color:green'>Lift,<span style='color:green'>Lift,<span style='color:red'>Fail,<span style='color:red'>Fail,<span style='color:red'>Fail,<span style='color:red'>Fail,<span style='color:red'>Fail,<span style='color:green'>Lift,<span style='color:red'>Fail,<span style='color:green'>Lift","<span style='color:red'>Fail,<span style='color:red'>Fail,<span style='color:green'>Lift,<span style='color:green'>Lift,<span style='color:green'>Lift,<span style='color:green'>Lift,<span style='color:red'>Fail,<span style='color:green'>Lift,<span style='color:green'>Lift,<span style='color:green'>Lift,<span style='color:red'>Fail,<span style='color:green'>Lift","<span style='color:red'>Fail,<span style='color:green'>Lift,<span style='color:green'>Lift,<span style='color:red'>Fail,<span style='color:green'>Lift,<span style='color:green'>Lift","0,0,1,1,0,0,0,0,0,1,0,1","0,0,1,1,1,1,0,1,1,1,0,1","0,1,1,0,1,1",10,20,20,"true","","","","","",NA,NA,"",NA,NA,NA,NA,NA,NA,NA,NA,NA,NA,NA,NA,NA,NA,NA,NA,NA,NA,NA,NA,NA,NA,NA,NA,NA,NA,NA,NA,NA,NA,NA,NA,NA,NA,NA,NA,NA,NA,NA,NA,"",NA,NA,NA,NA,NA,NA,NA,NA,2025-11-18 02:32:55
"330868.3000000119","https://psyc-201.github.io/xiang2023/exp/index1.html?PROLIFIC_PID=REDACTED&STUDY_ID=69168b21477cff9ada6cb980&SESSION_ID=691bd37d64ad38f5e85eb401","instructions",2,342375,"0.0-2.0","WjS5+oO5If5BTrOfmm0gM8gjH4j7wt5zLqyK7D5cQYxIAYmWMRemKn1wN6FLZoIdGTQ5L6knT79lUfKVdP6Lu+o0ZFwzT2JtgRjdGRPDYeHRMb7k6/cwQXskRkbCMLK994uJNtVO4hUUTfHPq1bAWLZ/uLhpbngwFj7HizaScwiIxn5LhabDe2VAKc/3KtapSr6V6v5Tz4aC33WKSY9Jn+20ZzisH0rrzzj9RQybs19wLETgyCUQyeOHO2C2SiePkkfGhloVkn40/HwKNFj3gu/n3Ebz/Qy+PZ0SOk/u2LzabJ2JZ36OrK+YJhOwiyetgJlUEBRZmAye+Ehv0RL+mA==","69168b21477cff9ada6cb980","691bd37d64ad38f5e85eb401","index1","<span style='color:red'>Fail,<span style='color:red'>Fail,<span style='color:green'>Lift,<span style='color:green'>Lift,<span style='color:red'>Fail,<span style='color:red'>Fail,<span style='color:red'>Fail,<span style='color:red'>Fail,<span style='color:red'>Fail,<span style='color:green'>Lift,<span style='color:red'>Fail,<span style='color:green'>Lift","<span style='color:red'>Fail,<span style='color:red'>Fail,<span style='color:green'>Lift,<span style='color:green'>Lift,<span style='color:green'>Lift,<span style='color:green'>Lift,<span style='color:red'>Fail,<span style='color:green'>Lift,<span style='color:green'>Lift,<span style='color:green'>Lift,<span style='color:red'>Fail,<span style='color:green'>Lift","<span style='color:red'>Fail,<span style='color:green'>Lift,<span style='color:green'>Lift,<span style='color:red'>Fail,<span style='color:green'>Lift,<span style='color:green'>Lift","0,0,1,1,0,0,0,0,0,1,0,1","0,0,1,1,1,1,0,1,1,1,0,1","0,1,1,0,1,1",10,20,20,"","[{""page_index"":0,""viewing_time"":123642.59999996424},{""page_index"":1,""viewing_time"":28910.200000047684},{""page_index"":2,""viewing_time"":112057.5},{""page_index"":3,""viewing_time"":49767.799999952316},{""page_index"":4,""viewing_time"":5353.600000023842},{""page_index"":5,""viewing_time"":9604.199999988079},{""page_index"":6,""viewing_time"":1531.800000011921}]","","","","",NA,NA,"",NA,NA,NA,NA,NA,NA,NA,NA,NA,NA,NA,NA,NA,NA,NA,NA,NA,NA,NA,NA,NA,NA,NA,NA,NA,NA,NA,NA,NA,NA,NA,NA,NA,NA,NA,NA,NA,NA,NA,NA,"",NA,NA,NA,NA,NA,NA,NA,NA,2025-11-18 02:32:55
"null","https://psyc-201.github.io/xiang2023/exp/index1.html?PROLIFIC_PID=REDACTED&STUDY_ID=69168b21477cff9ada6cb980&SESSION_ID=691bd37d64ad38f5e85eb401","html-keyboard-response",3,343388,"0.0-3.0","WjS5+oO5If5BTrOfmm0gM8gjH4j7wt5zLqyK7D5cQYxIAYmWMRemKn1wN6FLZoIdGTQ5L6knT79lUfKVdP6Lu+o0ZFwzT2JtgRjdGRPDYeHRMb7k6/cwQXskRkbCMLK994uJNtVO4hUUTfHPq1bAWLZ/uLhpbngwFj7HizaScwiIxn5LhabDe2VAKc/3KtapSr6V6v5Tz4aC33WKSY9Jn+20ZzisH0rrzzj9RQybs19wLETgyCUQyeOHO2C2SiePkkfGhloVkn40/HwKNFj3gu/n3Ebz/Qy+PZ0SOk/u2LzabJ2JZ36OrK+YJhOwiyetgJlUEBRZmAye+Ehv0RL+mA==","69168b21477cff9ada6cb980","691bd37d64ad38f5e85eb401","index1","<span style='color:red'>Fail,<span style='color:red'>Fail,<span style='color:green'>Lift,<span style='color:green'>Lift,<span style='color:red'>Fail,<span style='color:red'>Fail,<span style='color:red'>Fail,<span style='color:red'>Fail,<span style='color:red'>Fail,<span style='color:green'>Lift,<span style='color:red'>Fail,<span style='color:green'>Lift","<span style='color:red'>Fail,<span style='color:red'>Fail,<span style='color:green'>Lift,<span style='color:green'>Lift,<span style='color:green'>Lift,<span style='color:green'>Lift,<span style='color:red'>Fail,<span style='color:green'>Lift,<span style='color:green'>Lift,<span style='color:green'>Lift,<span style='color:red'>Fail,<span style='color:green'>Lift","<span style='color:red'>Fail,<span style='color:green'>Lift,<span style='color:green'>Lift,<span style='color:red'>Fail,<span style='color:green'>Lift,<span style='color:green'>Lift","0,0,1,1,0,0,0,0,0,1,0,1","0,0,1,1,1,1,0,1,1,1,0,1","0,1,1,0,1,1",10,20,20,"",""," ","null","","",NA,NA,"",NA,NA,NA,NA,NA,NA,NA,NA,NA,NA,NA,NA,NA,NA,NA,NA,NA,NA,NA,NA,NA,NA,NA,NA,NA,NA,NA,NA,NA,NA,NA,NA,NA,NA,NA,NA,NA,NA,NA,NA,"",NA,NA,NA,NA,NA,NA,NA,NA,2025-11-18 02:32:55
"33207.10000002384","https://psyc-201.github.io/xiang2023/exp/index1.html?PROLIFIC_PID=REDACTED&STUDY_ID=69168b21477cff9ada6cb980&SESSION_ID=691bd37d64ad38f5e85eb401","survey-multi-choice",4,376598,"0.0-4.0","WjS5+oO5If5BTrOfmm0gM8gjH4j7wt5zLqyK7D5cQYxIAYmWMRemKn1wN6FLZoIdGTQ5L6knT79lUfKVdP6Lu+o0ZFwzT2JtgRjdGRPDYeHRMb7k6/cwQXskRkbCMLK994uJNtVO4hUUTfHPq1bAWLZ/uLhpbngwFj7HizaScwiIxn5LhabDe2VAKc/3KtapSr6V6v5Tz4aC33WKSY9Jn+20ZzisH0rrzzj9RQybs19wLETgyCUQyeOHO2C2SiePkkfGhloVkn40/HwKNFj3gu/n3Ebz/Qy+PZ0SOk/u2LzabJ2JZ36OrK+YJhOwiyetgJlUEBRZmAye+Ehv0RL+mA==","69168b21477cff9ada6cb980","691bd37d64ad38f5e85eb401","index1","<span style='color:red'>Fail,<span style='color:red'>Fail,<span style='color:green'>Lift,<span style='color:green'>Lift,<span style='color:red'>Fail,<span style='color:red'>Fail,<span style='color:red'>Fail,<span style='color:red'>Fail,<span style='color:red'>Fail,<span style='color:green'>Lift,<span style='color:red'>Fail,<span style='color:green'>Lift","<span style='color:red'>Fail,<span style='color:red'>Fail,<span style='color:green'>Lift,<span style='color:green'>Lift,<span style='color:green'>Lift,<span style='color:green'>Lift,<span style='color:red'>Fail,<span style='color:green'>Lift,<span style='color:green'>Lift,<span style='color:green'>Lift,<span style='color:red'>Fail,<span style='color:green'>Lift","<span style='color:red'>Fail,<span style='color:green'>Lift,<span style='color:green'>Lift,<span style='color:red'>Fail,<span style='color:green'>Lift,<span style='color:green'>Lift","0,0,1,1,0,0,0,0,0,1,0,1","0,0,1,1,1,1,0,1,1,1,0,1","0,1,1,0,1,1",10,20,20,"","","","","{""Q0"":""It consists of multiple contests, each contest with three rounds."",""Q1"":""Contestants are always the same across contests."",""Q2"":""The box weight always stays the same (equivalent to strength of 5)."",""Q3"":""They will split the $20 unevenly proportional to strength."",""Q4"":""How close my guesses are to the actual outcome.""}","[0,1,2,3,4]",NA,NA,"",NA,NA,NA,NA,NA,NA,NA,NA,NA,NA,NA,NA,NA,NA,NA,NA,NA,NA,NA,NA,NA,NA,NA,NA,NA,NA,NA,NA,NA,NA,NA,NA,NA,NA,NA,NA,NA,NA,NA,NA,"",NA,NA,NA,NA,NA,NA,NA,NA,2025-11-18 02:32:55
"5376","https://psyc-201.github.io/xiang2023/exp/index1.html?PROLIFIC_PID=REDACTED&STUDY_ID=69168b21477cff9ada6cb980&SESSION_ID=691bd37d64ad38f5e85eb401","html-button-response",5,381977,"0.0-5.0-0.0","WjS5+oO5If5BTrOfmm0gM8gjH4j7wt5zLqyK7D5cQYxIAYmWMRemKn1wN6FLZoIdGTQ5L6knT79lUfKVdP6Lu+o0ZFwzT2JtgRjdGRPDYeHRMb7k6/cwQXskRkbCMLK994uJNtVO4hUUTfHPq1bAWLZ/uLhpbngwFj7HizaScwiIxn5LhabDe2VAKc/3KtapSr6V6v5Tz4aC33WKSY9Jn+20ZzisH0rrzzj9RQybs19wLETgyCUQyeOHO2C2SiePkkfGhloVkn40/HwKNFj3gu/n3Ebz/Qy+PZ0SOk/u2LzabJ2JZ36OrK+YJhOwiyetgJlUEBRZmAye+Ehv0RL+mA==","69168b21477cff9ada6cb980","691bd37d64ad38f5e85eb401","index1","<span style='color:red'>Fail,<span style='color:red'>Fail,<span style='color:green'>Lift,<span style='color:green'>Lift,<span style='color:red'>Fail,<span style='color:red'>Fail,<span style='color:red'>Fail,<span style='color:red'>Fail,<span style='color:red'>Fail,<span style='color:green'>Lift,<span style='color:red'>Fail,<span style='color:green'>Lift","<span style='color:red'>Fail,<span style='color:red'>Fail,<span style='color:green'>Lift,<span style='color:green'>Lift,<span style='color:green'>Lift,<span style='color:green'>Lift,<span style='color:red'>Fail,<span style='color:green'>Lift,<span style='color:green'>Lift,<span style='color:green'>Lift,<span style='color:red'>Fail,<span style='color:green'>Lift","<span style='color:red'>Fail,<span style='color:green'>Lift,<span style='color:green'>Lift,<span style='color:red'>Fail,<span style='color:green'>Lift,<span style='color:green'>Lift","0,0,1,1,0,0,0,0,0,1,0,1","0,0,1,1,1,1,0,1,1,1,0,1","0,1,1,0,1,1",10,20,20,"","","<p> Oops! You did not pass the comprehension check.</p>","","","",0,NA,"",NA,NA,NA,NA,NA,NA,NA,NA,NA,NA,NA,NA,NA,NA,NA,NA,NA,NA,NA,NA,NA,NA,NA,NA,NA,NA,NA,NA,NA,NA,NA,NA,NA,NA,NA,NA,NA,NA,NA,NA,"",NA,NA,NA,NA,NA,NA,NA,NA,2025-11-18 02:32:55
"20470","https://psyc-201.github.io/xiang2023/exp/index1.html?PROLIFIC_PID=REDACTED&STUDY_ID=69168b21477cff9ada6cb980&SESSION_ID=691bd37d64ad38f5e85eb401","survey-multi-choice",6,402450,"0.0-7.0-0.0","WjS5+oO5If5BTrOfmm0gM8gjH4j7wt5zLqyK7D5cQYxIAYmWMRemKn1wN6FLZoIdGTQ5L6knT79lUfKVdP6Lu+o0ZFwzT2JtgRjdGRPDYeHRMb7k6/cwQXskRkbCMLK994uJNtVO4hUUTfHPq1bAWLZ/uLhpbngwFj7HizaScwiIxn5LhabDe2VAKc/3KtapSr6V6v5Tz4aC33WKSY9Jn+20ZzisH0rrzzj9RQybs19wLETgyCUQyeOHO2C2SiePkkfGhloVkn40/HwKNFj3gu/n3Ebz/Qy+PZ0SOk/u2LzabJ2JZ36OrK+YJhOwiyetgJlUEBRZmAye+Ehv0RL+mA==","69168b21477cff9ada6cb980","691bd37d64ad38f5e85eb401","index1","<span style='color:red'>Fail,<span style='color:red'>Fail,<span style='color:green'>Lift,<span style='color:green'>Lift,<span style='color:red'>Fail,<span style='color:red'>Fail,<span style='color:red'>Fail,<span style='color:red'>Fail,<span style='color:red'>Fail,<span style='color:green'>Lift,<span style='color:red'>Fail,<span style='color:green'>Lift","<span style='color:red'>Fail,<span style='color:red'>Fail,<span style='color:green'>Lift,<span style='color:green'>Lift,<span style='color:green'>Lift,<span style='color:green'>Lift,<span style='color:red'>Fail,<span style='color:green'>Lift,<span style='color:green'>Lift,<span style='color:green'>Lift,<span style='color:red'>Fail,<span style='color:green'>Lift","<span style='color:red'>Fail,<span style='color:green'>Lift,<span style='color:green'>Lift,<span style='color:red'>Fail,<span style='color:green'>Lift,<span style='color:green'>Lift","0,0,1,1,0,0,0,0,0,1,0,1","0,0,1,1,1,1,0,1,1,1,0,1","0,1,1,0,1,1",10,20,20,"","","","","{""Q0"":""It consists of multiple contests, each contest with one round."",""Q1"":""Contestants are always the same across contests."",""Q2"":""The box weight always stays the same (equivalent to strength of 5)."",""Q3"":""They will split the $20 unevenly proportional to strength."",""Q4"":""How close my guesses are to the actual outcome.""}","[0,1,2,3,4]",NA,NA,"",NA,NA,NA,NA,NA,NA,NA,NA,NA,NA,NA,NA,NA,NA,NA,NA,NA,NA,NA,NA,NA,NA,NA,NA,NA,NA,NA,NA,NA,NA,NA,NA,NA,NA,NA,NA,NA,NA,NA,NA,"",NA,NA,NA,NA,NA,NA,NA,NA,2025-11-18 02:32:55
"1403","https://psyc-201.github.io/xiang2023/exp/index1.html?PROLIFIC_PID=REDACTED&STUDY_ID=69168b21477cff9ada6cb980&SESSION_ID=691bd37d64ad38f5e85eb401","html-button-response",7,403856,"0.0-8.0-0.0","WjS5+oO5If5BTrOfmm0gM8gjH4j7wt5zLqyK7D5cQYxIAYmWMRemKn1wN6FLZoIdGTQ5L6knT79lUfKVdP6Lu+o0ZFwzT2JtgRjdGRPDYeHRMb7k6/cwQXskRkbCMLK994uJNtVO4hUUTfHPq1bAWLZ/uLhpbngwFj7HizaScwiIxn5LhabDe2VAKc/3KtapSr6V6v5Tz4aC33WKSY9Jn+20ZzisH0rrzzj9RQybs19wLETgyCUQyeOHO2C2SiePkkfGhloVkn40/HwKNFj3gu/n3Ebz/Qy+PZ0SOk/u2LzabJ2JZ36OrK+YJhOwiyetgJlUEBRZmAye+Ehv0RL+mA==","69168b21477cff9ada6cb980","691bd37d64ad38f5e85eb401","index1","<span style='color:red'>Fail,<span style='color:red'>Fail,<span style='color:green'>Lift,<span style='color:green'>Lift,<span style='color:red'>Fail,<span style='color:red'>Fail,<span style='color:red'>Fail,<span style='color:red'>Fail,<span style='color:red'>Fail,<span style='color:green'>Lift,<span style='color:red'>Fail,<span style='color:green'>Lift","<span style='color:red'>Fail,<span style='color:red'>Fail,<span style='color:green'>Lift,<span style='color:green'>Lift,<span style='color:green'>Lift,<span style='color:green'>Lift,<span style='color:red'>Fail,<span style='color:green'>Lift,<span style='color:green'>Lift,<span style='color:green'>Lift,<span style='color:red'>Fail,<span style='color:green'>Lift","<span style='color:red'>Fail,<span style='color:green'>Lift,<span style='color:green'>Lift,<span style='color:red'>Fail,<span style='color:green'>Lift,<span style='color:green'>Lift","0,0,1,1,0,0,0,0,0,1,0,1","0,0,1,1,1,1,0,1,1,1,0,1","0,1,1,0,1,1",10,20,20,"","","<p> Oops! You did not pass the comprehension check.</p>","","","",1,NA,"",NA,NA,NA,NA,NA,NA,NA,NA,NA,NA,NA,NA,NA,NA,NA,NA,NA,NA,NA,NA,NA,NA,NA,NA,NA,NA,NA,NA,NA,NA,NA,NA,NA,NA,NA,NA,NA,NA,NA,NA,"",NA,NA,NA,NA,NA,NA,NA,NA,2025-11-18 02:32:55
"128580","https://psyc-201.github.io/xiang2023/exp/index1.html?PROLIFIC_PID=REDACTED&STUDY_ID=69168b21477cff9ada6cb980&SESSION_ID=691bd37d64ad38f5e85eb401","instructions",8,532437,"0.0-9.0-0.0","WjS5+oO5If5BTrOfmm0gM8gjH4j7wt5zLqyK7D5cQYxIAYmWMRemKn1wN6FLZoIdGTQ5L6knT79lUfKVdP6Lu+o0ZFwzT2JtgRjdGRPDYeHRMb7k6/cwQXskRkbCMLK994uJNtVO4hUUTfHPq1bAWLZ/uLhpbngwFj7HizaScwiIxn5LhabDe2VAKc/3KtapSr6V6v5Tz4aC33WKSY9Jn+20ZzisH0rrzzj9RQybs19wLETgyCUQyeOHO2C2SiePkkfGhloVkn40/HwKNFj3gu/n3Ebz/Qy+PZ0SOk/u2LzabJ2JZ36OrK+YJhOwiyetgJlUEBRZmAye+Ehv0RL+mA==","69168b21477cff9ada6cb980","691bd37d64ad38f5e85eb401","index1","<span style='color:red'>Fail,<span style='color:red'>Fail,<span style='color:green'>Lift,<span style='color:green'>Lift,<span style='color:red'>Fail,<span style='color:red'>Fail,<span style='color:red'>Fail,<span style='color:red'>Fail,<span style='color:red'>Fail,<span style='color:green'>Lift,<span style='color:red'>Fail,<span style='color:green'>Lift","<span style='color:red'>Fail,<span style='color:red'>Fail,<span style='color:green'>Lift,<span style='color:green'>Lift,<span style='color:green'>Lift,<span style='color:green'>Lift,<span style='color:red'>Fail,<span style='color:green'>Lift,<span style='color:green'>Lift,<span style='color:green'>Lift,<span style='color:red'>Fail,<span style='color:green'>Lift","<span style='color:red'>Fail,<span style='color:green'>Lift,<span style='color:green'>Lift,<span style='color:red'>Fail,<span style='color:green'>Lift,<span style='color:green'>Lift","0,0,1,1,0,0,0,0,0,1,0,1","0,0,1,1,1,1,0,1,1,1,0,1","0,1,1,0,1,1",10,20,20,"","[{""page_index"":0,""viewing_time"":14797.700000047684},{""page_index"":1,""viewing_time"":2141.2999999523163},{""page_index"":2,""viewing_time"":107521.20000004768},{""page_index"":3,""viewing_time"":1749.7999999523163},{""page_index"":4,""viewing_time"":921.7000000476837},{""page_index"":5,""viewing_time"":819.2999999523163},{""page_index"":6,""viewing_time"":628.7000000476837}]","","","","",NA,NA,"",NA,NA,NA,NA,NA,NA,NA,NA,NA,NA,NA,NA,NA,NA,NA,NA,NA,NA,NA,NA,NA,NA,NA,NA,NA,NA,NA,NA,NA,NA,NA,NA,NA,NA,NA,NA,NA,NA,NA,NA,"",NA,NA,NA,NA,NA,NA,NA,NA,2025-11-18 02:32:55
"null","https://psyc-201.github.io/xiang2023/exp/index1.html?PROLIFIC_PID=REDACTED&STUDY_ID=69168b21477cff9ada6cb980&SESSION_ID=691bd37d64ad38f5e85eb401","html-keyboard-response",9,533450,"0.0-9.0-1.0","WjS5+oO5If5BTrOfmm0gM8gjH4j7wt5zLqyK7D5cQYxIAYmWMRemKn1wN6FLZoIdGTQ5L6knT79lUfKVdP6Lu+o0ZFwzT2JtgRjdGRPDYeHRMb7k6/cwQXskRkbCMLK994uJNtVO4hUUTfHPq1bAWLZ/uLhpbngwFj7HizaScwiIxn5LhabDe2VAKc/3KtapSr6V6v5Tz4aC33WKSY9Jn+20ZzisH0rrzzj9RQybs19wLETgyCUQyeOHO2C2SiePkkfGhloVkn40/HwKNFj3gu/n3Ebz/Qy+PZ0SOk/u2LzabJ2JZ36OrK+YJhOwiyetgJlUEBRZmAye+Ehv0RL+mA==","69168b21477cff9ada6cb980","691bd37d64ad38f5e85eb401","index1","<span style='color:red'>Fail,<span style='color:red'>Fail,<span style='color:green'>Lift,<span style='color:green'>Lift,<span style='color:red'>Fail,<span style='color:red'>Fail,<span style='color:red'>Fail,<span style='color:red'>Fail,<span style='color:red'>Fail,<span style='color:green'>Lift,<span style='color:red'>Fail,<span style='color:green'>Lift","<span style='color:red'>Fail,<span style='color:red'>Fail,<span style='color:green'>Lift,<span style='color:green'>Lift,<span style='color:green'>Lift,<span style='color:green'>Lift,<span style='color:red'>Fail,<span style='color:green'>Lift,<span style='color:green'>Lift,<span style='color:green'>Lift,<span style='color:red'>Fail,<span style='color:green'>Lift","<span style='color:red'>Fail,<span style='color:green'>Lift,<span style='color:green'>Lift,<span style='color:red'>Fail,<span style='color:green'>Lift,<span style='color:green'>Lift","0,0,1,1,0,0,0,0,0,1,0,1","0,0,1,1,1,1,0,1,1,1,0,1","0,1,1,0,1,1",10,20,20,"",""," ","null","","",NA,NA,"",NA,NA,NA,NA,NA,NA,NA,NA,NA,NA,NA,NA,NA,NA,NA,NA,NA,NA,NA,NA,NA,NA,NA,NA,NA,NA,NA,NA,NA,NA,NA,NA,NA,NA,NA,NA,NA,NA,NA,NA,"",NA,NA,NA,NA,NA,NA,NA,NA,2025-11-18 02:32:55
"28458.100000023842","https://psyc-201.github.io/xiang2023/exp/index1.html?PROLIFIC_PID=REDACTED&STUDY_ID=69168b21477cff9ada6cb980&SESSION_ID=691bd37d64ad38f5e85eb401","survey-multi-choice",10,561911,"0.0-10.0-0.0","WjS5+oO5If5BTrOfmm0gM8gjH4j7wt5zLqyK7D5cQYxIAYmWMRemKn1wN6FLZoIdGTQ5L6knT79lUfKVdP6Lu+o0ZFwzT2JtgRjdGRPDYeHRMb7k6/cwQXskRkbCMLK994uJNtVO4hUUTfHPq1bAWLZ/uLhpbngwFj7HizaScwiIxn5LhabDe2VAKc/3KtapSr6V6v5Tz4aC33WKSY9Jn+20ZzisH0rrzzj9RQybs19wLETgyCUQyeOHO2C2SiePkkfGhloVkn40/HwKNFj3gu/n3Ebz/Qy+PZ0SOk/u2LzabJ2JZ36OrK+YJhOwiyetgJlUEBRZmAye+Ehv0RL+mA==","69168b21477cff9ada6cb980","691bd37d64ad38f5e85eb401","index1","<span style='color:red'>Fail,<span style='color:red'>Fail,<span style='color:green'>Lift,<span style='color:green'>Lift,<span style='color:red'>Fail,<span style='color:red'>Fail,<span style='color:red'>Fail,<span style='color:red'>Fail,<span style='color:red'>Fail,<span style='color:green'>Lift,<span style='color:red'>Fail,<span style='color:green'>Lift","<span style='color:red'>Fail,<span style='color:red'>Fail,<span style='color:green'>Lift,<span style='color:green'>Lift,<span style='color:green'>Lift,<span style='color:green'>Lift,<span style='color:red'>Fail,<span style='color:green'>Lift,<span style='color:green'>Lift,<span style='color:green'>Lift,<span style='color:red'>Fail,<span style='color:green'>Lift","<span style='color:red'>Fail,<span style='color:green'>Lift,<span style='color:green'>Lift,<span style='color:red'>Fail,<span style='color:green'>Lift,<span style='color:green'>Lift","0,0,1,1,0,0,0,0,0,1,0,1","0,0,1,1,1,1,0,1,1,1,0,1","0,1,1,0,1,1",10,20,20,"","","","","{""Q0"":""It consists of multiple contests, each contest with one round."",""Q1"":""When a new round starts."",""Q2"":""The box weight always stays the same (equivalent to strength of 5)."",""Q3"":""They will split the $20, that is $10 for each."",""Q4"":""How close my guesses are to the actual outcome.""}","[0,1,2,3,4]",NA,NA,"",NA,NA,NA,NA,NA,NA,NA,NA,NA,NA,NA,NA,NA,NA,NA,NA,NA,NA,NA,NA,NA,NA,NA,NA,NA,NA,NA,NA,NA,NA,NA,NA,NA,NA,NA,NA,NA,NA,NA,NA,"",NA,NA,NA,NA,NA,NA,NA,NA,2025-11-18 02:32:55
"1287.5999999642372","https://psyc-201.github.io/xiang2023/exp/index1.html?PROLIFIC_PID=REDACTED&STUDY_ID=69168b21477cff9ada6cb980&SESSION_ID=691bd37d64ad38f5e85eb401","html-button-response",11,563201,"0.0-11.0-0.0","WjS5+oO5If5BTrOfmm0gM8gjH4j7wt5zLqyK7D5cQYxIAYmWMRemKn1wN6FLZoIdGTQ5L6knT79lUfKVdP6Lu+o0ZFwzT2JtgRjdGRPDYeHRMb7k6/cwQXskRkbCMLK994uJNtVO4hUUTfHPq1bAWLZ/uLhpbngwFj7HizaScwiIxn5LhabDe2VAKc/3KtapSr6V6v5Tz4aC33WKSY9Jn+20ZzisH0rrzzj9RQybs19wLETgyCUQyeOHO2C2SiePkkfGhloVkn40/HwKNFj3gu/n3Ebz/Qy+PZ0SOk/u2LzabJ2JZ36OrK+YJhOwiyetgJlUEBRZmAye+Ehv0RL+mA==","69168b21477cff9ada6cb980","691bd37d64ad38f5e85eb401","index1","<span style='color:red'>Fail,<span style='color:red'>Fail,<span style='color:green'>Lift,<span style='color:green'>Lift,<span style='color:red'>Fail,<span style='color:red'>Fail,<span style='color:red'>Fail,<span style='color:red'>Fail,<span style='color:red'>Fail,<span style='color:green'>Lift,<span style='color:red'>Fail,<span style='color:green'>Lift","<span style='color:red'>Fail,<span style='color:red'>Fail,<span style='color:green'>Lift,<span style='color:green'>Lift,<span style='color:green'>Lift,<span style='color:green'>Lift,<span style='color:red'>Fail,<span style='color:green'>Lift,<span style='color:green'>Lift,<span style='color:green'>Lift,<span style='color:red'>Fail,<span style='color:green'>Lift","<span style='color:red'>Fail,<span style='color:green'>Lift,<span style='color:green'>Lift,<span style='color:red'>Fail,<span style='color:green'>Lift,<span style='color:green'>Lift","0,0,1,1,0,0,0,0,0,1,0,1","0,0,1,1,1,1,0,1,1,1,0,1","0,1,1,0,1,1",10,20,20,"","","<p> Oops! You did not pass the comprehension check.</p>","","","",0,NA,"",NA,NA,NA,NA,NA,NA,NA,NA,NA,NA,NA,NA,NA,NA,NA,NA,NA,NA,NA,NA,NA,NA,NA,NA,NA,NA,NA,NA,NA,NA,NA,NA,NA,NA,NA,NA,NA,NA,NA,NA,"",NA,NA,NA,NA,NA,NA,NA,NA,2025-11-18 02:32:55
"23868.19999998808","https://psyc-201.github.io/xiang2023/exp/index1.html?PROLIFIC_PID=REDACTED&STUDY_ID=69168b21477cff9ada6cb980&SESSION_ID=691bd37d64ad38f5e85eb401","survey-multi-choice",12,587072,"0.0-13.0-0.0","WjS5+oO5If5BTrOfmm0gM8gjH4j7wt5zLqyK7D5cQYxIAYmWMRemKn1wN6FLZoIdGTQ5L6knT79lUfKVdP6Lu+o0ZFwzT2JtgRjdGRPDYeHRMb7k6/cwQXskRkbCMLK994uJNtVO4hUUTfHPq1bAWLZ/uLhpbngwFj7HizaScwiIxn5LhabDe2VAKc/3KtapSr6V6v5Tz4aC33WKSY9Jn+20ZzisH0rrzzj9RQybs19wLETgyCUQyeOHO2C2SiePkkfGhloVkn40/HwKNFj3gu/n3Ebz/Qy+PZ0SOk/u2LzabJ2JZ36OrK+YJhOwiyetgJlUEBRZmAye+Ehv0RL+mA==","69168b21477cff9ada6cb980","691bd37d64ad38f5e85eb401","index1","<span style='color:red'>Fail,<span style='color:red'>Fail,<span style='color:green'>Lift,<span style='color:green'>Lift,<span style='color:red'>Fail,<span style='color:red'>Fail,<span style='color:red'>Fail,<span style='color:red'>Fail,<span style='color:red'>Fail,<span style='color:green'>Lift,<span style='color:red'>Fail,<span style='color:green'>Lift","<span style='color:red'>Fail,<span style='color:red'>Fail,<span style='color:green'>Lift,<span style='color:green'>Lift,<span style='color:green'>Lift,<span style='color:green'>Lift,<span style='color:red'>Fail,<span style='color:green'>Lift,<span style='color:green'>Lift,<span style='color:green'>Lift,<span style='color:red'>Fail,<span style='color:green'>Lift","<span style='color:red'>Fail,<span style='color:green'>Lift,<span style='color:green'>Lift,<span style='color:red'>Fail,<span style='color:green'>Lift,<span style='color:green'>Lift","0,0,1,1,0,0,0,0,0,1,0,1","0,0,1,1,1,1,0,1,1,1,0,1","0,1,1,0,1,1",10,20,20,"","","","","{""Q0"":""It consists of multiple contests, each contest with one round."",""Q1"":""When a new contest begins."",""Q2"":""The box weight always stays the same (equivalent to strength of 5)."",""Q3"":""They will split the $20, that is $10 for each."",""Q4"":""How close my guesses are to the actual outcome.""}","[0,1,2,3,4]",NA,NA,"",NA,NA,NA,NA,NA,NA,NA,NA,NA,NA,NA,NA,NA,NA,NA,NA,NA,NA,NA,NA,NA,NA,NA,NA,NA,NA,NA,NA,NA,NA,NA,NA,NA,NA,NA,NA,NA,NA,NA,NA,"",NA,NA,NA,NA,NA,NA,NA,NA,2025-11-18 02:32:55
"908.6999999880791","https://psyc-201.github.io/xiang2023/exp/index1.html?PROLIFIC_PID=REDACTED&STUDY_ID=69168b21477cff9ada6cb980&SESSION_ID=691bd37d64ad38f5e85eb401","html-button-response",13,587983,"0.0-14.0-0.0","WjS5+oO5If5BTrOfmm0gM8gjH4j7wt5zLqyK7D5cQYxIAYmWMRemKn1wN6FLZoIdGTQ5L6knT79lUfKVdP6Lu+o0ZFwzT2JtgRjdGRPDYeHRMb7k6/cwQXskRkbCMLK994uJNtVO4hUUTfHPq1bAWLZ/uLhpbngwFj7HizaScwiIxn5LhabDe2VAKc/3KtapSr6V6v5Tz4aC33WKSY9Jn+20ZzisH0rrzzj9RQybs19wLETgyCUQyeOHO2C2SiePkkfGhloVkn40/HwKNFj3gu/n3Ebz/Qy+PZ0SOk/u2LzabJ2JZ36OrK+YJhOwiyetgJlUEBRZmAye+Ehv0RL+mA==","69168b21477cff9ada6cb980","691bd37d64ad38f5e85eb401","index1","<span style='color:red'>Fail,<span style='color:red'>Fail,<span style='color:green'>Lift,<span style='color:green'>Lift,<span style='color:red'>Fail,<span style='color:red'>Fail,<span style='color:red'>Fail,<span style='color:red'>Fail,<span style='color:red'>Fail,<span style='color:green'>Lift,<span style='color:red'>Fail,<span style='color:green'>Lift","<span style='color:red'>Fail,<span style='color:red'>Fail,<span style='color:green'>Lift,<span style='color:green'>Lift,<span style='color:green'>Lift,<span style='color:green'>Lift,<span style='color:red'>Fail,<span style='color:green'>Lift,<span style='color:green'>Lift,<span style='color:green'>Lift,<span style='color:red'>Fail,<span style='color:green'>Lift","<span style='color:red'>Fail,<span style='color:green'>Lift,<span style='color:green'>Lift,<span style='color:red'>Fail,<span style='color:green'>Lift,<span style='color:green'>Lift","0,0,1,1,0,0,0,0,0,1,0,1","0,0,1,1,1,1,0,1,1,1,0,1","0,1,1,0,1,1",10,20,20,"","","<p> Oops! You did not pass the comprehension check.</p>","","","",0,NA,"",NA,NA,NA,NA,NA,NA,NA,NA,NA,NA,NA,NA,NA,NA,NA,NA,NA,NA,NA,NA,NA,NA,NA,NA,NA,NA,NA,NA,NA,NA,NA,NA,NA,NA,NA,NA,NA,NA,NA,NA,"",NA,NA,NA,NA,NA,NA,NA,NA,2025-11-18 02:32:55
"23581.299999952316","https://psyc-201.github.io/xiang2023/exp/index1.html?PROLIFIC_PID=REDACTED&STUDY_ID=69168b21477cff9ada6cb980&SESSION_ID=691bd37d64ad38f5e85eb401","survey-multi-choice",14,611567,"0.0-16.0-0.0","WjS5+oO5If5BTrOfmm0gM8gjH4j7wt5zLqyK7D5cQYxIAYmWMRemKn1wN6FLZoIdGTQ5L6knT79lUfKVdP6Lu+o0ZFwzT2JtgRjdGRPDYeHRMb7k6/cwQXskRkbCMLK994uJNtVO4hUUTfHPq1bAWLZ/uLhpbngwFj7HizaScwiIxn5LhabDe2VAKc/3KtapSr6V6v5Tz4aC33WKSY9Jn+20ZzisH0rrzzj9RQybs19wLETgyCUQyeOHO2C2SiePkkfGhloVkn40/HwKNFj3gu/n3Ebz/Qy+PZ0SOk/u2LzabJ2JZ36OrK+YJhOwiyetgJlUEBRZmAye+Ehv0RL+mA==","69168b21477cff9ada6cb980","691bd37d64ad38f5e85eb401","index1","<span style='color:red'>Fail,<span style='color:red'>Fail,<span style='color:green'>Lift,<span style='color:green'>Lift,<span style='color:red'>Fail,<span style='color:red'>Fail,<span style='color:red'>Fail,<span style='color:red'>Fail,<span style='color:red'>Fail,<span style='color:green'>Lift,<span style='color:red'>Fail,<span style='color:green'>Lift","<span style='color:red'>Fail,<span style='color:red'>Fail,<span style='color:green'>Lift,<span style='color:green'>Lift,<span style='color:green'>Lift,<span style='color:green'>Lift,<span style='color:red'>Fail,<span style='color:green'>Lift,<span style='color:green'>Lift,<span style='color:green'>Lift,<span style='color:red'>Fail,<span style='color:green'>Lift","<span style='color:red'>Fail,<span style='color:green'>Lift,<span style='color:green'>Lift,<span style='color:red'>Fail,<span style='color:green'>Lift,<span style='color:green'>Lift","0,0,1,1,0,0,0,0,0,1,0,1","0,0,1,1,1,1,0,1,1,1,0,1","0,1,1,0,1,1",10,20,20,"","","","","{""Q0"":""It consists of multiple contests, each contest with one round."",""Q1"":""When a new round starts."",""Q2"":""The box weight changes according to the reward on the box; the higher the reward, the heavier the box."",""Q3"":""They will split the $20, that is $10 for each."",""Q4"":""How close my guesses are to the actual outcome.""}","[0,1,2,3,4]",NA,NA,"",NA,NA,NA,NA,NA,NA,NA,NA,NA,NA,NA,NA,NA,NA,NA,NA,NA,NA,NA,NA,NA,NA,NA,NA,NA,NA,NA,NA,NA,NA,NA,NA,NA,NA,NA,NA,NA,NA,NA,NA,"",NA,NA,NA,NA,NA,NA,NA,NA,2025-11-18 02:32:55
"784.6999999880791","https://psyc-201.github.io/xiang2023/exp/index1.html?PROLIFIC_PID=REDACTED&STUDY_ID=69168b21477cff9ada6cb980&SESSION_ID=691bd37d64ad38f5e85eb401","html-button-response",15,612354,"0.0-17.0-0.0","WjS5+oO5If5BTrOfmm0gM8gjH4j7wt5zLqyK7D5cQYxIAYmWMRemKn1wN6FLZoIdGTQ5L6knT79lUfKVdP6Lu+o0ZFwzT2JtgRjdGRPDYeHRMb7k6/cwQXskRkbCMLK994uJNtVO4hUUTfHPq1bAWLZ/uLhpbngwFj7HizaScwiIxn5LhabDe2VAKc/3KtapSr6V6v5Tz4aC33WKSY9Jn+20ZzisH0rrzzj9RQybs19wLETgyCUQyeOHO2C2SiePkkfGhloVkn40/HwKNFj3gu/n3Ebz/Qy+PZ0SOk/u2LzabJ2JZ36OrK+YJhOwiyetgJlUEBRZmAye+Ehv0RL+mA==","69168b21477cff9ada6cb980","691bd37d64ad38f5e85eb401","index1","<span style='color:red'>Fail,<span style='color:red'>Fail,<span style='color:green'>Lift,<span style='color:green'>Lift,<span style='color:red'>Fail,<span style='color:red'>Fail,<span style='color:red'>Fail,<span style='color:red'>Fail,<span style='color:red'>Fail,<span style='color:green'>Lift,<span style='color:red'>Fail,<span style='color:green'>Lift","<span style='color:red'>Fail,<span style='color:red'>Fail,<span style='color:green'>Lift,<span style='color:green'>Lift,<span style='color:green'>Lift,<span style='color:green'>Lift,<span style='color:red'>Fail,<span style='color:green'>Lift,<span style='color:green'>Lift,<span style='color:green'>Lift,<span style='color:red'>Fail,<span style='color:green'>Lift","<span style='color:red'>Fail,<span style='color:green'>Lift,<span style='color:green'>Lift,<span style='color:red'>Fail,<span style='color:green'>Lift,<span style='color:green'>Lift","0,0,1,1,0,0,0,0,0,1,0,1","0,0,1,1,1,1,0,1,1,1,0,1","0,1,1,0,1,1",10,20,20,"","","<p> Oops! You did not pass the comprehension check.</p>","","","",0,NA,"",NA,NA,NA,NA,NA,NA,NA,NA,NA,NA,NA,NA,NA,NA,NA,NA,NA,NA,NA,NA,NA,NA,NA,NA,NA,NA,NA,NA,NA,NA,NA,NA,NA,NA,NA,NA,NA,NA,NA,NA,"",NA,NA,NA,NA,NA,NA,NA,NA,2025-11-18 02:32:55
"15121.100000023842","https://psyc-201.github.io/xiang2023/exp/index1.html?PROLIFIC_PID=REDACTED&STUDY_ID=69168b21477cff9ada6cb980&SESSION_ID=691bd37d64ad38f5e85eb401","survey-multi-choice",16,627478,"0.0-19.0-0.0","WjS5+oO5If5BTrOfmm0gM8gjH4j7wt5zLqyK7D5cQYxIAYmWMRemKn1wN6FLZoIdGTQ5L6knT79lUfKVdP6Lu+o0ZFwzT2JtgRjdGRPDYeHRMb7k6/cwQXskRkbCMLK994uJNtVO4hUUTfHPq1bAWLZ/uLhpbngwFj7HizaScwiIxn5LhabDe2VAKc/3KtapSr6V6v5Tz4aC33WKSY9Jn+20ZzisH0rrzzj9RQybs19wLETgyCUQyeOHO2C2SiePkkfGhloVkn40/HwKNFj3gu/n3Ebz/Qy+PZ0SOk/u2LzabJ2JZ36OrK+YJhOwiyetgJlUEBRZmAye+Ehv0RL+mA==","69168b21477cff9ada6cb980","691bd37d64ad38f5e85eb401","index1","<span style='color:red'>Fail,<span style='color:red'>Fail,<span style='color:green'>Lift,<span style='color:green'>Lift,<span style='color:red'>Fail,<span style='color:red'>Fail,<span style='color:red'>Fail,<span style='color:red'>Fail,<span style='color:red'>Fail,<span style='color:green'>Lift,<span style='color:red'>Fail,<span style='color:green'>Lift","<span style='color:red'>Fail,<span style='color:red'>Fail,<span style='color:green'>Lift,<span style='color:green'>Lift,<span style='color:green'>Lift,<span style='color:green'>Lift,<span style='color:red'>Fail,<span style='color:green'>Lift,<span style='color:green'>Lift,<span style='color:green'>Lift,<span style='color:red'>Fail,<span style='color:green'>Lift","<span style='color:red'>Fail,<span style='color:green'>Lift,<span style='color:green'>Lift,<span style='color:red'>Fail,<span style='color:green'>Lift,<span style='color:green'>Lift","0,0,1,1,0,0,0,0,0,1,0,1","0,0,1,1,1,1,0,1,1,1,0,1","0,1,1,0,1,1",10,20,20,"","","","","{""Q0"":""It consists of multiple contests, each contest with one round."",""Q1"":""When a new round starts."",""Q2"":""The box weight always stays the same (equivalent to strength of 5)."",""Q3"":""They will split the $20, that is $10 for each."",""Q4"":""How close my guesses are to the actual outcome.""}","[0,1,2,3,4]",NA,NA,"",NA,NA,NA,NA,NA,NA,NA,NA,NA,NA,NA,NA,NA,NA,NA,NA,NA,NA,NA,NA,NA,NA,NA,NA,NA,NA,NA,NA,NA,NA,NA,NA,NA,NA,NA,NA,NA,NA,NA,NA,"",NA,NA,NA,NA,NA,NA,NA,NA,2025-11-18 02:32:55
"1221.9000000357628","https://psyc-201.github.io/xiang2023/exp/index1.html?PROLIFIC_PID=REDACTED&STUDY_ID=69168b21477cff9ada6cb980&SESSION_ID=691bd37d64ad38f5e85eb401","html-button-response",17,628702,"0.0-20.0-0.0","WjS5+oO5If5BTrOfmm0gM8gjH4j7wt5zLqyK7D5cQYxIAYmWMRemKn1wN6FLZoIdGTQ5L6knT79lUfKVdP6Lu+o0ZFwzT2JtgRjdGRPDYeHRMb7k6/cwQXskRkbCMLK994uJNtVO4hUUTfHPq1bAWLZ/uLhpbngwFj7HizaScwiIxn5LhabDe2VAKc/3KtapSr6V6v5Tz4aC33WKSY9Jn+20ZzisH0rrzzj9RQybs19wLETgyCUQyeOHO2C2SiePkkfGhloVkn40/HwKNFj3gu/n3Ebz/Qy+PZ0SOk/u2LzabJ2JZ36OrK+YJhOwiyetgJlUEBRZmAye+Ehv0RL+mA==","69168b21477cff9ada6cb980","691bd37d64ad38f5e85eb401","index1","<span style='color:red'>Fail,<span style='color:red'>Fail,<span style='color:green'>Lift,<span style='color:green'>Lift,<span style='color:red'>Fail,<span style='color:red'>Fail,<span style='color:red'>Fail,<span style='color:red'>Fail,<span style='color:red'>Fail,<span style='color:green'>Lift,<span style='color:red'>Fail,<span style='color:green'>Lift","<span style='color:red'>Fail,<span style='color:red'>Fail,<span style='color:green'>Lift,<span style='color:green'>Lift,<span style='color:green'>Lift,<span style='color:green'>Lift,<span style='color:red'>Fail,<span style='color:green'>Lift,<span style='color:green'>Lift,<span style='color:green'>Lift,<span style='color:red'>Fail,<span style='color:green'>Lift","<span style='color:red'>Fail,<span style='color:green'>Lift,<span style='color:green'>Lift,<span style='color:red'>Fail,<span style='color:green'>Lift,<span style='color:green'>Lift","0,0,1,1,0,0,0,0,0,1,0,1","0,0,1,1,1,1,0,1,1,1,0,1","0,1,1,0,1,1",10,20,20,"","","<p> Oops! You did not pass the comprehension check.</p>","","","",0,NA,"",NA,NA,NA,NA,NA,NA,NA,NA,NA,NA,NA,NA,NA,NA,NA,NA,NA,NA,NA,NA,NA,NA,NA,NA,NA,NA,NA,NA,NA,NA,NA,NA,NA,NA,NA,NA,NA,NA,NA,NA,"",NA,NA,NA,NA,NA,NA,NA,NA,2025-11-18 02:32:55
"9526.300000011921","https://psyc-201.github.io/xiang2023/exp/index1.html?PROLIFIC_PID=REDACTED&STUDY_ID=69168b21477cff9ada6cb980&SESSION_ID=691bd37d64ad38f5e85eb401","survey-multi-choice",18,638232,"0.0-22.0-0.0","WjS5+oO5If5BTrOfmm0gM8gjH4j7wt5zLqyK7D5cQYxIAYmWMRemKn1wN6FLZoIdGTQ5L6knT79lUfKVdP6Lu+o0ZFwzT2JtgRjdGRPDYeHRMb7k6/cwQXskRkbCMLK994uJNtVO4hUUTfHPq1bAWLZ/uLhpbngwFj7HizaScwiIxn5LhabDe2VAKc/3KtapSr6V6v5Tz4aC33WKSY9Jn+20ZzisH0rrzzj9RQybs19wLETgyCUQyeOHO2C2SiePkkfGhloVkn40/HwKNFj3gu/n3Ebz/Qy+PZ0SOk/u2LzabJ2JZ36OrK+YJhOwiyetgJlUEBRZmAye+Ehv0RL+mA==","69168b21477cff9ada6cb980","691bd37d64ad38f5e85eb401","index1","<span style='color:red'>Fail,<span style='color:red'>Fail,<span style='color:green'>Lift,<span style='color:green'>Lift,<span style='color:red'>Fail,<span style='color:red'>Fail,<span style='color:red'>Fail,<span style='color:red'>Fail,<span style='color:red'>Fail,<span style='color:green'>Lift,<span style='color:red'>Fail,<span style='color:green'>Lift","<span style='color:red'>Fail,<span style='color:red'>Fail,<span style='color:green'>Lift,<span style='color:green'>Lift,<span style='color:green'>Lift,<span style='color:green'>Lift,<span style='color:red'>Fail,<span style='color:green'>Lift,<span style='color:green'>Lift,<span style='color:green'>Lift,<span style='color:red'>Fail,<span style='color:green'>Lift","<span style='color:red'>Fail,<span style='color:green'>Lift,<span style='color:green'>Lift,<span style='color:red'>Fail,<span style='color:green'>Lift,<span style='color:green'>Lift","0,0,1,1,0,0,0,0,0,1,0,1","0,0,1,1,1,1,0,1,1,1,0,1","0,1,1,0,1,1",10,20,20,"","","","","{""Q0"":""It consists of multiple contests, each contest with one round."",""Q1"":""When a new round starts."",""Q2"":""The box weight changes according to the reward on the box; the higher the reward, the heavier the box."",""Q3"":""They will split the $20, that is $10 for each."",""Q4"":""How fast I make my guesses.""}","[0,1,2,3,4]",NA,NA,"",NA,NA,NA,NA,NA,NA,NA,NA,NA,NA,NA,NA,NA,NA,NA,NA,NA,NA,NA,NA,NA,NA,NA,NA,NA,NA,NA,NA,NA,NA,NA,NA,NA,NA,NA,NA,NA,NA,NA,NA,"",NA,NA,NA,NA,NA,NA,NA,NA,2025-11-18 02:32:55
"926.1999999880791","https://psyc-201.github.io/xiang2023/exp/index1.html?PROLIFIC_PID=REDACTED&STUDY_ID=69168b21477cff9ada6cb980&SESSION_ID=691bd37d64ad38f5e85eb401","html-button-response",19,639160,"0.0-23.0-0.0","WjS5+oO5If5BTrOfmm0gM8gjH4j7wt5zLqyK7D5cQYxIAYmWMRemKn1wN6FLZoIdGTQ5L6knT79lUfKVdP6Lu+o0ZFwzT2JtgRjdGRPDYeHRMb7k6/cwQXskRkbCMLK994uJNtVO4hUUTfHPq1bAWLZ/uLhpbngwFj7HizaScwiIxn5LhabDe2VAKc/3KtapSr6V6v5Tz4aC33WKSY9Jn+20ZzisH0rrzzj9RQybs19wLETgyCUQyeOHO2C2SiePkkfGhloVkn40/HwKNFj3gu/n3Ebz/Qy+PZ0SOk/u2LzabJ2JZ36OrK+YJhOwiyetgJlUEBRZmAye+Ehv0RL+mA==","69168b21477cff9ada6cb980","691bd37d64ad38f5e85eb401","index1","<span style='color:red'>Fail,<span style='color:red'>Fail,<span style='color:green'>Lift,<span style='color:green'>Lift,<span style='color:red'>Fail,<span style='color:red'>Fail,<span style='color:red'>Fail,<span style='color:red'>Fail,<span style='color:red'>Fail,<span style='color:green'>Lift,<span style='color:red'>Fail,<span style='color:green'>Lift","<span style='color:red'>Fail,<span style='color:red'>Fail,<span style='color:green'>Lift,<span style='color:green'>Lift,<span style='color:green'>Lift,<span style='color:green'>Lift,<span style='color:red'>Fail,<span style='color:green'>Lift,<span style='color:green'>Lift,<span style='color:green'>Lift,<span style='color:red'>Fail,<span style='color:green'>Lift","<span style='color:red'>Fail,<span style='color:green'>Lift,<span style='color:green'>Lift,<span style='color:red'>Fail,<span style='color:green'>Lift,<span style='color:green'>Lift","0,0,1,1,0,0,0,0,0,1,0,1","0,0,1,1,1,1,0,1,1,1,0,1","0,1,1,0,1,1",10,20,20,"","","<p> Oops! You did not pass the comprehension check.</p>","","","",1,NA,"",NA,NA,NA,NA,NA,NA,NA,NA,NA,NA,NA,NA,NA,NA,NA,NA,NA,NA,NA,NA,NA,NA,NA,NA,NA,NA,NA,NA,NA,NA,NA,NA,NA,NA,NA,NA,NA,NA,NA,NA,"",NA,NA,NA,NA,NA,NA,NA,NA,2025-11-18 02:32:55
"105948.90000003576","https://psyc-201.github.io/xiang2023/exp/index1.html?PROLIFIC_PID=REDACTED&STUDY_ID=69168b21477cff9ada6cb980&SESSION_ID=691bd37d64ad38f5e85eb401","instructions",20,745111,"0.0-24.0-0.0","WjS5+oO5If5BTrOfmm0gM8gjH4j7wt5zLqyK7D5cQYxIAYmWMRemKn1wN6FLZoIdGTQ5L6knT79lUfKVdP6Lu+o0ZFwzT2JtgRjdGRPDYeHRMb7k6/cwQXskRkbCMLK994uJNtVO4hUUTfHPq1bAWLZ/uLhpbngwFj7HizaScwiIxn5LhabDe2VAKc/3KtapSr6V6v5Tz4aC33WKSY9Jn+20ZzisH0rrzzj9RQybs19wLETgyCUQyeOHO2C2SiePkkfGhloVkn40/HwKNFj3gu/n3Ebz/Qy+PZ0SOk/u2LzabJ2JZ36OrK+YJhOwiyetgJlUEBRZmAye+Ehv0RL+mA==","69168b21477cff9ada6cb980","691bd37d64ad38f5e85eb401","index1","<span style='color:red'>Fail,<span style='color:red'>Fail,<span style='color:green'>Lift,<span style='color:green'>Lift,<span style='color:red'>Fail,<span style='color:red'>Fail,<span style='color:red'>Fail,<span style='color:red'>Fail,<span style='color:red'>Fail,<span style='color:green'>Lift,<span style='color:red'>Fail,<span style='color:green'>Lift","<span style='color:red'>Fail,<span style='color:red'>Fail,<span style='color:green'>Lift,<span style='color:green'>Lift,<span style='color:green'>Lift,<span style='color:green'>Lift,<span style='color:red'>Fail,<span style='color:green'>Lift,<span style='color:green'>Lift,<span style='color:green'>Lift,<span style='color:red'>Fail,<span style='color:green'>Lift","<span style='color:red'>Fail,<span style='color:green'>Lift,<span style='color:green'>Lift,<span style='color:red'>Fail,<span style='color:green'>Lift,<span style='color:green'>Lift","0,0,1,1,0,0,0,0,0,1,0,1","0,0,1,1,1,1,0,1,1,1,0,1","0,1,1,0,1,1",10,20,20,"","[{""page_index"":0,""viewing_time"":29498.19999998808},{""page_index"":1,""viewing_time"":9438.900000035763},{""page_index"":2,""viewing_time"":30023.899999976158},{""page_index"":3,""viewing_time"":20469.400000035763},{""page_index"":4,""viewing_time"":6909.199999988079},{""page_index"":5,""viewing_time"":8290.699999988079},{""page_index"":6,""viewing_time"":1318.1000000238419}]","","","","",NA,NA,"",NA,NA,NA,NA,NA,NA,NA,NA,NA,NA,NA,NA,NA,NA,NA,NA,NA,NA,NA,NA,NA,NA,NA,NA,NA,NA,NA,NA,NA,NA,NA,NA,NA,NA,NA,NA,NA,NA,NA,NA,"",NA,NA,NA,NA,NA,NA,NA,NA,2025-11-18 02:32:55
"null","https://psyc-201.github.io/xiang2023/exp/index1.html?PROLIFIC_PID=REDACTED&STUDY_ID=69168b21477cff9ada6cb980&SESSION_ID=691bd37d64ad38f5e85eb401","html-keyboard-response",21,746123,"0.0-24.0-1.0","WjS5+oO5If5BTrOfmm0gM8gjH4j7wt5zLqyK7D5cQYxIAYmWMRemKn1wN6FLZoIdGTQ5L6knT79lUfKVdP6Lu+o0ZFwzT2JtgRjdGRPDYeHRMb7k6/cwQXskRkbCMLK994uJNtVO4hUUTfHPq1bAWLZ/uLhpbngwFj7HizaScwiIxn5LhabDe2VAKc/3KtapSr6V6v5Tz4aC33WKSY9Jn+20ZzisH0rrzzj9RQybs19wLETgyCUQyeOHO2C2SiePkkfGhloVkn40/HwKNFj3gu/n3Ebz/Qy+PZ0SOk/u2LzabJ2JZ36OrK+YJhOwiyetgJlUEBRZmAye+Ehv0RL+mA==","69168b21477cff9ada6cb980","691bd37d64ad38f5e85eb401","index1","<span style='color:red'>Fail,<span style='color:red'>Fail,<span style='color:green'>Lift,<span style='color:green'>Lift,<span style='color:red'>Fail,<span style='color:red'>Fail,<span style='color:red'>Fail,<span style='color:red'>Fail,<span style='color:red'>Fail,<span style='color:green'>Lift,<span style='color:red'>Fail,<span style='color:green'>Lift","<span style='color:red'>Fail,<span style='color:red'>Fail,<span style='color:green'>Lift,<span style='color:green'>Lift,<span style='color:green'>Lift,<span style='color:green'>Lift,<span style='color:red'>Fail,<span style='color:green'>Lift,<span style='color:green'>Lift,<span style='color:green'>Lift,<span style='color:red'>Fail,<span style='color:green'>Lift","<span style='color:red'>Fail,<span style='color:green'>Lift,<span style='color:green'>Lift,<span style='color:red'>Fail,<span style='color:green'>Lift,<span style='color:green'>Lift","0,0,1,1,0,0,0,0,0,1,0,1","0,0,1,1,1,1,0,1,1,1,0,1","0,1,1,0,1,1",10,20,20,"",""," ","null","","",NA,NA,"",NA,NA,NA,NA,NA,NA,NA,NA,NA,NA,NA,NA,NA,NA,NA,NA,NA,NA,NA,NA,NA,NA,NA,NA,NA,NA,NA,NA,NA,NA,NA,NA,NA,NA,NA,NA,NA,NA,NA,NA,"",NA,NA,NA,NA,NA,NA,NA,NA,2025-11-18 02:32:55
"22529.299999952316","https://psyc-201.github.io/xiang2023/exp/index1.html?PROLIFIC_PID=REDACTED&STUDY_ID=69168b21477cff9ada6cb980&SESSION_ID=691bd37d64ad38f5e85eb401","survey-multi-choice",22,768656,"0.0-25.0-0.0","WjS5+oO5If5BTrOfmm0gM8gjH4j7wt5zLqyK7D5cQYxIAYmWMRemKn1wN6FLZoIdGTQ5L6knT79lUfKVdP6Lu+o0ZFwzT2JtgRjdGRPDYeHRMb7k6/cwQXskRkbCMLK994uJNtVO4hUUTfHPq1bAWLZ/uLhpbngwFj7HizaScwiIxn5LhabDe2VAKc/3KtapSr6V6v5Tz4aC33WKSY9Jn+20ZzisH0rrzzj9RQybs19wLETgyCUQyeOHO2C2SiePkkfGhloVkn40/HwKNFj3gu/n3Ebz/Qy+PZ0SOk/u2LzabJ2JZ36OrK+YJhOwiyetgJlUEBRZmAye+Ehv0RL+mA==","69168b21477cff9ada6cb980","691bd37d64ad38f5e85eb401","index1","<span style='color:red'>Fail,<span style='color:red'>Fail,<span style='color:green'>Lift,<span style='color:green'>Lift,<span style='color:red'>Fail,<span style='color:red'>Fail,<span style='color:red'>Fail,<span style='color:red'>Fail,<span style='color:red'>Fail,<span style='color:green'>Lift,<span style='color:red'>Fail,<span style='color:green'>Lift","<span style='color:red'>Fail,<span style='color:red'>Fail,<span style='color:green'>Lift,<span style='color:green'>Lift,<span style='color:green'>Lift,<span style='color:green'>Lift,<span style='color:red'>Fail,<span style='color:green'>Lift,<span style='color:green'>Lift,<span style='color:green'>Lift,<span style='color:red'>Fail,<span style='color:green'>Lift","<span style='color:red'>Fail,<span style='color:green'>Lift,<span style='color:green'>Lift,<span style='color:red'>Fail,<span style='color:green'>Lift,<span style='color:green'>Lift","0,0,1,1,0,0,0,0,0,1,0,1","0,0,1,1,1,1,0,1,1,1,0,1","0,1,1,0,1,1",10,20,20,"","","","","{""Q0"":""It consists of multiple contests, each contest with three rounds."",""Q1"":""When a new contest begins."",""Q2"":""The box weight always stays the same (equivalent to strength of 5)."",""Q3"":""They will split the $20, that is $10 for each."",""Q4"":""How close my guesses are to the actual outcome.""}","[0,1,2,3,4]",NA,NA,"",NA,NA,NA,NA,NA,NA,NA,NA,NA,NA,NA,NA,NA,NA,NA,NA,NA,NA,NA,NA,NA,NA,NA,NA,NA,NA,NA,NA,NA,NA,NA,NA,NA,NA,NA,NA,NA,NA,NA,NA,"",NA,NA,NA,NA,NA,NA,NA,NA,2025-11-18 02:32:55
"1461.5","https://psyc-201.github.io/xiang2023/exp/index1.html?PROLIFIC_PID=REDACTED&STUDY_ID=69168b21477cff9ada6cb980&SESSION_ID=691bd37d64ad38f5e85eb401","html-button-response",23,770120,"0.0-26.0-0.0","WjS5+oO5If5BTrOfmm0gM8gjH4j7wt5zLqyK7D5cQYxIAYmWMRemKn1wN6FLZoIdGTQ5L6knT79lUfKVdP6Lu+o0ZFwzT2JtgRjdGRPDYeHRMb7k6/cwQXskRkbCMLK994uJNtVO4hUUTfHPq1bAWLZ/uLhpbngwFj7HizaScwiIxn5LhabDe2VAKc/3KtapSr6V6v5Tz4aC33WKSY9Jn+20ZzisH0rrzzj9RQybs19wLETgyCUQyeOHO2C2SiePkkfGhloVkn40/HwKNFj3gu/n3Ebz/Qy+PZ0SOk/u2LzabJ2JZ36OrK+YJhOwiyetgJlUEBRZmAye+Ehv0RL+mA==","69168b21477cff9ada6cb980","691bd37d64ad38f5e85eb401","index1","<span style='color:red'>Fail,<span style='color:red'>Fail,<span style='color:green'>Lift,<span style='color:green'>Lift,<span style='color:red'>Fail,<span style='color:red'>Fail,<span style='color:red'>Fail,<span style='color:red'>Fail,<span style='color:red'>Fail,<span style='color:green'>Lift,<span style='color:red'>Fail,<span style='color:green'>Lift","<span style='color:red'>Fail,<span style='color:red'>Fail,<span style='color:green'>Lift,<span style='color:green'>Lift,<span style='color:green'>Lift,<span style='color:green'>Lift,<span style='color:red'>Fail,<span style='color:green'>Lift,<span style='color:green'>Lift,<span style='color:green'>Lift,<span style='color:red'>Fail,<span style='color:green'>Lift","<span style='color:red'>Fail,<span style='color:green'>Lift,<span style='color:green'>Lift,<span style='color:red'>Fail,<span style='color:green'>Lift,<span style='color:green'>Lift","0,0,1,1,0,0,0,0,0,1,0,1","0,0,1,1,1,1,0,1,1,1,0,1","0,1,1,0,1,1",10,20,20,"","","<p> Oops! You did not pass the comprehension check.</p>","","","",0,NA,"",NA,NA,NA,NA,NA,NA,NA,NA,NA,NA,NA,NA,NA,NA,NA,NA,NA,NA,NA,NA,NA,NA,NA,NA,NA,NA,NA,NA,NA,NA,NA,NA,NA,NA,NA,NA,NA,NA,NA,NA,"",NA,NA,NA,NA,NA,NA,NA,NA,2025-11-18 02:32:55
"17999.400000035763","https://psyc-201.github.io/xiang2023/exp/index1.html?PROLIFIC_PID=REDACTED&STUDY_ID=69168b21477cff9ada6cb980&SESSION_ID=691bd37d64ad38f5e85eb401","survey-multi-choice",24,788124,"0.0-28.0-0.0","WjS5+oO5If5BTrOfmm0gM8gjH4j7wt5zLqyK7D5cQYxIAYmWMRemKn1wN6FLZoIdGTQ5L6knT79lUfKVdP6Lu+o0ZFwzT2JtgRjdGRPDYeHRMb7k6/cwQXskRkbCMLK994uJNtVO4hUUTfHPq1bAWLZ/uLhpbngwFj7HizaScwiIxn5LhabDe2VAKc/3KtapSr6V6v5Tz4aC33WKSY9Jn+20ZzisH0rrzzj9RQybs19wLETgyCUQyeOHO2C2SiePkkfGhloVkn40/HwKNFj3gu/n3Ebz/Qy+PZ0SOk/u2LzabJ2JZ36OrK+YJhOwiyetgJlUEBRZmAye+Ehv0RL+mA==","69168b21477cff9ada6cb980","691bd37d64ad38f5e85eb401","index1","<span style='color:red'>Fail,<span style='color:red'>Fail,<span style='color:green'>Lift,<span style='color:green'>Lift,<span style='color:red'>Fail,<span style='color:red'>Fail,<span style='color:red'>Fail,<span style='color:red'>Fail,<span style='color:red'>Fail,<span style='color:green'>Lift,<span style='color:red'>Fail,<span style='color:green'>Lift","<span style='color:red'>Fail,<span style='color:red'>Fail,<span style='color:green'>Lift,<span style='color:green'>Lift,<span style='color:green'>Lift,<span style='color:green'>Lift,<span style='color:red'>Fail,<span style='color:green'>Lift,<span style='color:green'>Lift,<span style='color:green'>Lift,<span style='color:red'>Fail,<span style='color:green'>Lift","<span style='color:red'>Fail,<span style='color:green'>Lift,<span style='color:green'>Lift,<span style='color:red'>Fail,<span style='color:green'>Lift,<span style='color:green'>Lift","0,0,1,1,0,0,0,0,0,1,0,1","0,0,1,1,1,1,0,1,1,1,0,1","0,1,1,0,1,1",10,20,20,"","","","","{""Q0"":""It consists of multiple contests, each contest with three rounds."",""Q1"":""When a new contest begins."",""Q2"":""The box weight always stays the same (equivalent to strength of 5)."",""Q3"":""Each will get $20."",""Q4"":""How close my guesses are to the actual outcome.""}","[0,1,2,3,4]",NA,NA,"",NA,NA,NA,NA,NA,NA,NA,NA,NA,NA,NA,NA,NA,NA,NA,NA,NA,NA,NA,NA,NA,NA,NA,NA,NA,NA,NA,NA,NA,NA,NA,NA,NA,NA,NA,NA,NA,NA,NA,NA,"",NA,NA,NA,NA,NA,NA,NA,NA,2025-11-18 02:32:55
"21043","https://psyc-201.github.io/xiang2023/exp/index1.html?PROLIFIC_PID=REDACTED&STUDY_ID=69168b21477cff9ada6cb980&SESSION_ID=691bd37d64ad38f5e85eb401","instructions",25,809176,"0.0-305.0","WjS5+oO5If5BTrOfmm0gM8gjH4j7wt5zLqyK7D5cQYxIAYmWMRemKn1wN6FLZoIdGTQ5L6knT79lUfKVdP6Lu+o0ZFwzT2JtgRjdGRPDYeHRMb7k6/cwQXskRkbCMLK994uJNtVO4hUUTfHPq1bAWLZ/uLhpbngwFj7HizaScwiIxn5LhabDe2VAKc/3KtapSr6V6v5Tz4aC33WKSY9Jn+20ZzisH0rrzzj9RQybs19wLETgyCUQyeOHO2C2SiePkkfGhloVkn40/HwKNFj3gu/n3Ebz/Qy+PZ0SOk/u2LzabJ2JZ36OrK+YJhOwiyetgJlUEBRZmAye+Ehv0RL+mA==","69168b21477cff9ada6cb980","691bd37d64ad38f5e85eb401","index1","<span style='color:red'>Fail,<span style='color:red'>Fail,<span style='color:green'>Lift,<span style='color:green'>Lift,<span style='color:red'>Fail,<span style='color:red'>Fail,<span style='color:red'>Fail,<span style='color:red'>Fail,<span style='color:red'>Fail,<span style='color:green'>Lift,<span style='color:red'>Fail,<span style='color:green'>Lift","<span style='color:red'>Fail,<span style='color:red'>Fail,<span style='color:green'>Lift,<span style='color:green'>Lift,<span style='color:green'>Lift,<span style='color:green'>Lift,<span style='color:red'>Fail,<span style='color:green'>Lift,<span style='color:green'>Lift,<span style='color:green'>Lift,<span style='color:red'>Fail,<span style='color:green'>Lift","<span style='color:red'>Fail,<span style='color:green'>Lift,<span style='color:green'>Lift,<span style='color:red'>Fail,<span style='color:green'>Lift,<span style='color:green'>Lift","0,0,1,1,0,0,0,0,0,1,0,1","0,0,1,1,1,1,0,1,1,1,0,1","0,1,1,0,1,1",10,20,20,"","[{""page_index"":0,""viewing_time"":8266.300000011921},{""page_index"":1,""viewing_time"":12776.400000035763}]","","","","",NA,NA,"",NA,NA,NA,NA,NA,NA,NA,NA,NA,NA,NA,NA,NA,NA,NA,NA,NA,NA,NA,NA,NA,NA,NA,NA,NA,NA,NA,NA,NA,NA,NA,NA,NA,NA,NA,NA,NA,NA,NA,NA,"",NA,NA,NA,NA,NA,NA,NA,NA,2025-11-18 02:32:55
"null","https://psyc-201.github.io/xiang2023/exp/index1.html?PROLIFIC_PID=REDACTED&STUDY_ID=69168b21477cff9ada6cb980&SESSION_ID=691bd37d64ad38f5e85eb401","html-keyboard-response",26,810180,"0.0-306.0","WjS5+oO5If5BTrOfmm0gM8gjH4j7wt5zLqyK7D5cQYxIAYmWMRemKn1wN6FLZoIdGTQ5L6knT79lUfKVdP6Lu+o0ZFwzT2JtgRjdGRPDYeHRMb7k6/cwQXskRkbCMLK994uJNtVO4hUUTfHPq1bAWLZ/uLhpbngwFj7HizaScwiIxn5LhabDe2VAKc/3KtapSr6V6v5Tz4aC33WKSY9Jn+20ZzisH0rrzzj9RQybs19wLETgyCUQyeOHO2C2SiePkkfGhloVkn40/HwKNFj3gu/n3Ebz/Qy+PZ0SOk/u2LzabJ2JZ36OrK+YJhOwiyetgJlUEBRZmAye+Ehv0RL+mA==","69168b21477cff9ada6cb980","691bd37d64ad38f5e85eb401","index1","<span style='color:red'>Fail,<span style='color:red'>Fail,<span style='color:green'>Lift,<span style='color:green'>Lift,<span style='color:red'>Fail,<span style='color:red'>Fail,<span style='color:red'>Fail,<span style='color:red'>Fail,<span style='color:red'>Fail,<span style='color:green'>Lift,<span style='color:red'>Fail,<span style='color:green'>Lift","<span style='color:red'>Fail,<span style='color:red'>Fail,<span style='color:green'>Lift,<span style='color:green'>Lift,<span style='color:green'>Lift,<span style='color:green'>Lift,<span style='color:red'>Fail,<span style='color:green'>Lift,<span style='color:green'>Lift,<span style='color:green'>Lift,<span style='color:red'>Fail,<span style='color:green'>Lift","<span style='color:red'>Fail,<span style='color:green'>Lift,<span style='color:green'>Lift,<span style='color:red'>Fail,<span style='color:green'>Lift,<span style='color:green'>Lift","0,0,1,1,0,0,0,0,0,1,0,1","0,0,1,1,1,1,0,1,1,1,0,1","0,1,1,0,1,1",10,20,20,"",""," ","null","","",NA,1,"",NA,NA,NA,NA,NA,NA,NA,NA,NA,NA,NA,NA,NA,NA,NA,NA,NA,NA,NA,NA,NA,NA,NA,NA,NA,NA,NA,NA,NA,NA,NA,NA,NA,NA,NA,NA,NA,NA,NA,NA,"",NA,NA,NA,NA,NA,NA,NA,NA,2025-11-18 02:32:55
"null","https://psyc-201.github.io/xiang2023/exp/index1.html?PROLIFIC_PID=REDACTED&STUDY_ID=69168b21477cff9ada6cb980&SESSION_ID=691bd37d64ad38f5e85eb401","html-keyboard-response",27,813195,"0.0-307.0","WjS5+oO5If5BTrOfmm0gM8gjH4j7wt5zLqyK7D5cQYxIAYmWMRemKn1wN6FLZoIdGTQ5L6knT79lUfKVdP6Lu+o0ZFwzT2JtgRjdGRPDYeHRMb7k6/cwQXskRkbCMLK994uJNtVO4hUUTfHPq1bAWLZ/uLhpbngwFj7HizaScwiIxn5LhabDe2VAKc/3KtapSr6V6v5Tz4aC33WKSY9Jn+20ZzisH0rrzzj9RQybs19wLETgyCUQyeOHO2C2SiePkkfGhloVkn40/HwKNFj3gu/n3Ebz/Qy+PZ0SOk/u2LzabJ2JZ36OrK+YJhOwiyetgJlUEBRZmAye+Ehv0RL+mA==","69168b21477cff9ada6cb980","691bd37d64ad38f5e85eb401","index1","<span style='color:red'>Fail,<span style='color:red'>Fail,<span style='color:green'>Lift,<span style='color:green'>Lift,<span style='color:red'>Fail,<span style='color:red'>Fail,<span style='color:red'>Fail,<span style='color:red'>Fail,<span style='color:red'>Fail,<span style='color:green'>Lift,<span style='color:red'>Fail,<span style='color:green'>Lift","<span style='color:red'>Fail,<span style='color:red'>Fail,<span style='color:green'>Lift,<span style='color:green'>Lift,<span style='color:green'>Lift,<span style='color:green'>Lift,<span style='color:red'>Fail,<span style='color:green'>Lift,<span style='color:green'>Lift,<span style='color:green'>Lift,<span style='color:red'>Fail,<span style='color:green'>Lift","<span style='color:red'>Fail,<span style='color:green'>Lift,<span style='color:green'>Lift,<span style='color:red'>Fail,<span style='color:green'>Lift,<span style='color:green'>Lift","0,0,1,1,0,0,0,0,0,1,0,1","0,0,1,1,1,1,0,1,1,1,0,1","0,1,1,0,1,1",10,20,20,"","","<p style='font-size:30px'><b> New Contest! </b></p>","null","","",NA,1,"",NA,NA,NA,NA,NA,NA,NA,NA,NA,NA,NA,NA,NA,NA,NA,NA,NA,NA,NA,NA,NA,NA,NA,NA,NA,NA,NA,NA,NA,NA,NA,NA,NA,NA,NA,NA,NA,NA,NA,NA,"",NA,NA,NA,NA,NA,NA,NA,NA,2025-11-18 02:32:55
"35303.80000001192","https://psyc-201.github.io/xiang2023/exp/index1.html?PROLIFIC_PID=REDACTED&STUDY_ID=69168b21477cff9ada6cb980&SESSION_ID=691bd37d64ad38f5e85eb401","survey-html-form",28,848504,"0.0-308.0","WjS5+oO5If5BTrOfmm0gM8gjH4j7wt5zLqyK7D5cQYxIAYmWMRemKn1wN6FLZoIdGTQ5L6knT79lUfKVdP6Lu+o0ZFwzT2JtgRjdGRPDYeHRMb7k6/cwQXskRkbCMLK994uJNtVO4hUUTfHPq1bAWLZ/uLhpbngwFj7HizaScwiIxn5LhabDe2VAKc/3KtapSr6V6v5Tz4aC33WKSY9Jn+20ZzisH0rrzzj9RQybs19wLETgyCUQyeOHO2C2SiePkkfGhloVkn40/HwKNFj3gu/n3Ebz/Qy+PZ0SOk/u2LzabJ2JZ36OrK+YJhOwiyetgJlUEBRZmAye+Ehv0RL+mA==","69168b21477cff9ada6cb980","691bd37d64ad38f5e85eb401","index1","<span style='color:red'>Fail,<span style='color:red'>Fail,<span style='color:green'>Lift,<span style='color:green'>Lift,<span style='color:red'>Fail,<span style='color:red'>Fail,<span style='color:red'>Fail,<span style='color:red'>Fail,<span style='color:red'>Fail,<span style='color:green'>Lift,<span style='color:red'>Fail,<span style='color:green'>Lift","<span style='color:red'>Fail,<span style='color:red'>Fail,<span style='color:green'>Lift,<span style='color:green'>Lift,<span style='color:green'>Lift,<span style='color:green'>Lift,<span style='color:red'>Fail,<span style='color:green'>Lift,<span style='color:green'>Lift,<span style='color:green'>Lift,<span style='color:red'>Fail,<span style='color:green'>Lift","<span style='color:red'>Fail,<span style='color:green'>Lift,<span style='color:green'>Lift,<span style='color:red'>Fail,<span style='color:green'>Lift,<span style='color:green'>Lift","0,0,1,1,0,0,0,0,0,1,0,1","0,0,1,1,1,1,0,1,1,1,0,1","0,1,1,0,1,1",10,20,20,"","","","","{""box1"":""1"",""box2"":""8"",""box4"":""100""}","",NA,1,"round1_outcome",1,1,1,1,8,NA,100,0,1,10,1,8,NA,100,0,1,10,NA,NA,NA,NA,NA,NA,NA,NA,NA,NA,NA,NA,NA,NA,NA,NA,NA,NA,NA,NA,NA,NA,NA,"",NA,NA,NA,NA,NA,NA,NA,NA,2025-11-18 02:32:55
"120244.89999997616","https://psyc-201.github.io/xiang2023/exp/index1.html?PROLIFIC_PID=REDACTED&STUDY_ID=69168b21477cff9ada6cb980&SESSION_ID=691bd37d64ad38f5e85eb401","survey-html-form",29,968753,"0.0-309.0","WjS5+oO5If5BTrOfmm0gM8gjH4j7wt5zLqyK7D5cQYxIAYmWMRemKn1wN6FLZoIdGTQ5L6knT79lUfKVdP6Lu+o0ZFwzT2JtgRjdGRPDYeHRMb7k6/cwQXskRkbCMLK994uJNtVO4hUUTfHPq1bAWLZ/uLhpbngwFj7HizaScwiIxn5LhabDe2VAKc/3KtapSr6V6v5Tz4aC33WKSY9Jn+20ZzisH0rrzzj9RQybs19wLETgyCUQyeOHO2C2SiePkkfGhloVkn40/HwKNFj3gu/n3Ebz/Qy+PZ0SOk/u2LzabJ2JZ36OrK+YJhOwiyetgJlUEBRZmAye+Ehv0RL+mA==","69168b21477cff9ada6cb980","691bd37d64ad38f5e85eb401","index1","<span style='color:red'>Fail,<span style='color:red'>Fail,<span style='color:green'>Lift,<span style='color:green'>Lift,<span style='color:red'>Fail,<span style='color:red'>Fail,<span style='color:red'>Fail,<span style='color:red'>Fail,<span style='color:red'>Fail,<span style='color:green'>Lift,<span style='color:red'>Fail,<span style='color:green'>Lift","<span style='color:red'>Fail,<span style='color:red'>Fail,<span style='color:green'>Lift,<span style='color:green'>Lift,<span style='color:green'>Lift,<span style='color:green'>Lift,<span style='color:red'>Fail,<span style='color:green'>Lift,<span style='color:green'>Lift,<span style='color:green'>Lift,<span style='color:red'>Fail,<span style='color:green'>Lift","<span style='color:red'>Fail,<span style='color:green'>Lift,<span style='color:green'>Lift,<span style='color:red'>Fail,<span style='color:green'>Lift,<span style='color:green'>Lift","0,0,1,1,0,0,0,0,0,1,0,1","0,0,1,1,1,1,0,1,1,1,0,1","0,1,1,0,1,1",10,20,20,"","","","","{""box1"":""1"",""box2"":""1""}","",NA,1,"round2_ready",2,1,2,NA,NA,NA,NA,NA,NA,NA,NA,NA,NA,NA,NA,NA,NA,1,1,1,1,NA,NA,NA,NA,NA,NA,NA,NA,NA,NA,NA,NA,NA,NA,NA,NA,NA,NA,NA,"",NA,NA,NA,NA,NA,NA,NA,NA,2025-11-18 02:32:55
"35996.5","https://psyc-201.github.io/xiang2023/exp/index1.html?PROLIFIC_PID=REDACTED&STUDY_ID=69168b21477cff9ada6cb980&SESSION_ID=691bd37d64ad38f5e85eb401","survey-html-form",30,1004752,"0.0-310.0","WjS5+oO5If5BTrOfmm0gM8gjH4j7wt5zLqyK7D5cQYxIAYmWMRemKn1wN6FLZoIdGTQ5L6knT79lUfKVdP6Lu+o0ZFwzT2JtgRjdGRPDYeHRMb7k6/cwQXskRkbCMLK994uJNtVO4hUUTfHPq1bAWLZ/uLhpbngwFj7HizaScwiIxn5LhabDe2VAKc/3KtapSr6V6v5Tz4aC33WKSY9Jn+20ZzisH0rrzzj9RQybs19wLETgyCUQyeOHO2C2SiePkkfGhloVkn40/HwKNFj3gu/n3Ebz/Qy+PZ0SOk/u2LzabJ2JZ36OrK+YJhOwiyetgJlUEBRZmAye+Ehv0RL+mA==","69168b21477cff9ada6cb980","691bd37d64ad38f5e85eb401","index1","<span style='color:red'>Fail,<span style='color:red'>Fail,<span style='color:green'>Lift,<span style='color:green'>Lift,<span style='color:red'>Fail,<span style='color:red'>Fail,<span style='color:red'>Fail,<span style='color:red'>Fail,<span style='color:red'>Fail,<span style='color:green'>Lift,<span style='color:red'>Fail,<span style='color:green'>Lift","<span style='color:red'>Fail,<span style='color:red'>Fail,<span style='color:green'>Lift,<span style='color:green'>Lift,<span style='color:green'>Lift,<span style='color:green'>Lift,<span style='color:red'>Fail,<span style='color:green'>Lift,<span style='color:green'>Lift,<span style='color:green'>Lift,<span style='color:red'>Fail,<span style='color:green'>Lift","<span style='color:red'>Fail,<span style='color:green'>Lift,<span style='color:green'>Lift,<span style='color:red'>Fail,<span style='color:green'>Lift,<span style='color:green'>Lift","0,0,1,1,0,0,0,0,0,1,0,1","0,0,1,1,1,1,0,1,1,1,0,1","0,1,1,0,1,1",10,20,20,"","","","","{""box1"":""1"",""box2"":""8"",""box4"":""100""}","",NA,1,"round2_outcome",3,1,2,1,8,NA,100,0,1,20,NA,NA,NA,NA,NA,NA,NA,NA,NA,NA,NA,1,8,NA,100,0,1,20,NA,NA,NA,NA,NA,NA,NA,NA,NA,NA,NA,NA,"",NA,NA,NA,NA,NA,NA,NA,NA,2025-11-18 02:32:55
"10075.899999976158","https://psyc-201.github.io/xiang2023/exp/index1.html?PROLIFIC_PID=REDACTED&STUDY_ID=69168b21477cff9ada6cb980&SESSION_ID=691bd37d64ad38f5e85eb401","survey-html-form",31,1014831,"0.0-311.0","WjS5+oO5If5BTrOfmm0gM8gjH4j7wt5zLqyK7D5cQYxIAYmWMRemKn1wN6FLZoIdGTQ5L6knT79lUfKVdP6Lu+o0ZFwzT2JtgRjdGRPDYeHRMb7k6/cwQXskRkbCMLK994uJNtVO4hUUTfHPq1bAWLZ/uLhpbngwFj7HizaScwiIxn5LhabDe2VAKc/3KtapSr6V6v5Tz4aC33WKSY9Jn+20ZzisH0rrzzj9RQybs19wLETgyCUQyeOHO2C2SiePkkfGhloVkn40/HwKNFj3gu/n3Ebz/Qy+PZ0SOk/u2LzabJ2JZ36OrK+YJhOwiyetgJlUEBRZmAye+Ehv0RL+mA==","69168b21477cff9ada6cb980","691bd37d64ad38f5e85eb401","index1","<span style='color:red'>Fail,<span style='color:red'>Fail,<span style='color:green'>Lift,<span style='color:green'>Lift,<span style='color:red'>Fail,<span style='color:red'>Fail,<span style='color:red'>Fail,<span style='color:red'>Fail,<span style='color:red'>Fail,<span style='color:green'>Lift,<span style='color:red'>Fail,<span style='color:green'>Lift","<span style='color:red'>Fail,<span style='color:red'>Fail,<span style='color:green'>Lift,<span style='color:green'>Lift,<span style='color:green'>Lift,<span style='color:green'>Lift,<span style='color:red'>Fail,<span style='color:green'>Lift,<span style='color:green'>Lift,<span style='color:green'>Lift,<span style='color:red'>Fail,<span style='color:green'>Lift","<span style='color:red'>Fail,<span style='color:green'>Lift,<span style='color:green'>Lift,<span style='color:red'>Fail,<span style='color:green'>Lift,<span style='color:green'>Lift","0,0,1,1,0,0,0,0,0,1,0,1","0,0,1,1,1,1,0,1,1,1,0,1","0,1,1,0,1,1",10,20,20,"","","","","{""box1"":""9""}","",NA,1,"round3_ready",4,1,3,NA,NA,NA,NA,NA,NA,NA,NA,NA,NA,NA,NA,NA,NA,9,9,NA,NA,NA,NA,NA,NA,NA,NA,NA,9,9,NA,NA,NA,NA,NA,NA,NA,NA,NA,NA,"",NA,NA,NA,NA,NA,NA,NA,NA,2025-11-18 02:32:55
"23415.399999976158","https://psyc-201.github.io/xiang2023/exp/index1.html?PROLIFIC_PID=REDACTED&STUDY_ID=69168b21477cff9ada6cb980&SESSION_ID=691bd37d64ad38f5e85eb401","survey-html-form",32,1038250,"0.0-312.0-0.0","WjS5+oO5If5BTrOfmm0gM8gjH4j7wt5zLqyK7D5cQYxIAYmWMRemKn1wN6FLZoIdGTQ5L6knT79lUfKVdP6Lu+o0ZFwzT2JtgRjdGRPDYeHRMb7k6/cwQXskRkbCMLK994uJNtVO4hUUTfHPq1bAWLZ/uLhpbngwFj7HizaScwiIxn5LhabDe2VAKc/3KtapSr6V6v5Tz4aC33WKSY9Jn+20ZzisH0rrzzj9RQybs19wLETgyCUQyeOHO2C2SiePkkfGhloVkn40/HwKNFj3gu/n3Ebz/Qy+PZ0SOk/u2LzabJ2JZ36OrK+YJhOwiyetgJlUEBRZmAye+Ehv0RL+mA==","69168b21477cff9ada6cb980","691bd37d64ad38f5e85eb401","index1","<span style='color:red'>Fail,<span style='color:red'>Fail,<span style='color:green'>Lift,<span style='color:green'>Lift,<span style='color:red'>Fail,<span style='color:red'>Fail,<span style='color:red'>Fail,<span style='color:red'>Fail,<span style='color:red'>Fail,<span style='color:green'>Lift,<span style='color:red'>Fail,<span style='color:green'>Lift","<span style='color:red'>Fail,<span style='color:red'>Fail,<span style='color:green'>Lift,<span style='color:green'>Lift,<span style='color:green'>Lift,<span style='color:green'>Lift,<span style='color:red'>Fail,<span style='color:green'>Lift,<span style='color:green'>Lift,<span style='color:green'>Lift,<span style='color:red'>Fail,<span style='color:green'>Lift","<span style='color:red'>Fail,<span style='color:green'>Lift,<span style='color:green'>Lift,<span style='color:red'>Fail,<span style='color:green'>Lift,<span style='color:green'>Lift","0,0,1,1,0,0,0,0,0,1,0,1","0,0,1,1,1,1,0,1,1,1,0,1","0,1,1,0,1,1",10,20,20,"","","","","{""box1"":""5"",""box2"":""5"",""box3"":""100"",""box4"":""100""}","",NA,2,"round3_lift",5,1,3,5,5,100,100,1,1,20,NA,NA,NA,NA,NA,NA,NA,NA,NA,NA,NA,NA,NA,NA,NA,NA,NA,NA,NA,NA,5,5,100,100,1,1,20,NA,NA,NA,"",NA,NA,NA,NA,NA,NA,NA,NA,2025-11-18 02:32:55
"null","https://psyc-201.github.io/xiang2023/exp/index1.html?PROLIFIC_PID=REDACTED&STUDY_ID=69168b21477cff9ada6cb980&SESSION_ID=691bd37d64ad38f5e85eb401","html-keyboard-response",33,1041268,"0.0-316.0","WjS5+oO5If5BTrOfmm0gM8gjH4j7wt5zLqyK7D5cQYxIAYmWMRemKn1wN6FLZoIdGTQ5L6knT79lUfKVdP6Lu+o0ZFwzT2JtgRjdGRPDYeHRMb7k6/cwQXskRkbCMLK994uJNtVO4hUUTfHPq1bAWLZ/uLhpbngwFj7HizaScwiIxn5LhabDe2VAKc/3KtapSr6V6v5Tz4aC33WKSY9Jn+20ZzisH0rrzzj9RQybs19wLETgyCUQyeOHO2C2SiePkkfGhloVkn40/HwKNFj3gu/n3Ebz/Qy+PZ0SOk/u2LzabJ2JZ36OrK+YJhOwiyetgJlUEBRZmAye+Ehv0RL+mA==","69168b21477cff9ada6cb980","691bd37d64ad38f5e85eb401","index1","<span style='color:red'>Fail,<span style='color:red'>Fail,<span style='color:green'>Lift,<span style='color:green'>Lift,<span style='color:red'>Fail,<span style='color:red'>Fail,<span style='color:red'>Fail,<span style='color:red'>Fail,<span style='color:red'>Fail,<span style='color:green'>Lift,<span style='color:red'>Fail,<span style='color:green'>Lift","<span style='color:red'>Fail,<span style='color:red'>Fail,<span style='color:green'>Lift,<span style='color:green'>Lift,<span style='color:green'>Lift,<span style='color:green'>Lift,<span style='color:red'>Fail,<span style='color:green'>Lift,<span style='color:green'>Lift,<span style='color:green'>Lift,<span style='color:red'>Fail,<span style='color:green'>Lift","<span style='color:red'>Fail,<span style='color:green'>Lift,<span style='color:green'>Lift,<span style='color:red'>Fail,<span style='color:green'>Lift,<span style='color:green'>Lift","0,0,1,1,0,0,0,0,0,1,0,1","0,0,1,1,1,1,0,1,1,1,0,1","0,1,1,0,1,1",10,20,20,"","","<p style='font-size:30px'><b> New Contest! </b></p>","null","","",NA,2,"",NA,NA,NA,NA,NA,NA,NA,NA,NA,NA,NA,NA,NA,NA,NA,NA,NA,NA,NA,NA,NA,NA,NA,NA,NA,NA,NA,NA,NA,NA,NA,NA,NA,NA,NA,NA,NA,NA,NA,NA,"",NA,NA,NA,NA,NA,NA,NA,NA,2025-11-18 02:32:55
"13947.200000047684","https://psyc-201.github.io/xiang2023/exp/index1.html?PROLIFIC_PID=REDACTED&STUDY_ID=69168b21477cff9ada6cb980&SESSION_ID=691bd37d64ad38f5e85eb401","survey-html-form",34,1055219,"0.0-317.0","WjS5+oO5If5BTrOfmm0gM8gjH4j7wt5zLqyK7D5cQYxIAYmWMRemKn1wN6FLZoIdGTQ5L6knT79lUfKVdP6Lu+o0ZFwzT2JtgRjdGRPDYeHRMb7k6/cwQXskRkbCMLK994uJNtVO4hUUTfHPq1bAWLZ/uLhpbngwFj7HizaScwiIxn5LhabDe2VAKc/3KtapSr6V6v5Tz4aC33WKSY9Jn+20ZzisH0rrzzj9RQybs19wLETgyCUQyeOHO2C2SiePkkfGhloVkn40/HwKNFj3gu/n3Ebz/Qy+PZ0SOk/u2LzabJ2JZ36OrK+YJhOwiyetgJlUEBRZmAye+Ehv0RL+mA==","69168b21477cff9ada6cb980","691bd37d64ad38f5e85eb401","index1","<span style='color:red'>Fail,<span style='color:red'>Fail,<span style='color:green'>Lift,<span style='color:green'>Lift,<span style='color:red'>Fail,<span style='color:red'>Fail,<span style='color:red'>Fail,<span style='color:red'>Fail,<span style='color:red'>Fail,<span style='color:green'>Lift,<span style='color:red'>Fail,<span style='color:green'>Lift","<span style='color:red'>Fail,<span style='color:red'>Fail,<span style='color:green'>Lift,<span style='color:green'>Lift,<span style='color:green'>Lift,<span style='color:green'>Lift,<span style='color:red'>Fail,<span style='color:green'>Lift,<span style='color:green'>Lift,<span style='color:green'>Lift,<span style='color:red'>Fail,<span style='color:green'>Lift","<span style='color:red'>Fail,<span style='color:green'>Lift,<span style='color:green'>Lift,<span style='color:red'>Fail,<span style='color:green'>Lift,<span style='color:green'>Lift","0,0,1,1,0,0,0,0,0,1,0,1","0,0,1,1,1,1,0,1,1,1,0,1","0,1,1,0,1,1",10,20,20,"","","","","{""box1"":""1"",""box2"":""1""}","",NA,2,"round1_outcome",1,2,1,1,1,NA,NA,0,0,10,1,1,NA,NA,0,0,10,NA,NA,NA,NA,NA,NA,NA,NA,NA,NA,NA,NA,NA,NA,NA,NA,NA,NA,NA,NA,NA,NA,NA,"",NA,NA,NA,NA,NA,NA,NA,NA,2025-11-18 02:32:55
"8733.400000035763","https://psyc-201.github.io/xiang2023/exp/index1.html?PROLIFIC_PID=REDACTED&STUDY_ID=69168b21477cff9ada6cb980&SESSION_ID=691bd37d64ad38f5e85eb401","survey-html-form",35,1063955,"0.0-318.0","WjS5+oO5If5BTrOfmm0gM8gjH4j7wt5zLqyK7D5cQYxIAYmWMRemKn1wN6FLZoIdGTQ5L6knT79lUfKVdP6Lu+o0ZFwzT2JtgRjdGRPDYeHRMb7k6/cwQXskRkbCMLK994uJNtVO4hUUTfHPq1bAWLZ/uLhpbngwFj7HizaScwiIxn5LhabDe2VAKc/3KtapSr6V6v5Tz4aC33WKSY9Jn+20ZzisH0rrzzj9RQybs19wLETgyCUQyeOHO2C2SiePkkfGhloVkn40/HwKNFj3gu/n3Ebz/Qy+PZ0SOk/u2LzabJ2JZ36OrK+YJhOwiyetgJlUEBRZmAye+Ehv0RL+mA==","69168b21477cff9ada6cb980","691bd37d64ad38f5e85eb401","index1","<span style='color:red'>Fail,<span style='color:red'>Fail,<span style='color:green'>Lift,<span style='color:green'>Lift,<span style='color:red'>Fail,<span style='color:red'>Fail,<span style='color:red'>Fail,<span style='color:red'>Fail,<span style='color:red'>Fail,<span style='color:green'>Lift,<span style='color:red'>Fail,<span style='color:green'>Lift","<span style='color:red'>Fail,<span style='color:red'>Fail,<span style='color:green'>Lift,<span style='color:green'>Lift,<span style='color:green'>Lift,<span style='color:green'>Lift,<span style='color:red'>Fail,<span style='color:green'>Lift,<span style='color:green'>Lift,<span style='color:green'>Lift,<span style='color:red'>Fail,<span style='color:green'>Lift","<span style='color:red'>Fail,<span style='color:green'>Lift,<span style='color:green'>Lift,<span style='color:red'>Fail,<span style='color:green'>Lift,<span style='color:green'>Lift","0,0,1,1,0,0,0,0,0,1,0,1","0,0,1,1,1,1,0,1,1,1,0,1","0,1,1,0,1,1",10,20,20,"","","","","{""box1"":""0"",""box2"":""0""}","",NA,2,"round2_ready",2,2,2,NA,NA,NA,NA,NA,NA,NA,NA,NA,NA,NA,NA,NA,NA,0,0,0,0,NA,NA,NA,NA,NA,NA,NA,NA,NA,NA,NA,NA,NA,NA,NA,NA,NA,NA,NA,"",NA,NA,NA,NA,NA,NA,NA,NA,2025-11-18 02:32:55
"41092.799999952316","https://psyc-201.github.io/xiang2023/exp/index1.html?PROLIFIC_PID=REDACTED&STUDY_ID=69168b21477cff9ada6cb980&SESSION_ID=691bd37d64ad38f5e85eb401","survey-html-form",36,1105051,"0.0-319.0","WjS5+oO5If5BTrOfmm0gM8gjH4j7wt5zLqyK7D5cQYxIAYmWMRemKn1wN6FLZoIdGTQ5L6knT79lUfKVdP6Lu+o0ZFwzT2JtgRjdGRPDYeHRMb7k6/cwQXskRkbCMLK994uJNtVO4hUUTfHPq1bAWLZ/uLhpbngwFj7HizaScwiIxn5LhabDe2VAKc/3KtapSr6V6v5Tz4aC33WKSY9Jn+20ZzisH0rrzzj9RQybs19wLETgyCUQyeOHO2C2SiePkkfGhloVkn40/HwKNFj3gu/n3Ebz/Qy+PZ0SOk/u2LzabJ2JZ36OrK+YJhOwiyetgJlUEBRZmAye+Ehv0RL+mA==","69168b21477cff9ada6cb980","691bd37d64ad38f5e85eb401","index1","<span style='color:red'>Fail,<span style='color:red'>Fail,<span style='color:green'>Lift,<span style='color:green'>Lift,<span style='color:red'>Fail,<span style='color:red'>Fail,<span style='color:red'>Fail,<span style='color:red'>Fail,<span style='color:red'>Fail,<span style='color:green'>Lift,<span style='color:red'>Fail,<span style='color:green'>Lift","<span style='color:red'>Fail,<span style='color:red'>Fail,<span style='color:green'>Lift,<span style='color:green'>Lift,<span style='color:green'>Lift,<span style='color:green'>Lift,<span style='color:red'>Fail,<span style='color:green'>Lift,<span style='color:green'>Lift,<span style='color:green'>Lift,<span style='color:red'>Fail,<span style='color:green'>Lift","<span style='color:red'>Fail,<span style='color:green'>Lift,<span style='color:green'>Lift,<span style='color:red'>Fail,<span style='color:green'>Lift,<span style='color:green'>Lift","0,0,1,1,0,0,0,0,0,1,0,1","0,0,1,1,1,1,0,1,1,1,0,1","0,1,1,0,1,1",10,20,20,"","","","","{""box1"":""8"",""box2"":""8"",""box3"":""100"",""box4"":""100""}","",NA,2,"round2_outcome",3,2,2,8,8,100,100,1,1,20,NA,NA,NA,NA,NA,NA,NA,NA,NA,NA,NA,8,8,100,100,1,1,20,NA,NA,NA,NA,NA,NA,NA,NA,NA,NA,NA,NA,"",NA,NA,NA,NA,NA,NA,NA,NA,2025-11-18 02:32:55
"290885.3000000119","https://psyc-201.github.io/xiang2023/exp/index1.html?PROLIFIC_PID=REDACTED&STUDY_ID=69168b21477cff9ada6cb980&SESSION_ID=691bd37d64ad38f5e85eb401","survey-html-form",37,1395939,"0.0-320.0","WjS5+oO5If5BTrOfmm0gM8gjH4j7wt5zLqyK7D5cQYxIAYmWMRemKn1wN6FLZoIdGTQ5L6knT79lUfKVdP6Lu+o0ZFwzT2JtgRjdGRPDYeHRMb7k6/cwQXskRkbCMLK994uJNtVO4hUUTfHPq1bAWLZ/uLhpbngwFj7HizaScwiIxn5LhabDe2VAKc/3KtapSr6V6v5Tz4aC33WKSY9Jn+20ZzisH0rrzzj9RQybs19wLETgyCUQyeOHO2C2SiePkkfGhloVkn40/HwKNFj3gu/n3Ebz/Qy+PZ0SOk/u2LzabJ2JZ36OrK+YJhOwiyetgJlUEBRZmAye+Ehv0RL+mA==","69168b21477cff9ada6cb980","691bd37d64ad38f5e85eb401","index1","<span style='color:red'>Fail,<span style='color:red'>Fail,<span style='color:green'>Lift,<span style='color:green'>Lift,<span style='color:red'>Fail,<span style='color:red'>Fail,<span style='color:red'>Fail,<span style='color:red'>Fail,<span style='color:red'>Fail,<span style='color:green'>Lift,<span style='color:red'>Fail,<span style='color:green'>Lift","<span style='color:red'>Fail,<span style='color:red'>Fail,<span style='color:green'>Lift,<span style='color:green'>Lift,<span style='color:green'>Lift,<span style='color:green'>Lift,<span style='color:red'>Fail,<span style='color:green'>Lift,<span style='color:green'>Lift,<span style='color:green'>Lift,<span style='color:red'>Fail,<span style='color:green'>Lift","<span style='color:red'>Fail,<span style='color:green'>Lift,<span style='color:green'>Lift,<span style='color:red'>Fail,<span style='color:green'>Lift,<span style='color:green'>Lift","0,0,1,1,0,0,0,0,0,1,0,1","0,0,1,1,1,1,0,1,1,1,0,1","0,1,1,0,1,1",10,20,20,"","","","","{""box1"":""50""}","",NA,2,"round3_ready",4,2,3,NA,NA,NA,NA,NA,NA,NA,NA,NA,NA,NA,NA,NA,NA,50,50,NA,NA,NA,NA,NA,NA,NA,NA,NA,50,50,NA,NA,NA,NA,NA,NA,NA,NA,NA,NA,"",NA,NA,NA,NA,NA,NA,NA,NA,2025-11-18 02:32:55
"13663.100000023842","https://psyc-201.github.io/xiang2023/exp/index1.html?PROLIFIC_PID=REDACTED&STUDY_ID=69168b21477cff9ada6cb980&SESSION_ID=691bd37d64ad38f5e85eb401","survey-html-form",38,1409605,"0.0-321.0-0.0","WjS5+oO5If5BTrOfmm0gM8gjH4j7wt5zLqyK7D5cQYxIAYmWMRemKn1wN6FLZoIdGTQ5L6knT79lUfKVdP6Lu+o0ZFwzT2JtgRjdGRPDYeHRMb7k6/cwQXskRkbCMLK994uJNtVO4hUUTfHPq1bAWLZ/uLhpbngwFj7HizaScwiIxn5LhabDe2VAKc/3KtapSr6V6v5Tz4aC33WKSY9Jn+20ZzisH0rrzzj9RQybs19wLETgyCUQyeOHO2C2SiePkkfGhloVkn40/HwKNFj3gu/n3Ebz/Qy+PZ0SOk/u2LzabJ2JZ36OrK+YJhOwiyetgJlUEBRZmAye+Ehv0RL+mA==","69168b21477cff9ada6cb980","691bd37d64ad38f5e85eb401","index1","<span style='color:red'>Fail,<span style='color:red'>Fail,<span style='color:green'>Lift,<span style='color:green'>Lift,<span style='color:red'>Fail,<span style='color:red'>Fail,<span style='color:red'>Fail,<span style='color:red'>Fail,<span style='color:red'>Fail,<span style='color:green'>Lift,<span style='color:red'>Fail,<span style='color:green'>Lift","<span style='color:red'>Fail,<span style='color:red'>Fail,<span style='color:green'>Lift,<span style='color:green'>Lift,<span style='color:green'>Lift,<span style='color:green'>Lift,<span style='color:red'>Fail,<span style='color:green'>Lift,<span style='color:green'>Lift,<span style='color:green'>Lift,<span style='color:red'>Fail,<span style='color:green'>Lift","<span style='color:red'>Fail,<span style='color:green'>Lift,<span style='color:green'>Lift,<span style='color:red'>Fail,<span style='color:green'>Lift,<span style='color:green'>Lift","0,0,1,1,0,0,0,0,0,1,0,1","0,0,1,1,1,1,0,1,1,1,0,1","0,1,1,0,1,1",10,20,20,"","","","","{""box1"":""10"",""box2"":""10"",""box3"":""100"",""box4"":""100""}","",NA,3,"round3_lift",5,2,3,10,10,100,100,1,1,20,NA,NA,NA,NA,NA,NA,NA,NA,NA,NA,NA,NA,NA,NA,NA,NA,NA,NA,NA,NA,10,10,100,100,1,1,20,NA,NA,NA,"",NA,NA,NA,NA,NA,NA,NA,NA,2025-11-18 02:32:55
"null","https://psyc-201.github.io/xiang2023/exp/index1.html?PROLIFIC_PID=REDACTED&STUDY_ID=69168b21477cff9ada6cb980&SESSION_ID=691bd37d64ad38f5e85eb401","html-keyboard-response",39,1412619,"0.0-325.0","WjS5+oO5If5BTrOfmm0gM8gjH4j7wt5zLqyK7D5cQYxIAYmWMRemKn1wN6FLZoIdGTQ5L6knT79lUfKVdP6Lu+o0ZFwzT2JtgRjdGRPDYeHRMb7k6/cwQXskRkbCMLK994uJNtVO4hUUTfHPq1bAWLZ/uLhpbngwFj7HizaScwiIxn5LhabDe2VAKc/3KtapSr6V6v5Tz4aC33WKSY9Jn+20ZzisH0rrzzj9RQybs19wLETgyCUQyeOHO2C2SiePkkfGhloVkn40/HwKNFj3gu/n3Ebz/Qy+PZ0SOk/u2LzabJ2JZ36OrK+YJhOwiyetgJlUEBRZmAye+Ehv0RL+mA==","69168b21477cff9ada6cb980","691bd37d64ad38f5e85eb401","index1","<span style='color:red'>Fail,<span style='color:red'>Fail,<span style='color:green'>Lift,<span style='color:green'>Lift,<span style='color:red'>Fail,<span style='color:red'>Fail,<span style='color:red'>Fail,<span style='color:red'>Fail,<span style='color:red'>Fail,<span style='color:green'>Lift,<span style='color:red'>Fail,<span style='color:green'>Lift","<span style='color:red'>Fail,<span style='color:red'>Fail,<span style='color:green'>Lift,<span style='color:green'>Lift,<span style='color:green'>Lift,<span style='color:green'>Lift,<span style='color:red'>Fail,<span style='color:green'>Lift,<span style='color:green'>Lift,<span style='color:green'>Lift,<span style='color:red'>Fail,<span style='color:green'>Lift","<span style='color:red'>Fail,<span style='color:green'>Lift,<span style='color:green'>Lift,<span style='color:red'>Fail,<span style='color:green'>Lift,<span style='color:green'>Lift","0,0,1,1,0,0,0,0,0,1,0,1","0,0,1,1,1,1,0,1,1,1,0,1","0,1,1,0,1,1",10,20,20,"","","<p style='font-size:30px'><b> New Contest! </b></p>","null","","",NA,3,"",NA,NA,NA,NA,NA,NA,NA,NA,NA,NA,NA,NA,NA,NA,NA,NA,NA,NA,NA,NA,NA,NA,NA,NA,NA,NA,NA,NA,NA,NA,NA,NA,NA,NA,NA,NA,NA,NA,NA,NA,"",NA,NA,NA,NA,NA,NA,NA,NA,2025-11-18 02:32:55
"11981.200000047684","https://psyc-201.github.io/xiang2023/exp/index1.html?PROLIFIC_PID=REDACTED&STUDY_ID=69168b21477cff9ada6cb980&SESSION_ID=691bd37d64ad38f5e85eb401","survey-html-form",40,1424603,"0.0-326.0","WjS5+oO5If5BTrOfmm0gM8gjH4j7wt5zLqyK7D5cQYxIAYmWMRemKn1wN6FLZoIdGTQ5L6knT79lUfKVdP6Lu+o0ZFwzT2JtgRjdGRPDYeHRMb7k6/cwQXskRkbCMLK994uJNtVO4hUUTfHPq1bAWLZ/uLhpbngwFj7HizaScwiIxn5LhabDe2VAKc/3KtapSr6V6v5Tz4aC33WKSY9Jn+20ZzisH0rrzzj9RQybs19wLETgyCUQyeOHO2C2SiePkkfGhloVkn40/HwKNFj3gu/n3Ebz/Qy+PZ0SOk/u2LzabJ2JZ36OrK+YJhOwiyetgJlUEBRZmAye+Ehv0RL+mA==","69168b21477cff9ada6cb980","691bd37d64ad38f5e85eb401","index1","<span style='color:red'>Fail,<span style='color:red'>Fail,<span style='color:green'>Lift,<span style='color:green'>Lift,<span style='color:red'>Fail,<span style='color:red'>Fail,<span style='color:red'>Fail,<span style='color:red'>Fail,<span style='color:red'>Fail,<span style='color:green'>Lift,<span style='color:red'>Fail,<span style='color:green'>Lift","<span style='color:red'>Fail,<span style='color:red'>Fail,<span style='color:green'>Lift,<span style='color:green'>Lift,<span style='color:green'>Lift,<span style='color:green'>Lift,<span style='color:red'>Fail,<span style='color:green'>Lift,<span style='color:green'>Lift,<span style='color:green'>Lift,<span style='color:red'>Fail,<span style='color:green'>Lift","<span style='color:red'>Fail,<span style='color:green'>Lift,<span style='color:green'>Lift,<span style='color:red'>Fail,<span style='color:green'>Lift,<span style='color:green'>Lift","0,0,1,1,0,0,0,0,0,1,0,1","0,0,1,1,1,1,0,1,1,1,0,1","0,1,1,0,1,1",10,20,20,"","","","","{""box1"":""10"",""box2"":""10"",""box3"":""100"",""box4"":""100""}","",NA,3,"round1_outcome",1,3,1,10,10,100,100,1,1,10,10,10,100,100,1,1,10,NA,NA,NA,NA,NA,NA,NA,NA,NA,NA,NA,NA,NA,NA,NA,NA,NA,NA,NA,NA,NA,NA,NA,"",NA,NA,NA,NA,NA,NA,NA,NA,2025-11-18 02:32:55
"7933.899999976158","https://psyc-201.github.io/xiang2023/exp/index1.html?PROLIFIC_PID=REDACTED&STUDY_ID=69168b21477cff9ada6cb980&SESSION_ID=691bd37d64ad38f5e85eb401","survey-html-form",41,1432539,"0.0-327.0","WjS5+oO5If5BTrOfmm0gM8gjH4j7wt5zLqyK7D5cQYxIAYmWMRemKn1wN6FLZoIdGTQ5L6knT79lUfKVdP6Lu+o0ZFwzT2JtgRjdGRPDYeHRMb7k6/cwQXskRkbCMLK994uJNtVO4hUUTfHPq1bAWLZ/uLhpbngwFj7HizaScwiIxn5LhabDe2VAKc/3KtapSr6V6v5Tz4aC33WKSY9Jn+20ZzisH0rrzzj9RQybs19wLETgyCUQyeOHO2C2SiePkkfGhloVkn40/HwKNFj3gu/n3Ebz/Qy+PZ0SOk/u2LzabJ2JZ36OrK+YJhOwiyetgJlUEBRZmAye+Ehv0RL+mA==","69168b21477cff9ada6cb980","691bd37d64ad38f5e85eb401","index1","<span style='color:red'>Fail,<span style='color:red'>Fail,<span style='color:green'>Lift,<span style='color:green'>Lift,<span style='color:red'>Fail,<span style='color:red'>Fail,<span style='color:red'>Fail,<span style='color:red'>Fail,<span style='color:red'>Fail,<span style='color:green'>Lift,<span style='color:red'>Fail,<span style='color:green'>Lift","<span style='color:red'>Fail,<span style='color:red'>Fail,<span style='color:green'>Lift,<span style='color:green'>Lift,<span style='color:green'>Lift,<span style='color:green'>Lift,<span style='color:red'>Fail,<span style='color:green'>Lift,<span style='color:green'>Lift,<span style='color:green'>Lift,<span style='color:red'>Fail,<span style='color:green'>Lift","<span style='color:red'>Fail,<span style='color:green'>Lift,<span style='color:green'>Lift,<span style='color:red'>Fail,<span style='color:green'>Lift,<span style='color:green'>Lift","0,0,1,1,0,0,0,0,0,1,0,1","0,0,1,1,1,1,0,1,1,1,0,1","0,1,1,0,1,1",10,20,20,"","","","","{""box1"":""50"",""box2"":""50""}","",NA,3,"round2_ready",2,3,2,NA,NA,NA,NA,NA,NA,NA,NA,NA,NA,NA,NA,NA,NA,50,50,50,50,NA,NA,NA,NA,NA,NA,NA,NA,NA,NA,NA,NA,NA,NA,NA,NA,NA,NA,NA,"",NA,NA,NA,NA,NA,NA,NA,NA,2025-11-18 02:32:55
"11929.599999964237","https://psyc-201.github.io/xiang2023/exp/index1.html?PROLIFIC_PID=REDACTED&STUDY_ID=69168b21477cff9ada6cb980&SESSION_ID=691bd37d64ad38f5e85eb401","survey-html-form",42,1444472,"0.0-328.0","WjS5+oO5If5BTrOfmm0gM8gjH4j7wt5zLqyK7D5cQYxIAYmWMRemKn1wN6FLZoIdGTQ5L6knT79lUfKVdP6Lu+o0ZFwzT2JtgRjdGRPDYeHRMb7k6/cwQXskRkbCMLK994uJNtVO4hUUTfHPq1bAWLZ/uLhpbngwFj7HizaScwiIxn5LhabDe2VAKc/3KtapSr6V6v5Tz4aC33WKSY9Jn+20ZzisH0rrzzj9RQybs19wLETgyCUQyeOHO2C2SiePkkfGhloVkn40/HwKNFj3gu/n3Ebz/Qy+PZ0SOk/u2LzabJ2JZ36OrK+YJhOwiyetgJlUEBRZmAye+Ehv0RL+mA==","69168b21477cff9ada6cb980","691bd37d64ad38f5e85eb401","index1","<span style='color:red'>Fail,<span style='color:red'>Fail,<span style='color:green'>Lift,<span style='color:green'>Lift,<span style='color:red'>Fail,<span style='color:red'>Fail,<span style='color:red'>Fail,<span style='color:red'>Fail,<span style='color:red'>Fail,<span style='color:green'>Lift,<span style='color:red'>Fail,<span style='color:green'>Lift","<span style='color:red'>Fail,<span style='color:red'>Fail,<span style='color:green'>Lift,<span style='color:green'>Lift,<span style='color:green'>Lift,<span style='color:green'>Lift,<span style='color:red'>Fail,<span style='color:green'>Lift,<span style='color:green'>Lift,<span style='color:green'>Lift,<span style='color:red'>Fail,<span style='color:green'>Lift","<span style='color:red'>Fail,<span style='color:green'>Lift,<span style='color:green'>Lift,<span style='color:red'>Fail,<span style='color:green'>Lift,<span style='color:green'>Lift","0,0,1,1,0,0,0,0,0,1,0,1","0,0,1,1,1,1,0,1,1,1,0,1","0,1,1,0,1,1",10,20,20,"","","","","{""box1"":""10"",""box2"":""10"",""box3"":""100"",""box4"":""100""}","",NA,3,"round2_outcome",3,3,2,10,10,100,100,1,1,20,NA,NA,NA,NA,NA,NA,NA,NA,NA,NA,NA,10,10,100,100,1,1,20,NA,NA,NA,NA,NA,NA,NA,NA,NA,NA,NA,NA,"",NA,NA,NA,NA,NA,NA,NA,NA,2025-11-18 02:32:55
"6556","https://psyc-201.github.io/xiang2023/exp/index1.html?PROLIFIC_PID=REDACTED&STUDY_ID=69168b21477cff9ada6cb980&SESSION_ID=691bd37d64ad38f5e85eb401","survey-html-form",43,1451030,"0.0-329.0","WjS5+oO5If5BTrOfmm0gM8gjH4j7wt5zLqyK7D5cQYxIAYmWMRemKn1wN6FLZoIdGTQ5L6knT79lUfKVdP6Lu+o0ZFwzT2JtgRjdGRPDYeHRMb7k6/cwQXskRkbCMLK994uJNtVO4hUUTfHPq1bAWLZ/uLhpbngwFj7HizaScwiIxn5LhabDe2VAKc/3KtapSr6V6v5Tz4aC33WKSY9Jn+20ZzisH0rrzzj9RQybs19wLETgyCUQyeOHO2C2SiePkkfGhloVkn40/HwKNFj3gu/n3Ebz/Qy+PZ0SOk/u2LzabJ2JZ36OrK+YJhOwiyetgJlUEBRZmAye+Ehv0RL+mA==","69168b21477cff9ada6cb980","691bd37d64ad38f5e85eb401","index1","<span style='color:red'>Fail,<span style='color:red'>Fail,<span style='color:green'>Lift,<span style='color:green'>Lift,<span style='color:red'>Fail,<span style='color:red'>Fail,<span style='color:red'>Fail,<span style='color:red'>Fail,<span style='color:red'>Fail,<span style='color:green'>Lift,<span style='color:red'>Fail,<span style='color:green'>Lift","<span style='color:red'>Fail,<span style='color:red'>Fail,<span style='color:green'>Lift,<span style='color:green'>Lift,<span style='color:green'>Lift,<span style='color:green'>Lift,<span style='color:red'>Fail,<span style='color:green'>Lift,<span style='color:green'>Lift,<span style='color:green'>Lift,<span style='color:red'>Fail,<span style='color:green'>Lift","<span style='color:red'>Fail,<span style='color:green'>Lift,<span style='color:green'>Lift,<span style='color:red'>Fail,<span style='color:green'>Lift,<span style='color:green'>Lift","0,0,1,1,0,0,0,0,0,1,0,1","0,0,1,1,1,1,0,1,1,1,0,1","0,1,1,0,1,1",10,20,20,"","","","","{""box1"":""50""}","",NA,3,"round3_ready",4,3,3,NA,NA,NA,NA,NA,NA,NA,NA,NA,NA,NA,NA,NA,NA,50,50,NA,NA,NA,NA,NA,NA,NA,NA,NA,50,50,NA,NA,NA,NA,NA,NA,NA,NA,NA,NA,"",NA,NA,NA,NA,NA,NA,NA,NA,2025-11-18 02:32:55
"10597.699999988079","https://psyc-201.github.io/xiang2023/exp/index1.html?PROLIFIC_PID=REDACTED&STUDY_ID=69168b21477cff9ada6cb980&SESSION_ID=691bd37d64ad38f5e85eb401","survey-html-form",44,1461630,"0.0-330.0-0.0","WjS5+oO5If5BTrOfmm0gM8gjH4j7wt5zLqyK7D5cQYxIAYmWMRemKn1wN6FLZoIdGTQ5L6knT79lUfKVdP6Lu+o0ZFwzT2JtgRjdGRPDYeHRMb7k6/cwQXskRkbCMLK994uJNtVO4hUUTfHPq1bAWLZ/uLhpbngwFj7HizaScwiIxn5LhabDe2VAKc/3KtapSr6V6v5Tz4aC33WKSY9Jn+20ZzisH0rrzzj9RQybs19wLETgyCUQyeOHO2C2SiePkkfGhloVkn40/HwKNFj3gu/n3Ebz/Qy+PZ0SOk/u2LzabJ2JZ36OrK+YJhOwiyetgJlUEBRZmAye+Ehv0RL+mA==","69168b21477cff9ada6cb980","691bd37d64ad38f5e85eb401","index1","<span style='color:red'>Fail,<span style='color:red'>Fail,<span style='color:green'>Lift,<span style='color:green'>Lift,<span style='color:red'>Fail,<span style='color:red'>Fail,<span style='color:red'>Fail,<span style='color:red'>Fail,<span style='color:red'>Fail,<span style='color:green'>Lift,<span style='color:red'>Fail,<span style='color:green'>Lift","<span style='color:red'>Fail,<span style='color:red'>Fail,<span style='color:green'>Lift,<span style='color:green'>Lift,<span style='color:green'>Lift,<span style='color:green'>Lift,<span style='color:red'>Fail,<span style='color:green'>Lift,<span style='color:green'>Lift,<span style='color:green'>Lift,<span style='color:red'>Fail,<span style='color:green'>Lift","<span style='color:red'>Fail,<span style='color:green'>Lift,<span style='color:green'>Lift,<span style='color:red'>Fail,<span style='color:green'>Lift,<span style='color:green'>Lift","0,0,1,1,0,0,0,0,0,1,0,1","0,0,1,1,1,1,0,1,1,1,0,1","0,1,1,0,1,1",10,20,20,"","","","","{""box1"":""8"",""box2"":""8"",""box3"":""100"",""box4"":""100""}","",NA,4,"round3_lift",5,3,3,8,8,100,100,1,1,20,NA,NA,NA,NA,NA,NA,NA,NA,NA,NA,NA,NA,NA,NA,NA,NA,NA,NA,NA,NA,8,8,100,100,1,1,20,NA,NA,NA,"",NA,NA,NA,NA,NA,NA,NA,NA,2025-11-18 02:32:55
"null","https://psyc-201.github.io/xiang2023/exp/index1.html?PROLIFIC_PID=REDACTED&STUDY_ID=69168b21477cff9ada6cb980&SESSION_ID=691bd37d64ad38f5e85eb401","html-keyboard-response",45,1464633,"0.0-334.0","WjS5+oO5If5BTrOfmm0gM8gjH4j7wt5zLqyK7D5cQYxIAYmWMRemKn1wN6FLZoIdGTQ5L6knT79lUfKVdP6Lu+o0ZFwzT2JtgRjdGRPDYeHRMb7k6/cwQXskRkbCMLK994uJNtVO4hUUTfHPq1bAWLZ/uLhpbngwFj7HizaScwiIxn5LhabDe2VAKc/3KtapSr6V6v5Tz4aC33WKSY9Jn+20ZzisH0rrzzj9RQybs19wLETgyCUQyeOHO2C2SiePkkfGhloVkn40/HwKNFj3gu/n3Ebz/Qy+PZ0SOk/u2LzabJ2JZ36OrK+YJhOwiyetgJlUEBRZmAye+Ehv0RL+mA==","69168b21477cff9ada6cb980","691bd37d64ad38f5e85eb401","index1","<span style='color:red'>Fail,<span style='color:red'>Fail,<span style='color:green'>Lift,<span style='color:green'>Lift,<span style='color:red'>Fail,<span style='color:red'>Fail,<span style='color:red'>Fail,<span style='color:red'>Fail,<span style='color:red'>Fail,<span style='color:green'>Lift,<span style='color:red'>Fail,<span style='color:green'>Lift","<span style='color:red'>Fail,<span style='color:red'>Fail,<span style='color:green'>Lift,<span style='color:green'>Lift,<span style='color:green'>Lift,<span style='color:green'>Lift,<span style='color:red'>Fail,<span style='color:green'>Lift,<span style='color:green'>Lift,<span style='color:green'>Lift,<span style='color:red'>Fail,<span style='color:green'>Lift","<span style='color:red'>Fail,<span style='color:green'>Lift,<span style='color:green'>Lift,<span style='color:red'>Fail,<span style='color:green'>Lift,<span style='color:green'>Lift","0,0,1,1,0,0,0,0,0,1,0,1","0,0,1,1,1,1,0,1,1,1,0,1","0,1,1,0,1,1",10,20,20,"","","<p style='font-size:30px'><b> New Contest! </b></p>","null","","",NA,4,"",NA,NA,NA,NA,NA,NA,NA,NA,NA,NA,NA,NA,NA,NA,NA,NA,NA,NA,NA,NA,NA,NA,NA,NA,NA,NA,NA,NA,NA,NA,NA,NA,NA,NA,NA,NA,NA,NA,NA,NA,"",NA,NA,NA,NA,NA,NA,NA,NA,2025-11-18 02:32:55
"11326.800000011921","https://psyc-201.github.io/xiang2023/exp/index1.html?PROLIFIC_PID=REDACTED&STUDY_ID=69168b21477cff9ada6cb980&SESSION_ID=691bd37d64ad38f5e85eb401","survey-html-form",46,1475963,"0.0-335.0","WjS5+oO5If5BTrOfmm0gM8gjH4j7wt5zLqyK7D5cQYxIAYmWMRemKn1wN6FLZoIdGTQ5L6knT79lUfKVdP6Lu+o0ZFwzT2JtgRjdGRPDYeHRMb7k6/cwQXskRkbCMLK994uJNtVO4hUUTfHPq1bAWLZ/uLhpbngwFj7HizaScwiIxn5LhabDe2VAKc/3KtapSr6V6v5Tz4aC33WKSY9Jn+20ZzisH0rrzzj9RQybs19wLETgyCUQyeOHO2C2SiePkkfGhloVkn40/HwKNFj3gu/n3Ebz/Qy+PZ0SOk/u2LzabJ2JZ36OrK+YJhOwiyetgJlUEBRZmAye+Ehv0RL+mA==","69168b21477cff9ada6cb980","691bd37d64ad38f5e85eb401","index1","<span style='color:red'>Fail,<span style='color:red'>Fail,<span style='color:green'>Lift,<span style='color:green'>Lift,<span style='color:red'>Fail,<span style='color:red'>Fail,<span style='color:red'>Fail,<span style='color:red'>Fail,<span style='color:red'>Fail,<span style='color:green'>Lift,<span style='color:red'>Fail,<span style='color:green'>Lift","<span style='color:red'>Fail,<span style='color:red'>Fail,<span style='color:green'>Lift,<span style='color:green'>Lift,<span style='color:green'>Lift,<span style='color:green'>Lift,<span style='color:red'>Fail,<span style='color:green'>Lift,<span style='color:green'>Lift,<span style='color:green'>Lift,<span style='color:red'>Fail,<span style='color:green'>Lift","<span style='color:red'>Fail,<span style='color:green'>Lift,<span style='color:green'>Lift,<span style='color:red'>Fail,<span style='color:green'>Lift,<span style='color:green'>Lift","0,0,1,1,0,0,0,0,0,1,0,1","0,0,1,1,1,1,0,1,1,1,0,1","0,1,1,0,1,1",10,20,20,"","","","","{""box1"":""1"",""box2"":""9"",""box4"":""100""}","",NA,4,"round1_outcome",1,4,1,1,9,NA,100,0,1,10,1,9,NA,100,0,1,10,NA,NA,NA,NA,NA,NA,NA,NA,NA,NA,NA,NA,NA,NA,NA,NA,NA,NA,NA,NA,NA,NA,NA,"",NA,NA,NA,NA,NA,NA,NA,NA,2025-11-18 02:32:55
"8653","https://psyc-201.github.io/xiang2023/exp/index1.html?PROLIFIC_PID=REDACTED&STUDY_ID=69168b21477cff9ada6cb980&SESSION_ID=691bd37d64ad38f5e85eb401","survey-html-form",47,1484618,"0.0-336.0","WjS5+oO5If5BTrOfmm0gM8gjH4j7wt5zLqyK7D5cQYxIAYmWMRemKn1wN6FLZoIdGTQ5L6knT79lUfKVdP6Lu+o0ZFwzT2JtgRjdGRPDYeHRMb7k6/cwQXskRkbCMLK994uJNtVO4hUUTfHPq1bAWLZ/uLhpbngwFj7HizaScwiIxn5LhabDe2VAKc/3KtapSr6V6v5Tz4aC33WKSY9Jn+20ZzisH0rrzzj9RQybs19wLETgyCUQyeOHO2C2SiePkkfGhloVkn40/HwKNFj3gu/n3Ebz/Qy+PZ0SOk/u2LzabJ2JZ36OrK+YJhOwiyetgJlUEBRZmAye+Ehv0RL+mA==","69168b21477cff9ada6cb980","691bd37d64ad38f5e85eb401","index1","<span style='color:red'>Fail,<span style='color:red'>Fail,<span style='color:green'>Lift,<span style='color:green'>Lift,<span style='color:red'>Fail,<span style='color:red'>Fail,<span style='color:red'>Fail,<span style='color:red'>Fail,<span style='color:red'>Fail,<span style='color:green'>Lift,<span style='color:red'>Fail,<span style='color:green'>Lift","<span style='color:red'>Fail,<span style='color:red'>Fail,<span style='color:green'>Lift,<span style='color:green'>Lift,<span style='color:green'>Lift,<span style='color:green'>Lift,<span style='color:red'>Fail,<span style='color:green'>Lift,<span style='color:green'>Lift,<span style='color:green'>Lift,<span style='color:red'>Fail,<span style='color:green'>Lift","<span style='color:red'>Fail,<span style='color:green'>Lift,<span style='color:green'>Lift,<span style='color:red'>Fail,<span style='color:green'>Lift,<span style='color:green'>Lift","0,0,1,1,0,0,0,0,0,1,0,1","0,0,1,1,1,1,0,1,1,1,0,1","0,1,1,0,1,1",10,20,20,"","","","","{""box1"":""50"",""box2"":""50""}","",NA,4,"round2_ready",2,4,2,NA,NA,NA,NA,NA,NA,NA,NA,NA,NA,NA,NA,NA,NA,50,50,50,50,NA,NA,NA,NA,NA,NA,NA,NA,NA,NA,NA,NA,NA,NA,NA,NA,NA,NA,NA,"",NA,NA,NA,NA,NA,NA,NA,NA,2025-11-18 02:32:55
"8857.099999964237","https://psyc-201.github.io/xiang2023/exp/index1.html?PROLIFIC_PID=REDACTED&STUDY_ID=69168b21477cff9ada6cb980&SESSION_ID=691bd37d64ad38f5e85eb401","survey-html-form",48,1493478,"0.0-337.0","WjS5+oO5If5BTrOfmm0gM8gjH4j7wt5zLqyK7D5cQYxIAYmWMRemKn1wN6FLZoIdGTQ5L6knT79lUfKVdP6Lu+o0ZFwzT2JtgRjdGRPDYeHRMb7k6/cwQXskRkbCMLK994uJNtVO4hUUTfHPq1bAWLZ/uLhpbngwFj7HizaScwiIxn5LhabDe2VAKc/3KtapSr6V6v5Tz4aC33WKSY9Jn+20ZzisH0rrzzj9RQybs19wLETgyCUQyeOHO2C2SiePkkfGhloVkn40/HwKNFj3gu/n3Ebz/Qy+PZ0SOk/u2LzabJ2JZ36OrK+YJhOwiyetgJlUEBRZmAye+Ehv0RL+mA==","69168b21477cff9ada6cb980","691bd37d64ad38f5e85eb401","index1","<span style='color:red'>Fail,<span style='color:red'>Fail,<span style='color:green'>Lift,<span style='color:green'>Lift,<span style='color:red'>Fail,<span style='color:red'>Fail,<span style='color:red'>Fail,<span style='color:red'>Fail,<span style='color:red'>Fail,<span style='color:green'>Lift,<span style='color:red'>Fail,<span style='color:green'>Lift","<span style='color:red'>Fail,<span style='color:red'>Fail,<span style='color:green'>Lift,<span style='color:green'>Lift,<span style='color:green'>Lift,<span style='color:green'>Lift,<span style='color:red'>Fail,<span style='color:green'>Lift,<span style='color:green'>Lift,<span style='color:green'>Lift,<span style='color:red'>Fail,<span style='color:green'>Lift","<span style='color:red'>Fail,<span style='color:green'>Lift,<span style='color:green'>Lift,<span style='color:red'>Fail,<span style='color:green'>Lift,<span style='color:green'>Lift","0,0,1,1,0,0,0,0,0,1,0,1","0,0,1,1,1,1,0,1,1,1,0,1","0,1,1,0,1,1",10,20,20,"","","","","{""box1"":""9"",""box2"":""9"",""box3"":""100"",""box4"":""100""}","",NA,4,"round2_outcome",3,4,2,9,9,100,100,1,1,20,NA,NA,NA,NA,NA,NA,NA,NA,NA,NA,NA,9,9,100,100,1,1,20,NA,NA,NA,NA,NA,NA,NA,NA,NA,NA,NA,NA,"",NA,NA,NA,NA,NA,NA,NA,NA,2025-11-18 02:32:55
"38622.30000001192","https://psyc-201.github.io/xiang2023/exp/index1.html?PROLIFIC_PID=REDACTED&STUDY_ID=69168b21477cff9ada6cb980&SESSION_ID=691bd37d64ad38f5e85eb401","survey-html-form",49,1532103,"0.0-338.0","WjS5+oO5If5BTrOfmm0gM8gjH4j7wt5zLqyK7D5cQYxIAYmWMRemKn1wN6FLZoIdGTQ5L6knT79lUfKVdP6Lu+o0ZFwzT2JtgRjdGRPDYeHRMb7k6/cwQXskRkbCMLK994uJNtVO4hUUTfHPq1bAWLZ/uLhpbngwFj7HizaScwiIxn5LhabDe2VAKc/3KtapSr6V6v5Tz4aC33WKSY9Jn+20ZzisH0rrzzj9RQybs19wLETgyCUQyeOHO2C2SiePkkfGhloVkn40/HwKNFj3gu/n3Ebz/Qy+PZ0SOk/u2LzabJ2JZ36OrK+YJhOwiyetgJlUEBRZmAye+Ehv0RL+mA==","69168b21477cff9ada6cb980","691bd37d64ad38f5e85eb401","index1","<span style='color:red'>Fail,<span style='color:red'>Fail,<span style='color:green'>Lift,<span style='color:green'>Lift,<span style='color:red'>Fail,<span style='color:red'>Fail,<span style='color:red'>Fail,<span style='color:red'>Fail,<span style='color:red'>Fail,<span style='color:green'>Lift,<span style='color:red'>Fail,<span style='color:green'>Lift","<span style='color:red'>Fail,<span style='color:red'>Fail,<span style='color:green'>Lift,<span style='color:green'>Lift,<span style='color:green'>Lift,<span style='color:green'>Lift,<span style='color:red'>Fail,<span style='color:green'>Lift,<span style='color:green'>Lift,<span style='color:green'>Lift,<span style='color:red'>Fail,<span style='color:green'>Lift","<span style='color:red'>Fail,<span style='color:green'>Lift,<span style='color:green'>Lift,<span style='color:red'>Fail,<span style='color:green'>Lift,<span style='color:green'>Lift","0,0,1,1,0,0,0,0,0,1,0,1","0,0,1,1,1,1,0,1,1,1,0,1","0,1,1,0,1,1",10,20,20,"","","","","{""box1"":""50""}","",NA,4,"round3_ready",4,4,3,NA,NA,NA,NA,NA,NA,NA,NA,NA,NA,NA,NA,NA,NA,50,50,NA,NA,NA,NA,NA,NA,NA,NA,NA,50,50,NA,NA,NA,NA,NA,NA,NA,NA,NA,NA,"",NA,NA,NA,NA,NA,NA,NA,NA,2025-11-18 02:32:55
"17838.5","https://psyc-201.github.io/xiang2023/exp/index1.html?PROLIFIC_PID=REDACTED&STUDY_ID=69168b21477cff9ada6cb980&SESSION_ID=691bd37d64ad38f5e85eb401","survey-html-form",50,1549944,"0.0-339.0-0.0","WjS5+oO5If5BTrOfmm0gM8gjH4j7wt5zLqyK7D5cQYxIAYmWMRemKn1wN6FLZoIdGTQ5L6knT79lUfKVdP6Lu+o0ZFwzT2JtgRjdGRPDYeHRMb7k6/cwQXskRkbCMLK994uJNtVO4hUUTfHPq1bAWLZ/uLhpbngwFj7HizaScwiIxn5LhabDe2VAKc/3KtapSr6V6v5Tz4aC33WKSY9Jn+20ZzisH0rrzzj9RQybs19wLETgyCUQyeOHO2C2SiePkkfGhloVkn40/HwKNFj3gu/n3Ebz/Qy+PZ0SOk/u2LzabJ2JZ36OrK+YJhOwiyetgJlUEBRZmAye+Ehv0RL+mA==","69168b21477cff9ada6cb980","691bd37d64ad38f5e85eb401","index1","<span style='color:red'>Fail,<span style='color:red'>Fail,<span style='color:green'>Lift,<span style='color:green'>Lift,<span style='color:red'>Fail,<span style='color:red'>Fail,<span style='color:red'>Fail,<span style='color:red'>Fail,<span style='color:red'>Fail,<span style='color:green'>Lift,<span style='color:red'>Fail,<span style='color:green'>Lift","<span style='color:red'>Fail,<span style='color:red'>Fail,<span style='color:green'>Lift,<span style='color:green'>Lift,<span style='color:green'>Lift,<span style='color:green'>Lift,<span style='color:red'>Fail,<span style='color:green'>Lift,<span style='color:green'>Lift,<span style='color:green'>Lift,<span style='color:red'>Fail,<span style='color:green'>Lift","<span style='color:red'>Fail,<span style='color:green'>Lift,<span style='color:green'>Lift,<span style='color:red'>Fail,<span style='color:green'>Lift,<span style='color:green'>Lift","0,0,1,1,0,0,0,0,0,1,0,1","0,0,1,1,1,1,0,1,1,1,0,1","0,1,1,0,1,1",10,20,20,"","","","","{""box1"":""8"",""box2"":""8"",""box3"":""100"",""box4"":""100""}","",NA,5,"round3_lift",5,4,3,8,8,100,100,1,1,20,NA,NA,NA,NA,NA,NA,NA,NA,NA,NA,NA,NA,NA,NA,NA,NA,NA,NA,NA,NA,8,8,100,100,1,1,20,NA,NA,NA,"",NA,NA,NA,NA,NA,NA,NA,NA,2025-11-18 02:32:55
