"rt","url","trial_type","trial_index","time_elapsed","internal_node_id","encryptedProlificId","studyId","sessionId","expIndex","round1_outcomes","round2_outcomes","round3_outcomes","round1_o","round2_o","round3_o","round1_reward","round2_reward","round3_reward","success","view_history","stimulus","key_press","responses","question_order","j","Stage","stage","contest","round","strength_a","strength_b","effort_a","effort_b","outcome_a","outcome_b","reward","r1_strength_a","r1_strength_b","r1_effort_a","r1_effort_b","r1_outcome_a","r1_outcome_b","r1_reward","probability_a","probability_b","r2_prob_a","r2_prob_b","r2_strength_a","r2_strength_b","r2_effort_a","r2_effort_b","r2_outcome_a","r2_outcome_b","r2_reward","r3_prob_a","r3_prob_b","r3_strength_a","r3_strength_b","r3_effort_a","r3_effort_b","r3_outcome_a","r3_outcome_b","r3_reward","attention_check","count","screen","pick_contest","pick_round","pick_side","trial_probability","trial_outcome","bonus","button_pressed","attention_sum","attention","datapipe_meta.attributes.date_modified"
"74956.59999999404","https://psyc-201.github.io/xiang2023/exp/index1.html?PROLIFIC_PID=REDACTED&STUDY_ID=691f8ca61c6b4dcbb0aeb5f4&SESSION_ID=691f96a48aa11cacb1ca4a55","external-html",0,74986,"0.0-0.0","Sbrev3v6Ohpdw4cxjZE5UoIv4PkQiboIAH8d42eiNQGVUHiLnRAH+kkjzfaLA8unv6ChvKE37s+QG1vHpMgUQ9vpy7g5YWggOMWrt8Lh+LJfiNIG2xyXwsGKIZpJusnJIyRbBkMG1DeVlRZh7b7sfJrPTO9dNIlz5qLlaEPElz/snLtP4M0h/n0UMVcZZJVUKrwhOCFeDUgNsI8eBeTQ3CPWOyV5jX0c63Hhw2HKsnhP4bBzf4n64ih8eRaYA0WGQGi1o08sQmnNLNvzzEMH3evhKOhio2a5FrEfP6rTuhNj03l/U2djeb2lo95vc5giP5bpPXlWfnqJqMshHrinOA==","691f8ca61c6b4dcbb0aeb5f4","691f96a48aa11cacb1ca4a55","index1","<span style='color:red'>Fail,<span style='color:red'>Fail,<span style='color:green'>Lift,<span style='color:green'>Lift,<span style='color:red'>Fail,<span style='color:red'>Fail,<span style='color:red'>Fail,<span style='color:red'>Fail,<span style='color:green'>Lift,<span style='color:red'>Fail,<span style='color:red'>Fail,<span style='color:green'>Lift","<span style='color:red'>Fail,<span style='color:red'>Fail,<span style='color:green'>Lift,<span style='color:green'>Lift,<span style='color:green'>Lift,<span style='color:green'>Lift,<span style='color:green'>Lift,<span style='color:red'>Fail,<span style='color:green'>Lift,<span style='color:green'>Lift,<span style='color:red'>Fail,<span style='color:green'>Lift","<span style='color:red'>Fail,<span style='color:green'>Lift,<span style='color:green'>Lift,<span style='color:red'>Fail,<span style='color:green'>Lift,<span style='color:green'>Lift","0,0,1,1,0,0,0,0,1,0,0,1","0,0,1,1,1,1,1,0,1,1,0,1","0,1,1,0,1,1",10,20,20,"","","","","","",NA,"",NA,NA,NA,NA,NA,NA,NA,NA,NA,NA,NA,NA,NA,NA,NA,NA,NA,NA,NA,NA,NA,NA,NA,NA,NA,NA,NA,NA,NA,NA,NA,NA,NA,NA,NA,NA,NA,NA,NA,"",NA,NA,NA,NA,NA,NA,NA,NA,NA,2025-11-20 22:55:06
"","https://psyc-201.github.io/xiang2023/exp/index1.html?PROLIFIC_PID=REDACTED&STUDY_ID=691f8ca61c6b4dcbb0aeb5f4&SESSION_ID=691f96a48aa11cacb1ca4a55","fullscreen",1,91043,"0.0-1.0","Sbrev3v6Ohpdw4cxjZE5UoIv4PkQiboIAH8d42eiNQGVUHiLnRAH+kkjzfaLA8unv6ChvKE37s+QG1vHpMgUQ9vpy7g5YWggOMWrt8Lh+LJfiNIG2xyXwsGKIZpJusnJIyRbBkMG1DeVlRZh7b7sfJrPTO9dNIlz5qLlaEPElz/snLtP4M0h/n0UMVcZZJVUKrwhOCFeDUgNsI8eBeTQ3CPWOyV5jX0c63Hhw2HKsnhP4bBzf4n64ih8eRaYA0WGQGi1o08sQmnNLNvzzEMH3evhKOhio2a5FrEfP6rTuhNj03l/U2djeb2lo95vc5giP5bpPXlWfnqJqMshHrinOA==","691f8ca61c6b4dcbb0aeb5f4","691f96a48aa11cacb1ca4a55","index1","<span style='color:red'>Fail,<span style='color:red'>Fail,<span style='color:green'>Lift,<span style='color:green'>Lift,<span style='color:red'>Fail,<span style='color:red'>Fail,<span style='color:red'>Fail,<span style='color:red'>Fail,<span style='color:green'>Lift,<span style='color:red'>Fail,<span style='color:red'>Fail,<span style='color:green'>Lift","<span style='color:red'>Fail,<span style='color:red'>Fail,<span style='color:green'>Lift,<span style='color:green'>Lift,<span style='color:green'>Lift,<span style='color:green'>Lift,<span style='color:green'>Lift,<span style='color:red'>Fail,<span style='color:green'>Lift,<span style='color:green'>Lift,<span style='color:red'>Fail,<span style='color:green'>Lift","<span style='color:red'>Fail,<span style='color:green'>Lift,<span style='color:green'>Lift,<span style='color:red'>Fail,<span style='color:green'>Lift,<span style='color:green'>Lift","0,0,1,1,0,0,0,0,1,0,0,1","0,0,1,1,1,1,1,0,1,1,0,1","0,1,1,0,1,1",10,20,20,"true","","","","","",NA,"",NA,NA,NA,NA,NA,NA,NA,NA,NA,NA,NA,NA,NA,NA,NA,NA,NA,NA,NA,NA,NA,NA,NA,NA,NA,NA,NA,NA,NA,NA,NA,NA,NA,NA,NA,NA,NA,NA,NA,"",NA,NA,NA,NA,NA,NA,NA,NA,NA,2025-11-20 22:55:06
"182382.09999999404","https://psyc-201.github.io/xiang2023/exp/index1.html?PROLIFIC_PID=REDACTED&STUDY_ID=691f8ca61c6b4dcbb0aeb5f4&SESSION_ID=691f96a48aa11cacb1ca4a55","instructions",2,273426,"0.0-2.0","Sbrev3v6Ohpdw4cxjZE5UoIv4PkQiboIAH8d42eiNQGVUHiLnRAH+kkjzfaLA8unv6ChvKE37s+QG1vHpMgUQ9vpy7g5YWggOMWrt8Lh+LJfiNIG2xyXwsGKIZpJusnJIyRbBkMG1DeVlRZh7b7sfJrPTO9dNIlz5qLlaEPElz/snLtP4M0h/n0UMVcZZJVUKrwhOCFeDUgNsI8eBeTQ3CPWOyV5jX0c63Hhw2HKsnhP4bBzf4n64ih8eRaYA0WGQGi1o08sQmnNLNvzzEMH3evhKOhio2a5FrEfP6rTuhNj03l/U2djeb2lo95vc5giP5bpPXlWfnqJqMshHrinOA==","691f8ca61c6b4dcbb0aeb5f4","691f96a48aa11cacb1ca4a55","index1","<span style='color:red'>Fail,<span style='color:red'>Fail,<span style='color:green'>Lift,<span style='color:green'>Lift,<span style='color:red'>Fail,<span style='color:red'>Fail,<span style='color:red'>Fail,<span style='color:red'>Fail,<span style='color:green'>Lift,<span style='color:red'>Fail,<span style='color:red'>Fail,<span style='color:green'>Lift","<span style='color:red'>Fail,<span style='color:red'>Fail,<span style='color:green'>Lift,<span style='color:green'>Lift,<span style='color:green'>Lift,<span style='color:green'>Lift,<span style='color:green'>Lift,<span style='color:red'>Fail,<span style='color:green'>Lift,<span style='color:green'>Lift,<span style='color:red'>Fail,<span style='color:green'>Lift","<span style='color:red'>Fail,<span style='color:green'>Lift,<span style='color:green'>Lift,<span style='color:red'>Fail,<span style='color:green'>Lift,<span style='color:green'>Lift","0,0,1,1,0,0,0,0,1,0,0,1","0,0,1,1,1,1,1,0,1,1,0,1","0,1,1,0,1,1",10,20,20,"","[{""page_index"":0,""viewing_time"":24158},{""page_index"":1,""viewing_time"":22343.59999999404},{""page_index"":2,""viewing_time"":16071.59999999404},{""page_index"":3,""viewing_time"":34217},{""page_index"":4,""viewing_time"":10920},{""page_index"":5,""viewing_time"":17711.59999999404},{""page_index"":6,""viewing_time"":11431.800000011921},{""page_index"":5,""viewing_time"":3960.4000000059605},{""page_index"":4,""viewing_time"":4376.199999988079},{""page_index"":3,""viewing_time"":15071.40000000596},{""page_index"":4,""viewing_time"":5208.9000000059605},{""page_index"":5,""viewing_time"":6191.399999976158},{""page_index"":6,""viewing_time"":10719.90000000596}]","","","","",NA,"",NA,NA,NA,NA,NA,NA,NA,NA,NA,NA,NA,NA,NA,NA,NA,NA,NA,NA,NA,NA,NA,NA,NA,NA,NA,NA,NA,NA,NA,NA,NA,NA,NA,NA,NA,NA,NA,NA,NA,"",NA,NA,NA,NA,NA,NA,NA,NA,NA,2025-11-20 22:55:06
"null","https://psyc-201.github.io/xiang2023/exp/index1.html?PROLIFIC_PID=REDACTED&STUDY_ID=691f8ca61c6b4dcbb0aeb5f4&SESSION_ID=691f96a48aa11cacb1ca4a55","html-keyboard-response",3,274437,"0.0-3.0","Sbrev3v6Ohpdw4cxjZE5UoIv4PkQiboIAH8d42eiNQGVUHiLnRAH+kkjzfaLA8unv6ChvKE37s+QG1vHpMgUQ9vpy7g5YWggOMWrt8Lh+LJfiNIG2xyXwsGKIZpJusnJIyRbBkMG1DeVlRZh7b7sfJrPTO9dNIlz5qLlaEPElz/snLtP4M0h/n0UMVcZZJVUKrwhOCFeDUgNsI8eBeTQ3CPWOyV5jX0c63Hhw2HKsnhP4bBzf4n64ih8eRaYA0WGQGi1o08sQmnNLNvzzEMH3evhKOhio2a5FrEfP6rTuhNj03l/U2djeb2lo95vc5giP5bpPXlWfnqJqMshHrinOA==","691f8ca61c6b4dcbb0aeb5f4","691f96a48aa11cacb1ca4a55","index1","<span style='color:red'>Fail,<span style='color:red'>Fail,<span style='color:green'>Lift,<span style='color:green'>Lift,<span style='color:red'>Fail,<span style='color:red'>Fail,<span style='color:red'>Fail,<span style='color:red'>Fail,<span style='color:green'>Lift,<span style='color:red'>Fail,<span style='color:red'>Fail,<span style='color:green'>Lift","<span style='color:red'>Fail,<span style='color:red'>Fail,<span style='color:green'>Lift,<span style='color:green'>Lift,<span style='color:green'>Lift,<span style='color:green'>Lift,<span style='color:green'>Lift,<span style='color:red'>Fail,<span style='color:green'>Lift,<span style='color:green'>Lift,<span style='color:red'>Fail,<span style='color:green'>Lift","<span style='color:red'>Fail,<span style='color:green'>Lift,<span style='color:green'>Lift,<span style='color:red'>Fail,<span style='color:green'>Lift,<span style='color:green'>Lift","0,0,1,1,0,0,0,0,1,0,0,1","0,0,1,1,1,1,1,0,1,1,0,1","0,1,1,0,1,1",10,20,20,"",""," ","null","","",NA,"",NA,NA,NA,NA,NA,NA,NA,NA,NA,NA,NA,NA,NA,NA,NA,NA,NA,NA,NA,NA,NA,NA,NA,NA,NA,NA,NA,NA,NA,NA,NA,NA,NA,NA,NA,NA,NA,NA,NA,"",NA,NA,NA,NA,NA,NA,NA,NA,NA,2025-11-20 22:55:06
"255687.40000000596","https://psyc-201.github.io/xiang2023/exp/index1.html?PROLIFIC_PID=REDACTED&STUDY_ID=691f8ca61c6b4dcbb0aeb5f4&SESSION_ID=691f96a48aa11cacb1ca4a55","survey-multi-choice",4,530127,"0.0-4.0","Sbrev3v6Ohpdw4cxjZE5UoIv4PkQiboIAH8d42eiNQGVUHiLnRAH+kkjzfaLA8unv6ChvKE37s+QG1vHpMgUQ9vpy7g5YWggOMWrt8Lh+LJfiNIG2xyXwsGKIZpJusnJIyRbBkMG1DeVlRZh7b7sfJrPTO9dNIlz5qLlaEPElz/snLtP4M0h/n0UMVcZZJVUKrwhOCFeDUgNsI8eBeTQ3CPWOyV5jX0c63Hhw2HKsnhP4bBzf4n64ih8eRaYA0WGQGi1o08sQmnNLNvzzEMH3evhKOhio2a5FrEfP6rTuhNj03l/U2djeb2lo95vc5giP5bpPXlWfnqJqMshHrinOA==","691f8ca61c6b4dcbb0aeb5f4","691f96a48aa11cacb1ca4a55","index1","<span style='color:red'>Fail,<span style='color:red'>Fail,<span style='color:green'>Lift,<span style='color:green'>Lift,<span style='color:red'>Fail,<span style='color:red'>Fail,<span style='color:red'>Fail,<span style='color:red'>Fail,<span style='color:green'>Lift,<span style='color:red'>Fail,<span style='color:red'>Fail,<span style='color:green'>Lift","<span style='color:red'>Fail,<span style='color:red'>Fail,<span style='color:green'>Lift,<span style='color:green'>Lift,<span style='color:green'>Lift,<span style='color:green'>Lift,<span style='color:green'>Lift,<span style='color:red'>Fail,<span style='color:green'>Lift,<span style='color:green'>Lift,<span style='color:red'>Fail,<span style='color:green'>Lift","<span style='color:red'>Fail,<span style='color:green'>Lift,<span style='color:green'>Lift,<span style='color:red'>Fail,<span style='color:green'>Lift,<span style='color:green'>Lift","0,0,1,1,0,0,0,0,1,0,0,1","0,0,1,1,1,1,1,0,1,1,0,1","0,1,1,0,1,1",10,20,20,"","","","","{""Q0"":""It consists of multiple contests, each contest with three rounds."",""Q1"":""When a new contest begins."",""Q2"":""The box weight always stays the same (equivalent to strength of 5)."",""Q3"":""Each will get $20."",""Q4"":""How close my guesses are to the actual outcome.""}","[0,1,2,3,4]",NA,"",NA,NA,NA,NA,NA,NA,NA,NA,NA,NA,NA,NA,NA,NA,NA,NA,NA,NA,NA,NA,NA,NA,NA,NA,NA,NA,NA,NA,NA,NA,NA,NA,NA,NA,NA,NA,NA,NA,NA,"",NA,NA,NA,NA,NA,NA,NA,NA,NA,2025-11-20 22:55:06
"36175.60000002384","https://psyc-201.github.io/xiang2023/exp/index1.html?PROLIFIC_PID=REDACTED&STUDY_ID=691f8ca61c6b4dcbb0aeb5f4&SESSION_ID=691f96a48aa11cacb1ca4a55","instructions",5,566307,"0.0-305.0","Sbrev3v6Ohpdw4cxjZE5UoIv4PkQiboIAH8d42eiNQGVUHiLnRAH+kkjzfaLA8unv6ChvKE37s+QG1vHpMgUQ9vpy7g5YWggOMWrt8Lh+LJfiNIG2xyXwsGKIZpJusnJIyRbBkMG1DeVlRZh7b7sfJrPTO9dNIlz5qLlaEPElz/snLtP4M0h/n0UMVcZZJVUKrwhOCFeDUgNsI8eBeTQ3CPWOyV5jX0c63Hhw2HKsnhP4bBzf4n64ih8eRaYA0WGQGi1o08sQmnNLNvzzEMH3evhKOhio2a5FrEfP6rTuhNj03l/U2djeb2lo95vc5giP5bpPXlWfnqJqMshHrinOA==","691f8ca61c6b4dcbb0aeb5f4","691f96a48aa11cacb1ca4a55","index1","<span style='color:red'>Fail,<span style='color:red'>Fail,<span style='color:green'>Lift,<span style='color:green'>Lift,<span style='color:red'>Fail,<span style='color:red'>Fail,<span style='color:red'>Fail,<span style='color:red'>Fail,<span style='color:green'>Lift,<span style='color:red'>Fail,<span style='color:red'>Fail,<span style='color:green'>Lift","<span style='color:red'>Fail,<span style='color:red'>Fail,<span style='color:green'>Lift,<span style='color:green'>Lift,<span style='color:green'>Lift,<span style='color:green'>Lift,<span style='color:green'>Lift,<span style='color:red'>Fail,<span style='color:green'>Lift,<span style='color:green'>Lift,<span style='color:red'>Fail,<span style='color:green'>Lift","<span style='color:red'>Fail,<span style='color:green'>Lift,<span style='color:green'>Lift,<span style='color:red'>Fail,<span style='color:green'>Lift,<span style='color:green'>Lift","0,0,1,1,0,0,0,0,1,0,0,1","0,0,1,1,1,1,1,0,1,1,0,1","0,1,1,0,1,1",10,20,20,"","[{""page_index"":0,""viewing_time"":25591.70000001788},{""page_index"":1,""viewing_time"":10583.699999988079}]","","","","",NA,"",NA,NA,NA,NA,NA,NA,NA,NA,NA,NA,NA,NA,NA,NA,NA,NA,NA,NA,NA,NA,NA,NA,NA,NA,NA,NA,NA,NA,NA,NA,NA,NA,NA,NA,NA,NA,NA,NA,NA,"",NA,NA,NA,NA,NA,NA,NA,NA,NA,2025-11-20 22:55:06
"null","https://psyc-201.github.io/xiang2023/exp/index1.html?PROLIFIC_PID=REDACTED&STUDY_ID=691f8ca61c6b4dcbb0aeb5f4&SESSION_ID=691f96a48aa11cacb1ca4a55","html-keyboard-response",6,567325,"0.0-306.0","Sbrev3v6Ohpdw4cxjZE5UoIv4PkQiboIAH8d42eiNQGVUHiLnRAH+kkjzfaLA8unv6ChvKE37s+QG1vHpMgUQ9vpy7g5YWggOMWrt8Lh+LJfiNIG2xyXwsGKIZpJusnJIyRbBkMG1DeVlRZh7b7sfJrPTO9dNIlz5qLlaEPElz/snLtP4M0h/n0UMVcZZJVUKrwhOCFeDUgNsI8eBeTQ3CPWOyV5jX0c63Hhw2HKsnhP4bBzf4n64ih8eRaYA0WGQGi1o08sQmnNLNvzzEMH3evhKOhio2a5FrEfP6rTuhNj03l/U2djeb2lo95vc5giP5bpPXlWfnqJqMshHrinOA==","691f8ca61c6b4dcbb0aeb5f4","691f96a48aa11cacb1ca4a55","index1","<span style='color:red'>Fail,<span style='color:red'>Fail,<span style='color:green'>Lift,<span style='color:green'>Lift,<span style='color:red'>Fail,<span style='color:red'>Fail,<span style='color:red'>Fail,<span style='color:red'>Fail,<span style='color:green'>Lift,<span style='color:red'>Fail,<span style='color:red'>Fail,<span style='color:green'>Lift","<span style='color:red'>Fail,<span style='color:red'>Fail,<span style='color:green'>Lift,<span style='color:green'>Lift,<span style='color:green'>Lift,<span style='color:green'>Lift,<span style='color:green'>Lift,<span style='color:red'>Fail,<span style='color:green'>Lift,<span style='color:green'>Lift,<span style='color:red'>Fail,<span style='color:green'>Lift","<span style='color:red'>Fail,<span style='color:green'>Lift,<span style='color:green'>Lift,<span style='color:red'>Fail,<span style='color:green'>Lift,<span style='color:green'>Lift","0,0,1,1,0,0,0,0,1,0,0,1","0,0,1,1,1,1,1,0,1,1,0,1","0,1,1,0,1,1",10,20,20,"",""," ","null","","",1,"",NA,NA,NA,NA,NA,NA,NA,NA,NA,NA,NA,NA,NA,NA,NA,NA,NA,NA,NA,NA,NA,NA,NA,NA,NA,NA,NA,NA,NA,NA,NA,NA,NA,NA,NA,NA,NA,NA,NA,"",NA,NA,NA,NA,NA,NA,NA,NA,NA,2025-11-20 22:55:06
"null","https://psyc-201.github.io/xiang2023/exp/index1.html?PROLIFIC_PID=REDACTED&STUDY_ID=691f8ca61c6b4dcbb0aeb5f4&SESSION_ID=691f96a48aa11cacb1ca4a55","html-keyboard-response",7,570335,"0.0-307.0","Sbrev3v6Ohpdw4cxjZE5UoIv4PkQiboIAH8d42eiNQGVUHiLnRAH+kkjzfaLA8unv6ChvKE37s+QG1vHpMgUQ9vpy7g5YWggOMWrt8Lh+LJfiNIG2xyXwsGKIZpJusnJIyRbBkMG1DeVlRZh7b7sfJrPTO9dNIlz5qLlaEPElz/snLtP4M0h/n0UMVcZZJVUKrwhOCFeDUgNsI8eBeTQ3CPWOyV5jX0c63Hhw2HKsnhP4bBzf4n64ih8eRaYA0WGQGi1o08sQmnNLNvzzEMH3evhKOhio2a5FrEfP6rTuhNj03l/U2djeb2lo95vc5giP5bpPXlWfnqJqMshHrinOA==","691f8ca61c6b4dcbb0aeb5f4","691f96a48aa11cacb1ca4a55","index1","<span style='color:red'>Fail,<span style='color:red'>Fail,<span style='color:green'>Lift,<span style='color:green'>Lift,<span style='color:red'>Fail,<span style='color:red'>Fail,<span style='color:red'>Fail,<span style='color:red'>Fail,<span style='color:green'>Lift,<span style='color:red'>Fail,<span style='color:red'>Fail,<span style='color:green'>Lift","<span style='color:red'>Fail,<span style='color:red'>Fail,<span style='color:green'>Lift,<span style='color:green'>Lift,<span style='color:green'>Lift,<span style='color:green'>Lift,<span style='color:green'>Lift,<span style='color:red'>Fail,<span style='color:green'>Lift,<span style='color:green'>Lift,<span style='color:red'>Fail,<span style='color:green'>Lift","<span style='color:red'>Fail,<span style='color:green'>Lift,<span style='color:green'>Lift,<span style='color:red'>Fail,<span style='color:green'>Lift,<span style='color:green'>Lift","0,0,1,1,0,0,0,0,1,0,0,1","0,0,1,1,1,1,1,0,1,1,0,1","0,1,1,0,1,1",10,20,20,"","","<p style='font-size:30px'><b> New Contest! </b></p>","null","","",1,"",NA,NA,NA,NA,NA,NA,NA,NA,NA,NA,NA,NA,NA,NA,NA,NA,NA,NA,NA,NA,NA,NA,NA,NA,NA,NA,NA,NA,NA,NA,NA,NA,NA,NA,NA,NA,NA,NA,NA,"",NA,NA,NA,NA,NA,NA,NA,NA,NA,2025-11-20 22:55:06
"66250.90000000596","https://psyc-201.github.io/xiang2023/exp/index1.html?PROLIFIC_PID=REDACTED&STUDY_ID=691f8ca61c6b4dcbb0aeb5f4&SESSION_ID=691f96a48aa11cacb1ca4a55","survey-html-form",8,636589,"0.0-308.0","Sbrev3v6Ohpdw4cxjZE5UoIv4PkQiboIAH8d42eiNQGVUHiLnRAH+kkjzfaLA8unv6ChvKE37s+QG1vHpMgUQ9vpy7g5YWggOMWrt8Lh+LJfiNIG2xyXwsGKIZpJusnJIyRbBkMG1DeVlRZh7b7sfJrPTO9dNIlz5qLlaEPElz/snLtP4M0h/n0UMVcZZJVUKrwhOCFeDUgNsI8eBeTQ3CPWOyV5jX0c63Hhw2HKsnhP4bBzf4n64ih8eRaYA0WGQGi1o08sQmnNLNvzzEMH3evhKOhio2a5FrEfP6rTuhNj03l/U2djeb2lo95vc5giP5bpPXlWfnqJqMshHrinOA==","691f8ca61c6b4dcbb0aeb5f4","691f96a48aa11cacb1ca4a55","index1","<span style='color:red'>Fail,<span style='color:red'>Fail,<span style='color:green'>Lift,<span style='color:green'>Lift,<span style='color:red'>Fail,<span style='color:red'>Fail,<span style='color:red'>Fail,<span style='color:red'>Fail,<span style='color:green'>Lift,<span style='color:red'>Fail,<span style='color:red'>Fail,<span style='color:green'>Lift","<span style='color:red'>Fail,<span style='color:red'>Fail,<span style='color:green'>Lift,<span style='color:green'>Lift,<span style='color:green'>Lift,<span style='color:green'>Lift,<span style='color:green'>Lift,<span style='color:red'>Fail,<span style='color:green'>Lift,<span style='color:green'>Lift,<span style='color:red'>Fail,<span style='color:green'>Lift","<span style='color:red'>Fail,<span style='color:green'>Lift,<span style='color:green'>Lift,<span style='color:red'>Fail,<span style='color:green'>Lift,<span style='color:green'>Lift","0,0,1,1,0,0,0,0,1,0,0,1","0,0,1,1,1,1,1,0,1,1,0,1","0,1,1,0,1,1",10,20,20,"","","","","{""box1"":""5"",""box2"":""10"",""box4"":""50""}","",1,"round1_outcome",1,1,1,5,10,NA,50,0,1,10,5,10,NA,50,0,1,10,NA,NA,NA,NA,NA,NA,NA,NA,NA,NA,NA,NA,NA,NA,NA,NA,NA,NA,NA,NA,NA,NA,"",NA,NA,NA,NA,NA,NA,NA,NA,NA,2025-11-20 22:55:06
"25829.40000000596","https://psyc-201.github.io/xiang2023/exp/index1.html?PROLIFIC_PID=REDACTED&STUDY_ID=691f8ca61c6b4dcbb0aeb5f4&SESSION_ID=691f96a48aa11cacb1ca4a55","survey-html-form",9,662420,"0.0-309.0","Sbrev3v6Ohpdw4cxjZE5UoIv4PkQiboIAH8d42eiNQGVUHiLnRAH+kkjzfaLA8unv6ChvKE37s+QG1vHpMgUQ9vpy7g5YWggOMWrt8Lh+LJfiNIG2xyXwsGKIZpJusnJIyRbBkMG1DeVlRZh7b7sfJrPTO9dNIlz5qLlaEPElz/snLtP4M0h/n0UMVcZZJVUKrwhOCFeDUgNsI8eBeTQ3CPWOyV5jX0c63Hhw2HKsnhP4bBzf4n64ih8eRaYA0WGQGi1o08sQmnNLNvzzEMH3evhKOhio2a5FrEfP6rTuhNj03l/U2djeb2lo95vc5giP5bpPXlWfnqJqMshHrinOA==","691f8ca61c6b4dcbb0aeb5f4","691f96a48aa11cacb1ca4a55","index1","<span style='color:red'>Fail,<span style='color:red'>Fail,<span style='color:green'>Lift,<span style='color:green'>Lift,<span style='color:red'>Fail,<span style='color:red'>Fail,<span style='color:red'>Fail,<span style='color:red'>Fail,<span style='color:green'>Lift,<span style='color:red'>Fail,<span style='color:red'>Fail,<span style='color:green'>Lift","<span style='color:red'>Fail,<span style='color:red'>Fail,<span style='color:green'>Lift,<span style='color:green'>Lift,<span style='color:green'>Lift,<span style='color:green'>Lift,<span style='color:green'>Lift,<span style='color:red'>Fail,<span style='color:green'>Lift,<span style='color:green'>Lift,<span style='color:red'>Fail,<span style='color:green'>Lift","<span style='color:red'>Fail,<span style='color:green'>Lift,<span style='color:green'>Lift,<span style='color:red'>Fail,<span style='color:green'>Lift,<span style='color:green'>Lift","0,0,1,1,0,0,0,0,1,0,0,1","0,0,1,1,1,1,1,0,1,1,0,1","0,1,1,0,1,1",10,20,20,"","","","","{""box1"":""75"",""box2"":""100""}","",1,"round2_ready",2,1,2,NA,NA,NA,NA,NA,NA,NA,NA,NA,NA,NA,NA,NA,NA,75,100,75,100,NA,NA,NA,NA,NA,NA,NA,NA,NA,NA,NA,NA,NA,NA,NA,NA,NA,NA,"",NA,NA,NA,NA,NA,NA,NA,NA,NA,2025-11-20 22:55:06
"28847.399999976158","https://psyc-201.github.io/xiang2023/exp/index1.html?PROLIFIC_PID=REDACTED&STUDY_ID=691f8ca61c6b4dcbb0aeb5f4&SESSION_ID=691f96a48aa11cacb1ca4a55","survey-html-form",10,691269,"0.0-310.0","Sbrev3v6Ohpdw4cxjZE5UoIv4PkQiboIAH8d42eiNQGVUHiLnRAH+kkjzfaLA8unv6ChvKE37s+QG1vHpMgUQ9vpy7g5YWggOMWrt8Lh+LJfiNIG2xyXwsGKIZpJusnJIyRbBkMG1DeVlRZh7b7sfJrPTO9dNIlz5qLlaEPElz/snLtP4M0h/n0UMVcZZJVUKrwhOCFeDUgNsI8eBeTQ3CPWOyV5jX0c63Hhw2HKsnhP4bBzf4n64ih8eRaYA0WGQGi1o08sQmnNLNvzzEMH3evhKOhio2a5FrEfP6rTuhNj03l/U2djeb2lo95vc5giP5bpPXlWfnqJqMshHrinOA==","691f8ca61c6b4dcbb0aeb5f4","691f96a48aa11cacb1ca4a55","index1","<span style='color:red'>Fail,<span style='color:red'>Fail,<span style='color:green'>Lift,<span style='color:green'>Lift,<span style='color:red'>Fail,<span style='color:red'>Fail,<span style='color:red'>Fail,<span style='color:red'>Fail,<span style='color:green'>Lift,<span style='color:red'>Fail,<span style='color:red'>Fail,<span style='color:green'>Lift","<span style='color:red'>Fail,<span style='color:red'>Fail,<span style='color:green'>Lift,<span style='color:green'>Lift,<span style='color:green'>Lift,<span style='color:green'>Lift,<span style='color:green'>Lift,<span style='color:red'>Fail,<span style='color:green'>Lift,<span style='color:green'>Lift,<span style='color:red'>Fail,<span style='color:green'>Lift","<span style='color:red'>Fail,<span style='color:green'>Lift,<span style='color:green'>Lift,<span style='color:red'>Fail,<span style='color:green'>Lift,<span style='color:green'>Lift","0,0,1,1,0,0,0,0,1,0,0,1","0,0,1,1,1,1,1,0,1,1,0,1","0,1,1,0,1,1",10,20,20,"","","","","{""box1"":""2"",""box2"":""10"",""box4"":""50""}","",1,"round2_outcome",3,1,2,2,10,NA,50,0,1,20,NA,NA,NA,NA,NA,NA,NA,NA,NA,NA,NA,2,10,NA,50,0,1,20,NA,NA,NA,NA,NA,NA,NA,NA,NA,NA,NA,"",NA,NA,NA,NA,NA,NA,NA,NA,NA,2025-11-20 22:55:06
"9109.699999988079","https://psyc-201.github.io/xiang2023/exp/index1.html?PROLIFIC_PID=REDACTED&STUDY_ID=691f8ca61c6b4dcbb0aeb5f4&SESSION_ID=691f96a48aa11cacb1ca4a55","survey-html-form",11,700380,"0.0-311.0","Sbrev3v6Ohpdw4cxjZE5UoIv4PkQiboIAH8d42eiNQGVUHiLnRAH+kkjzfaLA8unv6ChvKE37s+QG1vHpMgUQ9vpy7g5YWggOMWrt8Lh+LJfiNIG2xyXwsGKIZpJusnJIyRbBkMG1DeVlRZh7b7sfJrPTO9dNIlz5qLlaEPElz/snLtP4M0h/n0UMVcZZJVUKrwhOCFeDUgNsI8eBeTQ3CPWOyV5jX0c63Hhw2HKsnhP4bBzf4n64ih8eRaYA0WGQGi1o08sQmnNLNvzzEMH3evhKOhio2a5FrEfP6rTuhNj03l/U2djeb2lo95vc5giP5bpPXlWfnqJqMshHrinOA==","691f8ca61c6b4dcbb0aeb5f4","691f96a48aa11cacb1ca4a55","index1","<span style='color:red'>Fail,<span style='color:red'>Fail,<span style='color:green'>Lift,<span style='color:green'>Lift,<span style='color:red'>Fail,<span style='color:red'>Fail,<span style='color:red'>Fail,<span style='color:red'>Fail,<span style='color:green'>Lift,<span style='color:red'>Fail,<span style='color:red'>Fail,<span style='color:green'>Lift","<span style='color:red'>Fail,<span style='color:red'>Fail,<span style='color:green'>Lift,<span style='color:green'>Lift,<span style='color:green'>Lift,<span style='color:green'>Lift,<span style='color:green'>Lift,<span style='color:red'>Fail,<span style='color:green'>Lift,<span style='color:green'>Lift,<span style='color:red'>Fail,<span style='color:green'>Lift","<span style='color:red'>Fail,<span style='color:green'>Lift,<span style='color:green'>Lift,<span style='color:red'>Fail,<span style='color:green'>Lift,<span style='color:green'>Lift","0,0,1,1,0,0,0,0,1,0,0,1","0,0,1,1,1,1,1,0,1,1,0,1","0,1,1,0,1,1",10,20,20,"","","","","{""box1"":""80""}","",1,"round3_ready",4,1,3,NA,NA,NA,NA,NA,NA,NA,NA,NA,NA,NA,NA,NA,NA,80,80,NA,NA,NA,NA,NA,NA,NA,NA,NA,80,80,NA,NA,NA,NA,NA,NA,NA,NA,NA,"",NA,NA,NA,NA,NA,NA,NA,NA,NA,2025-11-20 22:55:06
"62103.39999997616","https://psyc-201.github.io/xiang2023/exp/index1.html?PROLIFIC_PID=REDACTED&STUDY_ID=691f8ca61c6b4dcbb0aeb5f4&SESSION_ID=691f96a48aa11cacb1ca4a55","survey-html-form",12,762486,"0.0-312.0-0.0","Sbrev3v6Ohpdw4cxjZE5UoIv4PkQiboIAH8d42eiNQGVUHiLnRAH+kkjzfaLA8unv6ChvKE37s+QG1vHpMgUQ9vpy7g5YWggOMWrt8Lh+LJfiNIG2xyXwsGKIZpJusnJIyRbBkMG1DeVlRZh7b7sfJrPTO9dNIlz5qLlaEPElz/snLtP4M0h/n0UMVcZZJVUKrwhOCFeDUgNsI8eBeTQ3CPWOyV5jX0c63Hhw2HKsnhP4bBzf4n64ih8eRaYA0WGQGi1o08sQmnNLNvzzEMH3evhKOhio2a5FrEfP6rTuhNj03l/U2djeb2lo95vc5giP5bpPXlWfnqJqMshHrinOA==","691f8ca61c6b4dcbb0aeb5f4","691f96a48aa11cacb1ca4a55","index1","<span style='color:red'>Fail,<span style='color:red'>Fail,<span style='color:green'>Lift,<span style='color:green'>Lift,<span style='color:red'>Fail,<span style='color:red'>Fail,<span style='color:red'>Fail,<span style='color:red'>Fail,<span style='color:green'>Lift,<span style='color:red'>Fail,<span style='color:red'>Fail,<span style='color:green'>Lift","<span style='color:red'>Fail,<span style='color:red'>Fail,<span style='color:green'>Lift,<span style='color:green'>Lift,<span style='color:green'>Lift,<span style='color:green'>Lift,<span style='color:green'>Lift,<span style='color:red'>Fail,<span style='color:green'>Lift,<span style='color:green'>Lift,<span style='color:red'>Fail,<span style='color:green'>Lift","<span style='color:red'>Fail,<span style='color:green'>Lift,<span style='color:green'>Lift,<span style='color:red'>Fail,<span style='color:green'>Lift,<span style='color:green'>Lift","0,0,1,1,0,0,0,0,1,0,0,1","0,0,1,1,1,1,1,0,1,1,0,1","0,1,1,0,1,1",10,20,20,"","","","","{""box1"":""3"",""box2"":""10"",""box3"":""70"",""box4"":""50""}","",2,"round3_lift",5,1,3,3,10,70,50,1,1,20,NA,NA,NA,NA,NA,NA,NA,NA,NA,NA,NA,NA,NA,NA,NA,NA,NA,NA,NA,NA,3,10,70,50,1,1,20,NA,NA,"",NA,NA,NA,NA,NA,NA,NA,NA,NA,2025-11-20 22:55:06
"null","https://psyc-201.github.io/xiang2023/exp/index1.html?PROLIFIC_PID=REDACTED&STUDY_ID=691f8ca61c6b4dcbb0aeb5f4&SESSION_ID=691f96a48aa11cacb1ca4a55","html-keyboard-response",13,765507,"0.0-316.0","Sbrev3v6Ohpdw4cxjZE5UoIv4PkQiboIAH8d42eiNQGVUHiLnRAH+kkjzfaLA8unv6ChvKE37s+QG1vHpMgUQ9vpy7g5YWggOMWrt8Lh+LJfiNIG2xyXwsGKIZpJusnJIyRbBkMG1DeVlRZh7b7sfJrPTO9dNIlz5qLlaEPElz/snLtP4M0h/n0UMVcZZJVUKrwhOCFeDUgNsI8eBeTQ3CPWOyV5jX0c63Hhw2HKsnhP4bBzf4n64ih8eRaYA0WGQGi1o08sQmnNLNvzzEMH3evhKOhio2a5FrEfP6rTuhNj03l/U2djeb2lo95vc5giP5bpPXlWfnqJqMshHrinOA==","691f8ca61c6b4dcbb0aeb5f4","691f96a48aa11cacb1ca4a55","index1","<span style='color:red'>Fail,<span style='color:red'>Fail,<span style='color:green'>Lift,<span style='color:green'>Lift,<span style='color:red'>Fail,<span style='color:red'>Fail,<span style='color:red'>Fail,<span style='color:red'>Fail,<span style='color:green'>Lift,<span style='color:red'>Fail,<span style='color:red'>Fail,<span style='color:green'>Lift","<span style='color:red'>Fail,<span style='color:red'>Fail,<span style='color:green'>Lift,<span style='color:green'>Lift,<span style='color:green'>Lift,<span style='color:green'>Lift,<span style='color:green'>Lift,<span style='color:red'>Fail,<span style='color:green'>Lift,<span style='color:green'>Lift,<span style='color:red'>Fail,<span style='color:green'>Lift","<span style='color:red'>Fail,<span style='color:green'>Lift,<span style='color:green'>Lift,<span style='color:red'>Fail,<span style='color:green'>Lift,<span style='color:green'>Lift","0,0,1,1,0,0,0,0,1,0,0,1","0,0,1,1,1,1,1,0,1,1,0,1","0,1,1,0,1,1",10,20,20,"","","<p style='font-size:30px'><b> New Contest! </b></p>","null","","",2,"",NA,NA,NA,NA,NA,NA,NA,NA,NA,NA,NA,NA,NA,NA,NA,NA,NA,NA,NA,NA,NA,NA,NA,NA,NA,NA,NA,NA,NA,NA,NA,NA,NA,NA,NA,NA,NA,NA,NA,"",NA,NA,NA,NA,NA,NA,NA,NA,NA,2025-11-20 22:55:06
"23240.59999999404","https://psyc-201.github.io/xiang2023/exp/index1.html?PROLIFIC_PID=REDACTED&STUDY_ID=691f8ca61c6b4dcbb0aeb5f4&SESSION_ID=691f96a48aa11cacb1ca4a55","survey-html-form",14,788749,"0.0-317.0","Sbrev3v6Ohpdw4cxjZE5UoIv4PkQiboIAH8d42eiNQGVUHiLnRAH+kkjzfaLA8unv6ChvKE37s+QG1vHpMgUQ9vpy7g5YWggOMWrt8Lh+LJfiNIG2xyXwsGKIZpJusnJIyRbBkMG1DeVlRZh7b7sfJrPTO9dNIlz5qLlaEPElz/snLtP4M0h/n0UMVcZZJVUKrwhOCFeDUgNsI8eBeTQ3CPWOyV5jX0c63Hhw2HKsnhP4bBzf4n64ih8eRaYA0WGQGi1o08sQmnNLNvzzEMH3evhKOhio2a5FrEfP6rTuhNj03l/U2djeb2lo95vc5giP5bpPXlWfnqJqMshHrinOA==","691f8ca61c6b4dcbb0aeb5f4","691f96a48aa11cacb1ca4a55","index1","<span style='color:red'>Fail,<span style='color:red'>Fail,<span style='color:green'>Lift,<span style='color:green'>Lift,<span style='color:red'>Fail,<span style='color:red'>Fail,<span style='color:red'>Fail,<span style='color:red'>Fail,<span style='color:green'>Lift,<span style='color:red'>Fail,<span style='color:red'>Fail,<span style='color:green'>Lift","<span style='color:red'>Fail,<span style='color:red'>Fail,<span style='color:green'>Lift,<span style='color:green'>Lift,<span style='color:green'>Lift,<span style='color:green'>Lift,<span style='color:green'>Lift,<span style='color:red'>Fail,<span style='color:green'>Lift,<span style='color:green'>Lift,<span style='color:red'>Fail,<span style='color:green'>Lift","<span style='color:red'>Fail,<span style='color:green'>Lift,<span style='color:green'>Lift,<span style='color:red'>Fail,<span style='color:green'>Lift,<span style='color:green'>Lift","0,0,1,1,0,0,0,0,1,0,0,1","0,0,1,1,1,1,1,0,1,1,0,1","0,1,1,0,1,1",10,20,20,"","","","","{""box1"":""4"",""box2"":""5""}","",2,"round1_outcome",1,2,1,4,5,NA,NA,0,0,10,4,5,NA,NA,0,0,10,NA,NA,NA,NA,NA,NA,NA,NA,NA,NA,NA,NA,NA,NA,NA,NA,NA,NA,NA,NA,NA,NA,"",NA,NA,NA,NA,NA,NA,NA,NA,NA,2025-11-20 22:55:06
"16710.29999998212","https://psyc-201.github.io/xiang2023/exp/index1.html?PROLIFIC_PID=REDACTED&STUDY_ID=691f8ca61c6b4dcbb0aeb5f4&SESSION_ID=691f96a48aa11cacb1ca4a55","survey-html-form",15,805460,"0.0-318.0","Sbrev3v6Ohpdw4cxjZE5UoIv4PkQiboIAH8d42eiNQGVUHiLnRAH+kkjzfaLA8unv6ChvKE37s+QG1vHpMgUQ9vpy7g5YWggOMWrt8Lh+LJfiNIG2xyXwsGKIZpJusnJIyRbBkMG1DeVlRZh7b7sfJrPTO9dNIlz5qLlaEPElz/snLtP4M0h/n0UMVcZZJVUKrwhOCFeDUgNsI8eBeTQ3CPWOyV5jX0c63Hhw2HKsnhP4bBzf4n64ih8eRaYA0WGQGi1o08sQmnNLNvzzEMH3evhKOhio2a5FrEfP6rTuhNj03l/U2djeb2lo95vc5giP5bpPXlWfnqJqMshHrinOA==","691f8ca61c6b4dcbb0aeb5f4","691f96a48aa11cacb1ca4a55","index1","<span style='color:red'>Fail,<span style='color:red'>Fail,<span style='color:green'>Lift,<span style='color:green'>Lift,<span style='color:red'>Fail,<span style='color:red'>Fail,<span style='color:red'>Fail,<span style='color:red'>Fail,<span style='color:green'>Lift,<span style='color:red'>Fail,<span style='color:red'>Fail,<span style='color:green'>Lift","<span style='color:red'>Fail,<span style='color:red'>Fail,<span style='color:green'>Lift,<span style='color:green'>Lift,<span style='color:green'>Lift,<span style='color:green'>Lift,<span style='color:green'>Lift,<span style='color:red'>Fail,<span style='color:green'>Lift,<span style='color:green'>Lift,<span style='color:red'>Fail,<span style='color:green'>Lift","<span style='color:red'>Fail,<span style='color:green'>Lift,<span style='color:green'>Lift,<span style='color:red'>Fail,<span style='color:green'>Lift,<span style='color:green'>Lift","0,0,1,1,0,0,0,0,1,0,0,1","0,0,1,1,1,1,1,0,1,1,0,1","0,1,1,0,1,1",10,20,20,"","","","","{""box1"":""40"",""box2"":""60""}","",2,"round2_ready",2,2,2,NA,NA,NA,NA,NA,NA,NA,NA,NA,NA,NA,NA,NA,NA,40,60,40,60,NA,NA,NA,NA,NA,NA,NA,NA,NA,NA,NA,NA,NA,NA,NA,NA,NA,NA,"",NA,NA,NA,NA,NA,NA,NA,NA,NA,2025-11-20 22:55:06
"24959.5","https://psyc-201.github.io/xiang2023/exp/index1.html?PROLIFIC_PID=REDACTED&STUDY_ID=691f8ca61c6b4dcbb0aeb5f4&SESSION_ID=691f96a48aa11cacb1ca4a55","survey-html-form",16,830421,"0.0-319.0","Sbrev3v6Ohpdw4cxjZE5UoIv4PkQiboIAH8d42eiNQGVUHiLnRAH+kkjzfaLA8unv6ChvKE37s+QG1vHpMgUQ9vpy7g5YWggOMWrt8Lh+LJfiNIG2xyXwsGKIZpJusnJIyRbBkMG1DeVlRZh7b7sfJrPTO9dNIlz5qLlaEPElz/snLtP4M0h/n0UMVcZZJVUKrwhOCFeDUgNsI8eBeTQ3CPWOyV5jX0c63Hhw2HKsnhP4bBzf4n64ih8eRaYA0WGQGi1o08sQmnNLNvzzEMH3evhKOhio2a5FrEfP6rTuhNj03l/U2djeb2lo95vc5giP5bpPXlWfnqJqMshHrinOA==","691f8ca61c6b4dcbb0aeb5f4","691f96a48aa11cacb1ca4a55","index1","<span style='color:red'>Fail,<span style='color:red'>Fail,<span style='color:green'>Lift,<span style='color:green'>Lift,<span style='color:red'>Fail,<span style='color:red'>Fail,<span style='color:red'>Fail,<span style='color:red'>Fail,<span style='color:green'>Lift,<span style='color:red'>Fail,<span style='color:red'>Fail,<span style='color:green'>Lift","<span style='color:red'>Fail,<span style='color:red'>Fail,<span style='color:green'>Lift,<span style='color:green'>Lift,<span style='color:green'>Lift,<span style='color:green'>Lift,<span style='color:green'>Lift,<span style='color:red'>Fail,<span style='color:green'>Lift,<span style='color:green'>Lift,<span style='color:red'>Fail,<span style='color:green'>Lift","<span style='color:red'>Fail,<span style='color:green'>Lift,<span style='color:green'>Lift,<span style='color:red'>Fail,<span style='color:green'>Lift,<span style='color:green'>Lift","0,0,1,1,0,0,0,0,1,0,0,1","0,0,1,1,1,1,1,0,1,1,0,1","0,1,1,0,1,1",10,20,20,"","","","","{""box1"":""5"",""box2"":""5"",""box3"":""100"",""box4"":""100""}","",2,"round2_outcome",3,2,2,5,5,100,100,1,1,20,NA,NA,NA,NA,NA,NA,NA,NA,NA,NA,NA,5,5,100,100,1,1,20,NA,NA,NA,NA,NA,NA,NA,NA,NA,NA,NA,"",NA,NA,NA,NA,NA,NA,NA,NA,NA,2025-11-20 22:55:06
"6429.9000000059605","https://psyc-201.github.io/xiang2023/exp/index1.html?PROLIFIC_PID=REDACTED&STUDY_ID=691f8ca61c6b4dcbb0aeb5f4&SESSION_ID=691f96a48aa11cacb1ca4a55","survey-html-form",17,836853,"0.0-320.0","Sbrev3v6Ohpdw4cxjZE5UoIv4PkQiboIAH8d42eiNQGVUHiLnRAH+kkjzfaLA8unv6ChvKE37s+QG1vHpMgUQ9vpy7g5YWggOMWrt8Lh+LJfiNIG2xyXwsGKIZpJusnJIyRbBkMG1DeVlRZh7b7sfJrPTO9dNIlz5qLlaEPElz/snLtP4M0h/n0UMVcZZJVUKrwhOCFeDUgNsI8eBeTQ3CPWOyV5jX0c63Hhw2HKsnhP4bBzf4n64ih8eRaYA0WGQGi1o08sQmnNLNvzzEMH3evhKOhio2a5FrEfP6rTuhNj03l/U2djeb2lo95vc5giP5bpPXlWfnqJqMshHrinOA==","691f8ca61c6b4dcbb0aeb5f4","691f96a48aa11cacb1ca4a55","index1","<span style='color:red'>Fail,<span style='color:red'>Fail,<span style='color:green'>Lift,<span style='color:green'>Lift,<span style='color:red'>Fail,<span style='color:red'>Fail,<span style='color:red'>Fail,<span style='color:red'>Fail,<span style='color:green'>Lift,<span style='color:red'>Fail,<span style='color:red'>Fail,<span style='color:green'>Lift","<span style='color:red'>Fail,<span style='color:red'>Fail,<span style='color:green'>Lift,<span style='color:green'>Lift,<span style='color:green'>Lift,<span style='color:green'>Lift,<span style='color:green'>Lift,<span style='color:red'>Fail,<span style='color:green'>Lift,<span style='color:green'>Lift,<span style='color:red'>Fail,<span style='color:green'>Lift","<span style='color:red'>Fail,<span style='color:green'>Lift,<span style='color:green'>Lift,<span style='color:red'>Fail,<span style='color:green'>Lift,<span style='color:green'>Lift","0,0,1,1,0,0,0,0,1,0,0,1","0,0,1,1,1,1,1,0,1,1,0,1","0,1,1,0,1,1",10,20,20,"","","","","{""box1"":""100""}","",2,"round3_ready",4,2,3,NA,NA,NA,NA,NA,NA,NA,NA,NA,NA,NA,NA,NA,NA,100,100,NA,NA,NA,NA,NA,NA,NA,NA,NA,100,100,NA,NA,NA,NA,NA,NA,NA,NA,NA,"",NA,NA,NA,NA,NA,NA,NA,NA,NA,2025-11-20 22:55:06
"50759.29999998212","https://psyc-201.github.io/xiang2023/exp/index1.html?PROLIFIC_PID=REDACTED&STUDY_ID=691f8ca61c6b4dcbb0aeb5f4&SESSION_ID=691f96a48aa11cacb1ca4a55","survey-html-form",18,887614,"0.0-321.0-0.0","Sbrev3v6Ohpdw4cxjZE5UoIv4PkQiboIAH8d42eiNQGVUHiLnRAH+kkjzfaLA8unv6ChvKE37s+QG1vHpMgUQ9vpy7g5YWggOMWrt8Lh+LJfiNIG2xyXwsGKIZpJusnJIyRbBkMG1DeVlRZh7b7sfJrPTO9dNIlz5qLlaEPElz/snLtP4M0h/n0UMVcZZJVUKrwhOCFeDUgNsI8eBeTQ3CPWOyV5jX0c63Hhw2HKsnhP4bBzf4n64ih8eRaYA0WGQGi1o08sQmnNLNvzzEMH3evhKOhio2a5FrEfP6rTuhNj03l/U2djeb2lo95vc5giP5bpPXlWfnqJqMshHrinOA==","691f8ca61c6b4dcbb0aeb5f4","691f96a48aa11cacb1ca4a55","index1","<span style='color:red'>Fail,<span style='color:red'>Fail,<span style='color:green'>Lift,<span style='color:green'>Lift,<span style='color:red'>Fail,<span style='color:red'>Fail,<span style='color:red'>Fail,<span style='color:red'>Fail,<span style='color:green'>Lift,<span style='color:red'>Fail,<span style='color:red'>Fail,<span style='color:green'>Lift","<span style='color:red'>Fail,<span style='color:red'>Fail,<span style='color:green'>Lift,<span style='color:green'>Lift,<span style='color:green'>Lift,<span style='color:green'>Lift,<span style='color:green'>Lift,<span style='color:red'>Fail,<span style='color:green'>Lift,<span style='color:green'>Lift,<span style='color:red'>Fail,<span style='color:green'>Lift","<span style='color:red'>Fail,<span style='color:green'>Lift,<span style='color:green'>Lift,<span style='color:red'>Fail,<span style='color:green'>Lift,<span style='color:green'>Lift","0,0,1,1,0,0,0,0,1,0,0,1","0,0,1,1,1,1,1,0,1,1,0,1","0,1,1,0,1,1",10,20,20,"","","","","{""box1"":""5"",""box2"":""5"",""box3"":""90"",""box4"":""90""}","",3,"round3_lift",5,2,3,5,5,90,90,1,1,20,NA,NA,NA,NA,NA,NA,NA,NA,NA,NA,NA,NA,NA,NA,NA,NA,NA,NA,NA,NA,5,5,90,90,1,1,20,NA,NA,"",NA,NA,NA,NA,NA,NA,NA,NA,NA,2025-11-20 22:55:06
"null","https://psyc-201.github.io/xiang2023/exp/index1.html?PROLIFIC_PID=REDACTED&STUDY_ID=691f8ca61c6b4dcbb0aeb5f4&SESSION_ID=691f96a48aa11cacb1ca4a55","html-keyboard-response",19,890627,"0.0-325.0","Sbrev3v6Ohpdw4cxjZE5UoIv4PkQiboIAH8d42eiNQGVUHiLnRAH+kkjzfaLA8unv6ChvKE37s+QG1vHpMgUQ9vpy7g5YWggOMWrt8Lh+LJfiNIG2xyXwsGKIZpJusnJIyRbBkMG1DeVlRZh7b7sfJrPTO9dNIlz5qLlaEPElz/snLtP4M0h/n0UMVcZZJVUKrwhOCFeDUgNsI8eBeTQ3CPWOyV5jX0c63Hhw2HKsnhP4bBzf4n64ih8eRaYA0WGQGi1o08sQmnNLNvzzEMH3evhKOhio2a5FrEfP6rTuhNj03l/U2djeb2lo95vc5giP5bpPXlWfnqJqMshHrinOA==","691f8ca61c6b4dcbb0aeb5f4","691f96a48aa11cacb1ca4a55","index1","<span style='color:red'>Fail,<span style='color:red'>Fail,<span style='color:green'>Lift,<span style='color:green'>Lift,<span style='color:red'>Fail,<span style='color:red'>Fail,<span style='color:red'>Fail,<span style='color:red'>Fail,<span style='color:green'>Lift,<span style='color:red'>Fail,<span style='color:red'>Fail,<span style='color:green'>Lift","<span style='color:red'>Fail,<span style='color:red'>Fail,<span style='color:green'>Lift,<span style='color:green'>Lift,<span style='color:green'>Lift,<span style='color:green'>Lift,<span style='color:green'>Lift,<span style='color:red'>Fail,<span style='color:green'>Lift,<span style='color:green'>Lift,<span style='color:red'>Fail,<span style='color:green'>Lift","<span style='color:red'>Fail,<span style='color:green'>Lift,<span style='color:green'>Lift,<span style='color:red'>Fail,<span style='color:green'>Lift,<span style='color:green'>Lift","0,0,1,1,0,0,0,0,1,0,0,1","0,0,1,1,1,1,1,0,1,1,0,1","0,1,1,0,1,1",10,20,20,"","","<p style='font-size:30px'><b> New Contest! </b></p>","null","","",3,"",NA,NA,NA,NA,NA,NA,NA,NA,NA,NA,NA,NA,NA,NA,NA,NA,NA,NA,NA,NA,NA,NA,NA,NA,NA,NA,NA,NA,NA,NA,NA,NA,NA,NA,NA,NA,NA,NA,NA,"",NA,NA,NA,NA,NA,NA,NA,NA,NA,2025-11-20 22:55:06
"31272.79999998212","https://psyc-201.github.io/xiang2023/exp/index1.html?PROLIFIC_PID=REDACTED&STUDY_ID=691f8ca61c6b4dcbb0aeb5f4&SESSION_ID=691f96a48aa11cacb1ca4a55","survey-html-form",20,921902,"0.0-326.0","Sbrev3v6Ohpdw4cxjZE5UoIv4PkQiboIAH8d42eiNQGVUHiLnRAH+kkjzfaLA8unv6ChvKE37s+QG1vHpMgUQ9vpy7g5YWggOMWrt8Lh+LJfiNIG2xyXwsGKIZpJusnJIyRbBkMG1DeVlRZh7b7sfJrPTO9dNIlz5qLlaEPElz/snLtP4M0h/n0UMVcZZJVUKrwhOCFeDUgNsI8eBeTQ3CPWOyV5jX0c63Hhw2HKsnhP4bBzf4n64ih8eRaYA0WGQGi1o08sQmnNLNvzzEMH3evhKOhio2a5FrEfP6rTuhNj03l/U2djeb2lo95vc5giP5bpPXlWfnqJqMshHrinOA==","691f8ca61c6b4dcbb0aeb5f4","691f96a48aa11cacb1ca4a55","index1","<span style='color:red'>Fail,<span style='color:red'>Fail,<span style='color:green'>Lift,<span style='color:green'>Lift,<span style='color:red'>Fail,<span style='color:red'>Fail,<span style='color:red'>Fail,<span style='color:red'>Fail,<span style='color:green'>Lift,<span style='color:red'>Fail,<span style='color:red'>Fail,<span style='color:green'>Lift","<span style='color:red'>Fail,<span style='color:red'>Fail,<span style='color:green'>Lift,<span style='color:green'>Lift,<span style='color:green'>Lift,<span style='color:green'>Lift,<span style='color:green'>Lift,<span style='color:red'>Fail,<span style='color:green'>Lift,<span style='color:green'>Lift,<span style='color:red'>Fail,<span style='color:green'>Lift","<span style='color:red'>Fail,<span style='color:green'>Lift,<span style='color:green'>Lift,<span style='color:red'>Fail,<span style='color:green'>Lift,<span style='color:green'>Lift","0,0,1,1,0,0,0,0,1,0,0,1","0,0,1,1,1,1,1,0,1,1,0,1","0,1,1,0,1,1",10,20,20,"","","","","{""box1"":""6"",""box2"":""8"",""box3"":""100"",""box4"":""50""}","",3,"round1_outcome",1,3,1,6,8,100,50,1,1,10,6,8,100,50,1,1,10,NA,NA,NA,NA,NA,NA,NA,NA,NA,NA,NA,NA,NA,NA,NA,NA,NA,NA,NA,NA,NA,NA,"",NA,NA,NA,NA,NA,NA,NA,NA,NA,2025-11-20 22:55:06
"10494.5","https://psyc-201.github.io/xiang2023/exp/index1.html?PROLIFIC_PID=REDACTED&STUDY_ID=691f8ca61c6b4dcbb0aeb5f4&SESSION_ID=691f96a48aa11cacb1ca4a55","survey-html-form",21,932398,"0.0-327.0","Sbrev3v6Ohpdw4cxjZE5UoIv4PkQiboIAH8d42eiNQGVUHiLnRAH+kkjzfaLA8unv6ChvKE37s+QG1vHpMgUQ9vpy7g5YWggOMWrt8Lh+LJfiNIG2xyXwsGKIZpJusnJIyRbBkMG1DeVlRZh7b7sfJrPTO9dNIlz5qLlaEPElz/snLtP4M0h/n0UMVcZZJVUKrwhOCFeDUgNsI8eBeTQ3CPWOyV5jX0c63Hhw2HKsnhP4bBzf4n64ih8eRaYA0WGQGi1o08sQmnNLNvzzEMH3evhKOhio2a5FrEfP6rTuhNj03l/U2djeb2lo95vc5giP5bpPXlWfnqJqMshHrinOA==","691f8ca61c6b4dcbb0aeb5f4","691f96a48aa11cacb1ca4a55","index1","<span style='color:red'>Fail,<span style='color:red'>Fail,<span style='color:green'>Lift,<span style='color:green'>Lift,<span style='color:red'>Fail,<span style='color:red'>Fail,<span style='color:red'>Fail,<span style='color:red'>Fail,<span style='color:green'>Lift,<span style='color:red'>Fail,<span style='color:red'>Fail,<span style='color:green'>Lift","<span style='color:red'>Fail,<span style='color:red'>Fail,<span style='color:green'>Lift,<span style='color:green'>Lift,<span style='color:green'>Lift,<span style='color:green'>Lift,<span style='color:green'>Lift,<span style='color:red'>Fail,<span style='color:green'>Lift,<span style='color:green'>Lift,<span style='color:red'>Fail,<span style='color:green'>Lift","<span style='color:red'>Fail,<span style='color:green'>Lift,<span style='color:green'>Lift,<span style='color:red'>Fail,<span style='color:green'>Lift,<span style='color:green'>Lift","0,0,1,1,0,0,0,0,1,0,0,1","0,0,1,1,1,1,1,0,1,1,0,1","0,1,1,0,1,1",10,20,20,"","","","","{""box1"":""100"",""box2"":""100""}","",3,"round2_ready",2,3,2,NA,NA,NA,NA,NA,NA,NA,NA,NA,NA,NA,NA,NA,NA,100,100,100,100,NA,NA,NA,NA,NA,NA,NA,NA,NA,NA,NA,NA,NA,NA,NA,NA,NA,NA,"",NA,NA,NA,NA,NA,NA,NA,NA,NA,2025-11-20 22:55:06
"34222.69999998808","https://psyc-201.github.io/xiang2023/exp/index1.html?PROLIFIC_PID=REDACTED&STUDY_ID=691f8ca61c6b4dcbb0aeb5f4&SESSION_ID=691f96a48aa11cacb1ca4a55","survey-html-form",22,966622,"0.0-328.0","Sbrev3v6Ohpdw4cxjZE5UoIv4PkQiboIAH8d42eiNQGVUHiLnRAH+kkjzfaLA8unv6ChvKE37s+QG1vHpMgUQ9vpy7g5YWggOMWrt8Lh+LJfiNIG2xyXwsGKIZpJusnJIyRbBkMG1DeVlRZh7b7sfJrPTO9dNIlz5qLlaEPElz/snLtP4M0h/n0UMVcZZJVUKrwhOCFeDUgNsI8eBeTQ3CPWOyV5jX0c63Hhw2HKsnhP4bBzf4n64ih8eRaYA0WGQGi1o08sQmnNLNvzzEMH3evhKOhio2a5FrEfP6rTuhNj03l/U2djeb2lo95vc5giP5bpPXlWfnqJqMshHrinOA==","691f8ca61c6b4dcbb0aeb5f4","691f96a48aa11cacb1ca4a55","index1","<span style='color:red'>Fail,<span style='color:red'>Fail,<span style='color:green'>Lift,<span style='color:green'>Lift,<span style='color:red'>Fail,<span style='color:red'>Fail,<span style='color:red'>Fail,<span style='color:red'>Fail,<span style='color:green'>Lift,<span style='color:red'>Fail,<span style='color:red'>Fail,<span style='color:green'>Lift","<span style='color:red'>Fail,<span style='color:red'>Fail,<span style='color:green'>Lift,<span style='color:green'>Lift,<span style='color:green'>Lift,<span style='color:green'>Lift,<span style='color:green'>Lift,<span style='color:red'>Fail,<span style='color:green'>Lift,<span style='color:green'>Lift,<span style='color:red'>Fail,<span style='color:green'>Lift","<span style='color:red'>Fail,<span style='color:green'>Lift,<span style='color:green'>Lift,<span style='color:red'>Fail,<span style='color:green'>Lift,<span style='color:green'>Lift","0,0,1,1,0,0,0,0,1,0,0,1","0,0,1,1,1,1,1,0,1,1,0,1","0,1,1,0,1,1",10,20,20,"","","","","{""box1"":""7"",""box2"":""8"",""box3"":""60"",""box4"":""50""}","",3,"round2_outcome",3,3,2,7,8,60,50,1,1,20,NA,NA,NA,NA,NA,NA,NA,NA,NA,NA,NA,7,8,60,50,1,1,20,NA,NA,NA,NA,NA,NA,NA,NA,NA,NA,NA,"",NA,NA,NA,NA,NA,NA,NA,NA,NA,2025-11-20 22:55:06
"5054.800000011921","https://psyc-201.github.io/xiang2023/exp/index1.html?PROLIFIC_PID=REDACTED&STUDY_ID=691f8ca61c6b4dcbb0aeb5f4&SESSION_ID=691f96a48aa11cacb1ca4a55","survey-html-form",23,971678,"0.0-329.0","Sbrev3v6Ohpdw4cxjZE5UoIv4PkQiboIAH8d42eiNQGVUHiLnRAH+kkjzfaLA8unv6ChvKE37s+QG1vHpMgUQ9vpy7g5YWggOMWrt8Lh+LJfiNIG2xyXwsGKIZpJusnJIyRbBkMG1DeVlRZh7b7sfJrPTO9dNIlz5qLlaEPElz/snLtP4M0h/n0UMVcZZJVUKrwhOCFeDUgNsI8eBeTQ3CPWOyV5jX0c63Hhw2HKsnhP4bBzf4n64ih8eRaYA0WGQGi1o08sQmnNLNvzzEMH3evhKOhio2a5FrEfP6rTuhNj03l/U2djeb2lo95vc5giP5bpPXlWfnqJqMshHrinOA==","691f8ca61c6b4dcbb0aeb5f4","691f96a48aa11cacb1ca4a55","index1","<span style='color:red'>Fail,<span style='color:red'>Fail,<span style='color:green'>Lift,<span style='color:green'>Lift,<span style='color:red'>Fail,<span style='color:red'>Fail,<span style='color:red'>Fail,<span style='color:red'>Fail,<span style='color:green'>Lift,<span style='color:red'>Fail,<span style='color:red'>Fail,<span style='color:green'>Lift","<span style='color:red'>Fail,<span style='color:red'>Fail,<span style='color:green'>Lift,<span style='color:green'>Lift,<span style='color:green'>Lift,<span style='color:green'>Lift,<span style='color:green'>Lift,<span style='color:red'>Fail,<span style='color:green'>Lift,<span style='color:green'>Lift,<span style='color:red'>Fail,<span style='color:green'>Lift","<span style='color:red'>Fail,<span style='color:green'>Lift,<span style='color:green'>Lift,<span style='color:red'>Fail,<span style='color:green'>Lift,<span style='color:green'>Lift","0,0,1,1,0,0,0,0,1,0,0,1","0,0,1,1,1,1,1,0,1,1,0,1","0,1,1,0,1,1",10,20,20,"","","","","{""box1"":""100""}","",3,"round3_ready",4,3,3,NA,NA,NA,NA,NA,NA,NA,NA,NA,NA,NA,NA,NA,NA,100,100,NA,NA,NA,NA,NA,NA,NA,NA,NA,100,100,NA,NA,NA,NA,NA,NA,NA,NA,NA,"",NA,NA,NA,NA,NA,NA,NA,NA,NA,2025-11-20 22:55:06
"17517.79999998212","https://psyc-201.github.io/xiang2023/exp/index1.html?PROLIFIC_PID=REDACTED&STUDY_ID=691f8ca61c6b4dcbb0aeb5f4&SESSION_ID=691f96a48aa11cacb1ca4a55","survey-html-form",24,989198,"0.0-330.0-0.0","Sbrev3v6Ohpdw4cxjZE5UoIv4PkQiboIAH8d42eiNQGVUHiLnRAH+kkjzfaLA8unv6ChvKE37s+QG1vHpMgUQ9vpy7g5YWggOMWrt8Lh+LJfiNIG2xyXwsGKIZpJusnJIyRbBkMG1DeVlRZh7b7sfJrPTO9dNIlz5qLlaEPElz/snLtP4M0h/n0UMVcZZJVUKrwhOCFeDUgNsI8eBeTQ3CPWOyV5jX0c63Hhw2HKsnhP4bBzf4n64ih8eRaYA0WGQGi1o08sQmnNLNvzzEMH3evhKOhio2a5FrEfP6rTuhNj03l/U2djeb2lo95vc5giP5bpPXlWfnqJqMshHrinOA==","691f8ca61c6b4dcbb0aeb5f4","691f96a48aa11cacb1ca4a55","index1","<span style='color:red'>Fail,<span style='color:red'>Fail,<span style='color:green'>Lift,<span style='color:green'>Lift,<span style='color:red'>Fail,<span style='color:red'>Fail,<span style='color:red'>Fail,<span style='color:red'>Fail,<span style='color:green'>Lift,<span style='color:red'>Fail,<span style='color:red'>Fail,<span style='color:green'>Lift","<span style='color:red'>Fail,<span style='color:red'>Fail,<span style='color:green'>Lift,<span style='color:green'>Lift,<span style='color:green'>Lift,<span style='color:green'>Lift,<span style='color:green'>Lift,<span style='color:red'>Fail,<span style='color:green'>Lift,<span style='color:green'>Lift,<span style='color:red'>Fail,<span style='color:green'>Lift","<span style='color:red'>Fail,<span style='color:green'>Lift,<span style='color:green'>Lift,<span style='color:red'>Fail,<span style='color:green'>Lift,<span style='color:green'>Lift","0,0,1,1,0,0,0,0,1,0,0,1","0,0,1,1,1,1,1,0,1,1,0,1","0,1,1,0,1,1",10,20,20,"","","","","{""box1"":""8"",""box2"":""8"",""box3"":""40"",""box4"":""40""}","",4,"round3_lift",5,3,3,8,8,40,40,1,1,20,NA,NA,NA,NA,NA,NA,NA,NA,NA,NA,NA,NA,NA,NA,NA,NA,NA,NA,NA,NA,8,8,40,40,1,1,20,NA,NA,"",NA,NA,NA,NA,NA,NA,NA,NA,NA,2025-11-20 22:55:06
"null","https://psyc-201.github.io/xiang2023/exp/index1.html?PROLIFIC_PID=REDACTED&STUDY_ID=691f8ca61c6b4dcbb0aeb5f4&SESSION_ID=691f96a48aa11cacb1ca4a55","html-keyboard-response",25,992199,"0.0-334.0","Sbrev3v6Ohpdw4cxjZE5UoIv4PkQiboIAH8d42eiNQGVUHiLnRAH+kkjzfaLA8unv6ChvKE37s+QG1vHpMgUQ9vpy7g5YWggOMWrt8Lh+LJfiNIG2xyXwsGKIZpJusnJIyRbBkMG1DeVlRZh7b7sfJrPTO9dNIlz5qLlaEPElz/snLtP4M0h/n0UMVcZZJVUKrwhOCFeDUgNsI8eBeTQ3CPWOyV5jX0c63Hhw2HKsnhP4bBzf4n64ih8eRaYA0WGQGi1o08sQmnNLNvzzEMH3evhKOhio2a5FrEfP6rTuhNj03l/U2djeb2lo95vc5giP5bpPXlWfnqJqMshHrinOA==","691f8ca61c6b4dcbb0aeb5f4","691f96a48aa11cacb1ca4a55","index1","<span style='color:red'>Fail,<span style='color:red'>Fail,<span style='color:green'>Lift,<span style='color:green'>Lift,<span style='color:red'>Fail,<span style='color:red'>Fail,<span style='color:red'>Fail,<span style='color:red'>Fail,<span style='color:green'>Lift,<span style='color:red'>Fail,<span style='color:red'>Fail,<span style='color:green'>Lift","<span style='color:red'>Fail,<span style='color:red'>Fail,<span style='color:green'>Lift,<span style='color:green'>Lift,<span style='color:green'>Lift,<span style='color:green'>Lift,<span style='color:green'>Lift,<span style='color:red'>Fail,<span style='color:green'>Lift,<span style='color:green'>Lift,<span style='color:red'>Fail,<span style='color:green'>Lift","<span style='color:red'>Fail,<span style='color:green'>Lift,<span style='color:green'>Lift,<span style='color:red'>Fail,<span style='color:green'>Lift,<span style='color:green'>Lift","0,0,1,1,0,0,0,0,1,0,0,1","0,0,1,1,1,1,1,0,1,1,0,1","0,1,1,0,1,1",10,20,20,"","","<p style='font-size:30px'><b> New Contest! </b></p>","null","","",4,"",NA,NA,NA,NA,NA,NA,NA,NA,NA,NA,NA,NA,NA,NA,NA,NA,NA,NA,NA,NA,NA,NA,NA,NA,NA,NA,NA,NA,NA,NA,NA,NA,NA,NA,NA,NA,NA,NA,NA,"",NA,NA,NA,NA,NA,NA,NA,NA,NA,2025-11-20 22:55:06
"14229","https://psyc-201.github.io/xiang2023/exp/index1.html?PROLIFIC_PID=REDACTED&STUDY_ID=691f8ca61c6b4dcbb0aeb5f4&SESSION_ID=691f96a48aa11cacb1ca4a55","survey-html-form",26,1006430,"0.0-335.0","Sbrev3v6Ohpdw4cxjZE5UoIv4PkQiboIAH8d42eiNQGVUHiLnRAH+kkjzfaLA8unv6ChvKE37s+QG1vHpMgUQ9vpy7g5YWggOMWrt8Lh+LJfiNIG2xyXwsGKIZpJusnJIyRbBkMG1DeVlRZh7b7sfJrPTO9dNIlz5qLlaEPElz/snLtP4M0h/n0UMVcZZJVUKrwhOCFeDUgNsI8eBeTQ3CPWOyV5jX0c63Hhw2HKsnhP4bBzf4n64ih8eRaYA0WGQGi1o08sQmnNLNvzzEMH3evhKOhio2a5FrEfP6rTuhNj03l/U2djeb2lo95vc5giP5bpPXlWfnqJqMshHrinOA==","691f8ca61c6b4dcbb0aeb5f4","691f96a48aa11cacb1ca4a55","index1","<span style='color:red'>Fail,<span style='color:red'>Fail,<span style='color:green'>Lift,<span style='color:green'>Lift,<span style='color:red'>Fail,<span style='color:red'>Fail,<span style='color:red'>Fail,<span style='color:red'>Fail,<span style='color:green'>Lift,<span style='color:red'>Fail,<span style='color:red'>Fail,<span style='color:green'>Lift","<span style='color:red'>Fail,<span style='color:red'>Fail,<span style='color:green'>Lift,<span style='color:green'>Lift,<span style='color:green'>Lift,<span style='color:green'>Lift,<span style='color:green'>Lift,<span style='color:red'>Fail,<span style='color:green'>Lift,<span style='color:green'>Lift,<span style='color:red'>Fail,<span style='color:green'>Lift","<span style='color:red'>Fail,<span style='color:green'>Lift,<span style='color:green'>Lift,<span style='color:red'>Fail,<span style='color:green'>Lift,<span style='color:green'>Lift","0,0,1,1,0,0,0,0,1,0,0,1","0,0,1,1,1,1,1,0,1,1,0,1","0,1,1,0,1,1",10,20,20,"","","","","{""box1"":""3"",""box2"":""4""}","",4,"round1_outcome",1,4,1,3,4,NA,NA,0,0,10,3,4,NA,NA,0,0,10,NA,NA,NA,NA,NA,NA,NA,NA,NA,NA,NA,NA,NA,NA,NA,NA,NA,NA,NA,NA,NA,NA,"",NA,NA,NA,NA,NA,NA,NA,NA,NA,2025-11-20 22:55:06
"11607","https://psyc-201.github.io/xiang2023/exp/index1.html?PROLIFIC_PID=REDACTED&STUDY_ID=691f8ca61c6b4dcbb0aeb5f4&SESSION_ID=691f96a48aa11cacb1ca4a55","survey-html-form",27,1018038,"0.0-336.0","Sbrev3v6Ohpdw4cxjZE5UoIv4PkQiboIAH8d42eiNQGVUHiLnRAH+kkjzfaLA8unv6ChvKE37s+QG1vHpMgUQ9vpy7g5YWggOMWrt8Lh+LJfiNIG2xyXwsGKIZpJusnJIyRbBkMG1DeVlRZh7b7sfJrPTO9dNIlz5qLlaEPElz/snLtP4M0h/n0UMVcZZJVUKrwhOCFeDUgNsI8eBeTQ3CPWOyV5jX0c63Hhw2HKsnhP4bBzf4n64ih8eRaYA0WGQGi1o08sQmnNLNvzzEMH3evhKOhio2a5FrEfP6rTuhNj03l/U2djeb2lo95vc5giP5bpPXlWfnqJqMshHrinOA==","691f8ca61c6b4dcbb0aeb5f4","691f96a48aa11cacb1ca4a55","index1","<span style='color:red'>Fail,<span style='color:red'>Fail,<span style='color:green'>Lift,<span style='color:green'>Lift,<span style='color:red'>Fail,<span style='color:red'>Fail,<span style='color:red'>Fail,<span style='color:red'>Fail,<span style='color:green'>Lift,<span style='color:red'>Fail,<span style='color:red'>Fail,<span style='color:green'>Lift","<span style='color:red'>Fail,<span style='color:red'>Fail,<span style='color:green'>Lift,<span style='color:green'>Lift,<span style='color:green'>Lift,<span style='color:green'>Lift,<span style='color:green'>Lift,<span style='color:red'>Fail,<span style='color:green'>Lift,<span style='color:green'>Lift,<span style='color:red'>Fail,<span style='color:green'>Lift","<span style='color:red'>Fail,<span style='color:green'>Lift,<span style='color:green'>Lift,<span style='color:red'>Fail,<span style='color:green'>Lift,<span style='color:green'>Lift","0,0,1,1,0,0,0,0,1,0,0,1","0,0,1,1,1,1,1,0,1,1,0,1","0,1,1,0,1,1",10,20,20,"","","","","{""box1"":""30"",""box2"":""45""}","",4,"round2_ready",2,4,2,NA,NA,NA,NA,NA,NA,NA,NA,NA,NA,NA,NA,NA,NA,30,45,30,45,NA,NA,NA,NA,NA,NA,NA,NA,NA,NA,NA,NA,NA,NA,NA,NA,NA,NA,"",NA,NA,NA,NA,NA,NA,NA,NA,NA,2025-11-20 22:55:06
"18142.399999976158","https://psyc-201.github.io/xiang2023/exp/index1.html?PROLIFIC_PID=REDACTED&STUDY_ID=691f8ca61c6b4dcbb0aeb5f4&SESSION_ID=691f96a48aa11cacb1ca4a55","survey-html-form",28,1036182,"0.0-337.0","Sbrev3v6Ohpdw4cxjZE5UoIv4PkQiboIAH8d42eiNQGVUHiLnRAH+kkjzfaLA8unv6ChvKE37s+QG1vHpMgUQ9vpy7g5YWggOMWrt8Lh+LJfiNIG2xyXwsGKIZpJusnJIyRbBkMG1DeVlRZh7b7sfJrPTO9dNIlz5qLlaEPElz/snLtP4M0h/n0UMVcZZJVUKrwhOCFeDUgNsI8eBeTQ3CPWOyV5jX0c63Hhw2HKsnhP4bBzf4n64ih8eRaYA0WGQGi1o08sQmnNLNvzzEMH3evhKOhio2a5FrEfP6rTuhNj03l/U2djeb2lo95vc5giP5bpPXlWfnqJqMshHrinOA==","691f8ca61c6b4dcbb0aeb5f4","691f96a48aa11cacb1ca4a55","index1","<span style='color:red'>Fail,<span style='color:red'>Fail,<span style='color:green'>Lift,<span style='color:green'>Lift,<span style='color:red'>Fail,<span style='color:red'>Fail,<span style='color:red'>Fail,<span style='color:red'>Fail,<span style='color:green'>Lift,<span style='color:red'>Fail,<span style='color:red'>Fail,<span style='color:green'>Lift","<span style='color:red'>Fail,<span style='color:red'>Fail,<span style='color:green'>Lift,<span style='color:green'>Lift,<span style='color:green'>Lift,<span style='color:green'>Lift,<span style='color:green'>Lift,<span style='color:red'>Fail,<span style='color:green'>Lift,<span style='color:green'>Lift,<span style='color:red'>Fail,<span style='color:green'>Lift","<span style='color:red'>Fail,<span style='color:green'>Lift,<span style='color:green'>Lift,<span style='color:red'>Fail,<span style='color:green'>Lift,<span style='color:green'>Lift","0,0,1,1,0,0,0,0,1,0,0,1","0,0,1,1,1,1,1,0,1,1,0,1","0,1,1,0,1,1",10,20,20,"","","","","{""box1"":""5"",""box2"":""3"",""box3"":""100""}","",4,"round2_outcome",3,4,2,5,3,100,NA,1,0,20,NA,NA,NA,NA,NA,NA,NA,NA,NA,NA,NA,5,3,100,NA,1,0,20,NA,NA,NA,NA,NA,NA,NA,NA,NA,NA,NA,"",NA,NA,NA,NA,NA,NA,NA,NA,NA,2025-11-20 22:55:06
"7678","https://psyc-201.github.io/xiang2023/exp/index1.html?PROLIFIC_PID=REDACTED&STUDY_ID=691f8ca61c6b4dcbb0aeb5f4&SESSION_ID=691f96a48aa11cacb1ca4a55","survey-html-form",29,1043861,"0.0-338.0","Sbrev3v6Ohpdw4cxjZE5UoIv4PkQiboIAH8d42eiNQGVUHiLnRAH+kkjzfaLA8unv6ChvKE37s+QG1vHpMgUQ9vpy7g5YWggOMWrt8Lh+LJfiNIG2xyXwsGKIZpJusnJIyRbBkMG1DeVlRZh7b7sfJrPTO9dNIlz5qLlaEPElz/snLtP4M0h/n0UMVcZZJVUKrwhOCFeDUgNsI8eBeTQ3CPWOyV5jX0c63Hhw2HKsnhP4bBzf4n64ih8eRaYA0WGQGi1o08sQmnNLNvzzEMH3evhKOhio2a5FrEfP6rTuhNj03l/U2djeb2lo95vc5giP5bpPXlWfnqJqMshHrinOA==","691f8ca61c6b4dcbb0aeb5f4","691f96a48aa11cacb1ca4a55","index1","<span style='color:red'>Fail,<span style='color:red'>Fail,<span style='color:green'>Lift,<span style='color:green'>Lift,<span style='color:red'>Fail,<span style='color:red'>Fail,<span style='color:red'>Fail,<span style='color:red'>Fail,<span style='color:green'>Lift,<span style='color:red'>Fail,<span style='color:red'>Fail,<span style='color:green'>Lift","<span style='color:red'>Fail,<span style='color:red'>Fail,<span style='color:green'>Lift,<span style='color:green'>Lift,<span style='color:green'>Lift,<span style='color:green'>Lift,<span style='color:green'>Lift,<span style='color:red'>Fail,<span style='color:green'>Lift,<span style='color:green'>Lift,<span style='color:red'>Fail,<span style='color:green'>Lift","<span style='color:red'>Fail,<span style='color:green'>Lift,<span style='color:green'>Lift,<span style='color:red'>Fail,<span style='color:green'>Lift,<span style='color:green'>Lift","0,0,1,1,0,0,0,0,1,0,0,1","0,0,1,1,1,1,1,0,1,1,0,1","0,1,1,0,1,1",10,20,20,"","","","","{""box1"":""100""}","",4,"round3_ready",4,4,3,NA,NA,NA,NA,NA,NA,NA,NA,NA,NA,NA,NA,NA,NA,100,100,NA,NA,NA,NA,NA,NA,NA,NA,NA,100,100,NA,NA,NA,NA,NA,NA,NA,NA,NA,"",NA,NA,NA,NA,NA,NA,NA,NA,NA,2025-11-20 22:55:06
"24375.30000001192","https://psyc-201.github.io/xiang2023/exp/index1.html?PROLIFIC_PID=REDACTED&STUDY_ID=691f8ca61c6b4dcbb0aeb5f4&SESSION_ID=691f96a48aa11cacb1ca4a55","survey-html-form",30,1068239,"0.0-340.0-0.0","Sbrev3v6Ohpdw4cxjZE5UoIv4PkQiboIAH8d42eiNQGVUHiLnRAH+kkjzfaLA8unv6ChvKE37s+QG1vHpMgUQ9vpy7g5YWggOMWrt8Lh+LJfiNIG2xyXwsGKIZpJusnJIyRbBkMG1DeVlRZh7b7sfJrPTO9dNIlz5qLlaEPElz/snLtP4M0h/n0UMVcZZJVUKrwhOCFeDUgNsI8eBeTQ3CPWOyV5jX0c63Hhw2HKsnhP4bBzf4n64ih8eRaYA0WGQGi1o08sQmnNLNvzzEMH3evhKOhio2a5FrEfP6rTuhNj03l/U2djeb2lo95vc5giP5bpPXlWfnqJqMshHrinOA==","691f8ca61c6b4dcbb0aeb5f4","691f96a48aa11cacb1ca4a55","index1","<span style='color:red'>Fail,<span style='color:red'>Fail,<span style='color:green'>Lift,<span style='color:green'>Lift,<span style='color:red'>Fail,<span style='color:red'>Fail,<span style='color:red'>Fail,<span style='color:red'>Fail,<span style='color:green'>Lift,<span style='color:red'>Fail,<span style='color:red'>Fail,<span style='color:green'>Lift","<span style='color:red'>Fail,<span style='color:red'>Fail,<span style='color:green'>Lift,<span style='color:green'>Lift,<span style='color:green'>Lift,<span style='color:green'>Lift,<span style='color:green'>Lift,<span style='color:red'>Fail,<span style='color:green'>Lift,<span style='color:green'>Lift,<span style='color:red'>Fail,<span style='color:green'>Lift","<span style='color:red'>Fail,<span style='color:green'>Lift,<span style='color:green'>Lift,<span style='color:red'>Fail,<span style='color:green'>Lift,<span style='color:green'>Lift","0,0,1,1,0,0,0,0,1,0,0,1","0,0,1,1,1,1,1,0,1,1,0,1","0,1,1,0,1,1",10,20,20,"","","","","{""box1"":""5"",""box2"":""2"",""box3"":""999"",""box4"":""999""}","",5,"round3_fail",5,4,3,5,2,NA,NA,0,0,20,NA,NA,NA,NA,NA,NA,NA,NA,NA,NA,NA,NA,NA,NA,NA,NA,NA,NA,NA,NA,5,2,NA,NA,0,0,20,1,1,"",NA,NA,NA,NA,NA,NA,NA,NA,NA,2025-11-20 22:55:06
"null","https://psyc-201.github.io/xiang2023/exp/index1.html?PROLIFIC_PID=REDACTED&STUDY_ID=691f8ca61c6b4dcbb0aeb5f4&SESSION_ID=691f96a48aa11cacb1ca4a55","html-keyboard-response",31,1071258,"0.0-343.0","Sbrev3v6Ohpdw4cxjZE5UoIv4PkQiboIAH8d42eiNQGVUHiLnRAH+kkjzfaLA8unv6ChvKE37s+QG1vHpMgUQ9vpy7g5YWggOMWrt8Lh+LJfiNIG2xyXwsGKIZpJusnJIyRbBkMG1DeVlRZh7b7sfJrPTO9dNIlz5qLlaEPElz/snLtP4M0h/n0UMVcZZJVUKrwhOCFeDUgNsI8eBeTQ3CPWOyV5jX0c63Hhw2HKsnhP4bBzf4n64ih8eRaYA0WGQGi1o08sQmnNLNvzzEMH3evhKOhio2a5FrEfP6rTuhNj03l/U2djeb2lo95vc5giP5bpPXlWfnqJqMshHrinOA==","691f8ca61c6b4dcbb0aeb5f4","691f96a48aa11cacb1ca4a55","index1","<span style='color:red'>Fail,<span style='color:red'>Fail,<span style='color:green'>Lift,<span style='color:green'>Lift,<span style='color:red'>Fail,<span style='color:red'>Fail,<span style='color:red'>Fail,<span style='color:red'>Fail,<span style='color:green'>Lift,<span style='color:red'>Fail,<span style='color:red'>Fail,<span style='color:green'>Lift","<span style='color:red'>Fail,<span style='color:red'>Fail,<span style='color:green'>Lift,<span style='color:green'>Lift,<span style='color:green'>Lift,<span style='color:green'>Lift,<span style='color:green'>Lift,<span style='color:red'>Fail,<span style='color:green'>Lift,<span style='color:green'>Lift,<span style='color:red'>Fail,<span style='color:green'>Lift","<span style='color:red'>Fail,<span style='color:green'>Lift,<span style='color:green'>Lift,<span style='color:red'>Fail,<span style='color:green'>Lift,<span style='color:green'>Lift","0,0,1,1,0,0,0,0,1,0,0,1","0,0,1,1,1,1,1,0,1,1,0,1","0,1,1,0,1,1",10,20,20,"","","<p style='font-size:30px'><b> New Contest! </b></p>","null","","",5,"",NA,NA,NA,NA,NA,NA,NA,NA,NA,NA,NA,NA,NA,NA,NA,NA,NA,NA,NA,NA,NA,NA,NA,NA,NA,NA,NA,NA,NA,NA,NA,NA,NA,NA,NA,NA,NA,NA,NA,"",NA,NA,NA,NA,NA,NA,NA,NA,NA,2025-11-20 22:55:06
"21450.90000000596","https://psyc-201.github.io/xiang2023/exp/index1.html?PROLIFIC_PID=REDACTED&STUDY_ID=691f8ca61c6b4dcbb0aeb5f4&SESSION_ID=691f96a48aa11cacb1ca4a55","survey-html-form",32,1092710,"0.0-344.0","Sbrev3v6Ohpdw4cxjZE5UoIv4PkQiboIAH8d42eiNQGVUHiLnRAH+kkjzfaLA8unv6ChvKE37s+QG1vHpMgUQ9vpy7g5YWggOMWrt8Lh+LJfiNIG2xyXwsGKIZpJusnJIyRbBkMG1DeVlRZh7b7sfJrPTO9dNIlz5qLlaEPElz/snLtP4M0h/n0UMVcZZJVUKrwhOCFeDUgNsI8eBeTQ3CPWOyV5jX0c63Hhw2HKsnhP4bBzf4n64ih8eRaYA0WGQGi1o08sQmnNLNvzzEMH3evhKOhio2a5FrEfP6rTuhNj03l/U2djeb2lo95vc5giP5bpPXlWfnqJqMshHrinOA==","691f8ca61c6b4dcbb0aeb5f4","691f96a48aa11cacb1ca4a55","index1","<span style='color:red'>Fail,<span style='color:red'>Fail,<span style='color:green'>Lift,<span style='color:green'>Lift,<span style='color:red'>Fail,<span style='color:red'>Fail,<span style='color:red'>Fail,<span style='color:red'>Fail,<span style='color:green'>Lift,<span style='color:red'>Fail,<span style='color:red'>Fail,<span style='color:green'>Lift","<span style='color:red'>Fail,<span style='color:red'>Fail,<span style='color:green'>Lift,<span style='color:green'>Lift,<span style='color:green'>Lift,<span style='color:green'>Lift,<span style='color:green'>Lift,<span style='color:red'>Fail,<span style='color:green'>Lift,<span style='color:green'>Lift,<span style='color:red'>Fail,<span style='color:green'>Lift","<span style='color:red'>Fail,<span style='color:green'>Lift,<span style='color:green'>Lift,<span style='color:red'>Fail,<span style='color:green'>Lift,<span style='color:green'>Lift","0,0,1,1,0,0,0,0,1,0,0,1","0,0,1,1,1,1,1,0,1,1,0,1","0,1,1,0,1,1",10,20,20,"","","","","{""box1"":""10"",""box2"":""1"",""box3"":""50""}","",5,"round1_outcome",1,5,1,10,1,50,NA,1,0,10,10,1,50,NA,1,0,10,NA,NA,NA,NA,NA,NA,NA,NA,NA,NA,NA,NA,NA,NA,NA,NA,NA,NA,NA,NA,NA,NA,"",NA,NA,NA,NA,NA,NA,NA,NA,NA,2025-11-20 22:55:06
"10734.799999982119","https://psyc-201.github.io/xiang2023/exp/index1.html?PROLIFIC_PID=REDACTED&STUDY_ID=691f8ca61c6b4dcbb0aeb5f4&SESSION_ID=691f96a48aa11cacb1ca4a55","survey-html-form",33,1103447,"0.0-345.0","Sbrev3v6Ohpdw4cxjZE5UoIv4PkQiboIAH8d42eiNQGVUHiLnRAH+kkjzfaLA8unv6ChvKE37s+QG1vHpMgUQ9vpy7g5YWggOMWrt8Lh+LJfiNIG2xyXwsGKIZpJusnJIyRbBkMG1DeVlRZh7b7sfJrPTO9dNIlz5qLlaEPElz/snLtP4M0h/n0UMVcZZJVUKrwhOCFeDUgNsI8eBeTQ3CPWOyV5jX0c63Hhw2HKsnhP4bBzf4n64ih8eRaYA0WGQGi1o08sQmnNLNvzzEMH3evhKOhio2a5FrEfP6rTuhNj03l/U2djeb2lo95vc5giP5bpPXlWfnqJqMshHrinOA==","691f8ca61c6b4dcbb0aeb5f4","691f96a48aa11cacb1ca4a55","index1","<span style='color:red'>Fail,<span style='color:red'>Fail,<span style='color:green'>Lift,<span style='color:green'>Lift,<span style='color:red'>Fail,<span style='color:red'>Fail,<span style='color:red'>Fail,<span style='color:red'>Fail,<span style='color:green'>Lift,<span style='color:red'>Fail,<span style='color:red'>Fail,<span style='color:green'>Lift","<span style='color:red'>Fail,<span style='color:red'>Fail,<span style='color:green'>Lift,<span style='color:green'>Lift,<span style='color:green'>Lift,<span style='color:green'>Lift,<span style='color:green'>Lift,<span style='color:red'>Fail,<span style='color:green'>Lift,<span style='color:green'>Lift,<span style='color:red'>Fail,<span style='color:green'>Lift","<span style='color:red'>Fail,<span style='color:green'>Lift,<span style='color:green'>Lift,<span style='color:red'>Fail,<span style='color:green'>Lift,<span style='color:green'>Lift","0,0,1,1,0,0,0,0,1,0,0,1","0,0,1,1,1,1,1,0,1,1,0,1","0,1,1,0,1,1",10,20,20,"","","","","{""box1"":""100"",""box2"":""10""}","",5,"round2_ready",2,5,2,NA,NA,NA,NA,NA,NA,NA,NA,NA,NA,NA,NA,NA,NA,100,10,100,10,NA,NA,NA,NA,NA,NA,NA,NA,NA,NA,NA,NA,NA,NA,NA,NA,NA,NA,"",NA,NA,NA,NA,NA,NA,NA,NA,NA,2025-11-20 22:55:06
"22485.30000001192","https://psyc-201.github.io/xiang2023/exp/index1.html?PROLIFIC_PID=REDACTED&STUDY_ID=691f8ca61c6b4dcbb0aeb5f4&SESSION_ID=691f96a48aa11cacb1ca4a55","survey-html-form",34,1125934,"0.0-346.0","Sbrev3v6Ohpdw4cxjZE5UoIv4PkQiboIAH8d42eiNQGVUHiLnRAH+kkjzfaLA8unv6ChvKE37s+QG1vHpMgUQ9vpy7g5YWggOMWrt8Lh+LJfiNIG2xyXwsGKIZpJusnJIyRbBkMG1DeVlRZh7b7sfJrPTO9dNIlz5qLlaEPElz/snLtP4M0h/n0UMVcZZJVUKrwhOCFeDUgNsI8eBeTQ3CPWOyV5jX0c63Hhw2HKsnhP4bBzf4n64ih8eRaYA0WGQGi1o08sQmnNLNvzzEMH3evhKOhio2a5FrEfP6rTuhNj03l/U2djeb2lo95vc5giP5bpPXlWfnqJqMshHrinOA==","691f8ca61c6b4dcbb0aeb5f4","691f96a48aa11cacb1ca4a55","index1","<span style='color:red'>Fail,<span style='color:red'>Fail,<span style='color:green'>Lift,<span style='color:green'>Lift,<span style='color:red'>Fail,<span style='color:red'>Fail,<span style='color:red'>Fail,<span style='color:red'>Fail,<span style='color:green'>Lift,<span style='color:red'>Fail,<span style='color:red'>Fail,<span style='color:green'>Lift","<span style='color:red'>Fail,<span style='color:red'>Fail,<span style='color:green'>Lift,<span style='color:green'>Lift,<span style='color:green'>Lift,<span style='color:green'>Lift,<span style='color:green'>Lift,<span style='color:red'>Fail,<span style='color:green'>Lift,<span style='color:green'>Lift,<span style='color:red'>Fail,<span style='color:green'>Lift","<span style='color:red'>Fail,<span style='color:green'>Lift,<span style='color:green'>Lift,<span style='color:red'>Fail,<span style='color:green'>Lift,<span style='color:green'>Lift","0,0,1,1,0,0,0,0,1,0,0,1","0,0,1,1,1,1,1,0,1,1,0,1","0,1,1,0,1,1",10,20,20,"","","","","{""box1"":""10"",""box2"":""4"",""box3"":""50"",""box4"":""100""}","",5,"round2_outcome",3,5,2,10,4,50,100,1,1,20,NA,NA,NA,NA,NA,NA,NA,NA,NA,NA,NA,10,4,50,100,1,1,20,NA,NA,NA,NA,NA,NA,NA,NA,NA,NA,NA,"",NA,NA,NA,NA,NA,NA,NA,NA,NA,2025-11-20 22:55:06
"7334.0999999940395","https://psyc-201.github.io/xiang2023/exp/index1.html?PROLIFIC_PID=REDACTED&STUDY_ID=691f8ca61c6b4dcbb0aeb5f4&SESSION_ID=691f96a48aa11cacb1ca4a55","survey-html-form",35,1133270,"0.0-347.0","Sbrev3v6Ohpdw4cxjZE5UoIv4PkQiboIAH8d42eiNQGVUHiLnRAH+kkjzfaLA8unv6ChvKE37s+QG1vHpMgUQ9vpy7g5YWggOMWrt8Lh+LJfiNIG2xyXwsGKIZpJusnJIyRbBkMG1DeVlRZh7b7sfJrPTO9dNIlz5qLlaEPElz/snLtP4M0h/n0UMVcZZJVUKrwhOCFeDUgNsI8eBeTQ3CPWOyV5jX0c63Hhw2HKsnhP4bBzf4n64ih8eRaYA0WGQGi1o08sQmnNLNvzzEMH3evhKOhio2a5FrEfP6rTuhNj03l/U2djeb2lo95vc5giP5bpPXlWfnqJqMshHrinOA==","691f8ca61c6b4dcbb0aeb5f4","691f96a48aa11cacb1ca4a55","index1","<span style='color:red'>Fail,<span style='color:red'>Fail,<span style='color:green'>Lift,<span style='color:green'>Lift,<span style='color:red'>Fail,<span style='color:red'>Fail,<span style='color:red'>Fail,<span style='color:red'>Fail,<span style='color:green'>Lift,<span style='color:red'>Fail,<span style='color:red'>Fail,<span style='color:green'>Lift","<span style='color:red'>Fail,<span style='color:red'>Fail,<span style='color:green'>Lift,<span style='color:green'>Lift,<span style='color:green'>Lift,<span style='color:green'>Lift,<span style='color:green'>Lift,<span style='color:red'>Fail,<span style='color:green'>Lift,<span style='color:green'>Lift,<span style='color:red'>Fail,<span style='color:green'>Lift","<span style='color:red'>Fail,<span style='color:green'>Lift,<span style='color:green'>Lift,<span style='color:red'>Fail,<span style='color:green'>Lift,<span style='color:green'>Lift","0,0,1,1,0,0,0,0,1,0,0,1","0,0,1,1,1,1,1,0,1,1,0,1","0,1,1,0,1,1",10,20,20,"","","","","{""box1"":""100""}","",5,"round3_ready",4,5,3,NA,NA,NA,NA,NA,NA,NA,NA,NA,NA,NA,NA,NA,NA,100,100,NA,NA,NA,NA,NA,NA,NA,NA,NA,100,100,NA,NA,NA,NA,NA,NA,NA,NA,NA,"",NA,NA,NA,NA,NA,NA,NA,NA,NA,2025-11-20 22:55:06
"21855.600000023842","https://psyc-201.github.io/xiang2023/exp/index1.html?PROLIFIC_PID=REDACTED&STUDY_ID=691f8ca61c6b4dcbb0aeb5f4&SESSION_ID=691f96a48aa11cacb1ca4a55","survey-html-form",36,1155127,"0.0-348.0-0.0","Sbrev3v6Ohpdw4cxjZE5UoIv4PkQiboIAH8d42eiNQGVUHiLnRAH+kkjzfaLA8unv6ChvKE37s+QG1vHpMgUQ9vpy7g5YWggOMWrt8Lh+LJfiNIG2xyXwsGKIZpJusnJIyRbBkMG1DeVlRZh7b7sfJrPTO9dNIlz5qLlaEPElz/snLtP4M0h/n0UMVcZZJVUKrwhOCFeDUgNsI8eBeTQ3CPWOyV5jX0c63Hhw2HKsnhP4bBzf4n64ih8eRaYA0WGQGi1o08sQmnNLNvzzEMH3evhKOhio2a5FrEfP6rTuhNj03l/U2djeb2lo95vc5giP5bpPXlWfnqJqMshHrinOA==","691f8ca61c6b4dcbb0aeb5f4","691f96a48aa11cacb1ca4a55","index1","<span style='color:red'>Fail,<span style='color:red'>Fail,<span style='color:green'>Lift,<span style='color:green'>Lift,<span style='color:red'>Fail,<span style='color:red'>Fail,<span style='color:red'>Fail,<span style='color:red'>Fail,<span style='color:green'>Lift,<span style='color:red'>Fail,<span style='color:red'>Fail,<span style='color:green'>Lift","<span style='color:red'>Fail,<span style='color:red'>Fail,<span style='color:green'>Lift,<span style='color:green'>Lift,<span style='color:green'>Lift,<span style='color:green'>Lift,<span style='color:green'>Lift,<span style='color:red'>Fail,<span style='color:green'>Lift,<span style='color:green'>Lift,<span style='color:red'>Fail,<span style='color:green'>Lift","<span style='color:red'>Fail,<span style='color:green'>Lift,<span style='color:green'>Lift,<span style='color:red'>Fail,<span style='color:green'>Lift,<span style='color:green'>Lift","0,0,1,1,0,0,0,0,1,0,0,1","0,0,1,1,1,1,1,0,1,1,0,1","0,1,1,0,1,1",10,20,20,"","","","","{""box1"":""10"",""box2"":""5"",""box3"":""50"",""box4"":""100""}","",6,"round3_lift",5,5,3,10,5,50,100,1,1,20,NA,NA,NA,NA,NA,NA,NA,NA,NA,NA,NA,NA,NA,NA,NA,NA,NA,NA,NA,NA,10,5,50,100,1,1,20,NA,NA,"",NA,NA,NA,NA,NA,NA,NA,NA,NA,2025-11-20 22:55:06
"null","https://psyc-201.github.io/xiang2023/exp/index1.html?PROLIFIC_PID=REDACTED&STUDY_ID=691f8ca61c6b4dcbb0aeb5f4&SESSION_ID=691f96a48aa11cacb1ca4a55","html-keyboard-response",37,1158138,"0.0-352.0","Sbrev3v6Ohpdw4cxjZE5UoIv4PkQiboIAH8d42eiNQGVUHiLnRAH+kkjzfaLA8unv6ChvKE37s+QG1vHpMgUQ9vpy7g5YWggOMWrt8Lh+LJfiNIG2xyXwsGKIZpJusnJIyRbBkMG1DeVlRZh7b7sfJrPTO9dNIlz5qLlaEPElz/snLtP4M0h/n0UMVcZZJVUKrwhOCFeDUgNsI8eBeTQ3CPWOyV5jX0c63Hhw2HKsnhP4bBzf4n64ih8eRaYA0WGQGi1o08sQmnNLNvzzEMH3evhKOhio2a5FrEfP6rTuhNj03l/U2djeb2lo95vc5giP5bpPXlWfnqJqMshHrinOA==","691f8ca61c6b4dcbb0aeb5f4","691f96a48aa11cacb1ca4a55","index1","<span style='color:red'>Fail,<span style='color:red'>Fail,<span style='color:green'>Lift,<span style='color:green'>Lift,<span style='color:red'>Fail,<span style='color:red'>Fail,<span style='color:red'>Fail,<span style='color:red'>Fail,<span style='color:green'>Lift,<span style='color:red'>Fail,<span style='color:red'>Fail,<span style='color:green'>Lift","<span style='color:red'>Fail,<span style='color:red'>Fail,<span style='color:green'>Lift,<span style='color:green'>Lift,<span style='color:green'>Lift,<span style='color:green'>Lift,<span style='color:green'>Lift,<span style='color:red'>Fail,<span style='color:green'>Lift,<span style='color:green'>Lift,<span style='color:red'>Fail,<span style='color:green'>Lift","<span style='color:red'>Fail,<span style='color:green'>Lift,<span style='color:green'>Lift,<span style='color:red'>Fail,<span style='color:green'>Lift,<span style='color:green'>Lift","0,0,1,1,0,0,0,0,1,0,0,1","0,0,1,1,1,1,1,0,1,1,0,1","0,1,1,0,1,1",10,20,20,"","","<p style='font-size:30px'><b> New Contest! </b></p>","null","","",6,"",NA,NA,NA,NA,NA,NA,NA,NA,NA,NA,NA,NA,NA,NA,NA,NA,NA,NA,NA,NA,NA,NA,NA,NA,NA,NA,NA,NA,NA,NA,NA,NA,NA,NA,NA,NA,NA,NA,NA,"",NA,NA,NA,NA,NA,NA,NA,NA,NA,2025-11-20 22:55:06
"15235.5","https://psyc-201.github.io/xiang2023/exp/index1.html?PROLIFIC_PID=REDACTED&STUDY_ID=691f8ca61c6b4dcbb0aeb5f4&SESSION_ID=691f96a48aa11cacb1ca4a55","survey-html-form",38,1173375,"0.0-353.0","Sbrev3v6Ohpdw4cxjZE5UoIv4PkQiboIAH8d42eiNQGVUHiLnRAH+kkjzfaLA8unv6ChvKE37s+QG1vHpMgUQ9vpy7g5YWggOMWrt8Lh+LJfiNIG2xyXwsGKIZpJusnJIyRbBkMG1DeVlRZh7b7sfJrPTO9dNIlz5qLlaEPElz/snLtP4M0h/n0UMVcZZJVUKrwhOCFeDUgNsI8eBeTQ3CPWOyV5jX0c63Hhw2HKsnhP4bBzf4n64ih8eRaYA0WGQGi1o08sQmnNLNvzzEMH3evhKOhio2a5FrEfP6rTuhNj03l/U2djeb2lo95vc5giP5bpPXlWfnqJqMshHrinOA==","691f8ca61c6b4dcbb0aeb5f4","691f96a48aa11cacb1ca4a55","index1","<span style='color:red'>Fail,<span style='color:red'>Fail,<span style='color:green'>Lift,<span style='color:green'>Lift,<span style='color:red'>Fail,<span style='color:red'>Fail,<span style='color:red'>Fail,<span style='color:red'>Fail,<span style='color:green'>Lift,<span style='color:red'>Fail,<span style='color:red'>Fail,<span style='color:green'>Lift","<span style='color:red'>Fail,<span style='color:red'>Fail,<span style='color:green'>Lift,<span style='color:green'>Lift,<span style='color:green'>Lift,<span style='color:green'>Lift,<span style='color:green'>Lift,<span style='color:red'>Fail,<span style='color:green'>Lift,<span style='color:green'>Lift,<span style='color:red'>Fail,<span style='color:green'>Lift","<span style='color:red'>Fail,<span style='color:green'>Lift,<span style='color:green'>Lift,<span style='color:red'>Fail,<span style='color:green'>Lift,<span style='color:green'>Lift","0,0,1,1,0,0,0,0,1,0,0,1","0,0,1,1,1,1,1,0,1,1,0,1","0,1,1,0,1,1",10,20,20,"","","","","{""box1"":""4"",""box2"":""6""}","",6,"round1_outcome",1,6,1,4,6,NA,NA,0,0,10,4,6,NA,NA,0,0,10,NA,NA,NA,NA,NA,NA,NA,NA,NA,NA,NA,NA,NA,NA,NA,NA,NA,NA,NA,NA,NA,NA,"",NA,NA,NA,NA,NA,NA,NA,NA,NA,2025-11-20 22:55:06
"11798.40000000596","https://psyc-201.github.io/xiang2023/exp/index1.html?PROLIFIC_PID=REDACTED&STUDY_ID=691f8ca61c6b4dcbb0aeb5f4&SESSION_ID=691f96a48aa11cacb1ca4a55","survey-html-form",39,1185175,"0.0-354.0","Sbrev3v6Ohpdw4cxjZE5UoIv4PkQiboIAH8d42eiNQGVUHiLnRAH+kkjzfaLA8unv6ChvKE37s+QG1vHpMgUQ9vpy7g5YWggOMWrt8Lh+LJfiNIG2xyXwsGKIZpJusnJIyRbBkMG1DeVlRZh7b7sfJrPTO9dNIlz5qLlaEPElz/snLtP4M0h/n0UMVcZZJVUKrwhOCFeDUgNsI8eBeTQ3CPWOyV5jX0c63Hhw2HKsnhP4bBzf4n64ih8eRaYA0WGQGi1o08sQmnNLNvzzEMH3evhKOhio2a5FrEfP6rTuhNj03l/U2djeb2lo95vc5giP5bpPXlWfnqJqMshHrinOA==","691f8ca61c6b4dcbb0aeb5f4","691f96a48aa11cacb1ca4a55","index1","<span style='color:red'>Fail,<span style='color:red'>Fail,<span style='color:green'>Lift,<span style='color:green'>Lift,<span style='color:red'>Fail,<span style='color:red'>Fail,<span style='color:red'>Fail,<span style='color:red'>Fail,<span style='color:green'>Lift,<span style='color:red'>Fail,<span style='color:red'>Fail,<span style='color:green'>Lift","<span style='color:red'>Fail,<span style='color:red'>Fail,<span style='color:green'>Lift,<span style='color:green'>Lift,<span style='color:green'>Lift,<span style='color:green'>Lift,<span style='color:green'>Lift,<span style='color:red'>Fail,<span style='color:green'>Lift,<span style='color:green'>Lift,<span style='color:red'>Fail,<span style='color:green'>Lift","<span style='color:red'>Fail,<span style='color:green'>Lift,<span style='color:green'>Lift,<span style='color:red'>Fail,<span style='color:green'>Lift,<span style='color:green'>Lift","0,0,1,1,0,0,0,0,1,0,0,1","0,0,1,1,1,1,1,0,1,1,0,1","0,1,1,0,1,1",10,20,20,"","","","","{""box1"":""100"",""box2"":""50""}","",6,"round2_ready",2,6,2,NA,NA,NA,NA,NA,NA,NA,NA,NA,NA,NA,NA,NA,NA,100,50,100,50,NA,NA,NA,NA,NA,NA,NA,NA,NA,NA,NA,NA,NA,NA,NA,NA,NA,NA,"",NA,NA,NA,NA,NA,NA,NA,NA,NA,2025-11-20 22:55:06
"15750.5","https://psyc-201.github.io/xiang2023/exp/index1.html?PROLIFIC_PID=REDACTED&STUDY_ID=691f8ca61c6b4dcbb0aeb5f4&SESSION_ID=691f96a48aa11cacb1ca4a55","survey-html-form",40,1200927,"0.0-355.0","Sbrev3v6Ohpdw4cxjZE5UoIv4PkQiboIAH8d42eiNQGVUHiLnRAH+kkjzfaLA8unv6ChvKE37s+QG1vHpMgUQ9vpy7g5YWggOMWrt8Lh+LJfiNIG2xyXwsGKIZpJusnJIyRbBkMG1DeVlRZh7b7sfJrPTO9dNIlz5qLlaEPElz/snLtP4M0h/n0UMVcZZJVUKrwhOCFeDUgNsI8eBeTQ3CPWOyV5jX0c63Hhw2HKsnhP4bBzf4n64ih8eRaYA0WGQGi1o08sQmnNLNvzzEMH3evhKOhio2a5FrEfP6rTuhNj03l/U2djeb2lo95vc5giP5bpPXlWfnqJqMshHrinOA==","691f8ca61c6b4dcbb0aeb5f4","691f96a48aa11cacb1ca4a55","index1","<span style='color:red'>Fail,<span style='color:red'>Fail,<span style='color:green'>Lift,<span style='color:green'>Lift,<span style='color:red'>Fail,<span style='color:red'>Fail,<span style='color:red'>Fail,<span style='color:red'>Fail,<span style='color:green'>Lift,<span style='color:red'>Fail,<span style='color:red'>Fail,<span style='color:green'>Lift","<span style='color:red'>Fail,<span style='color:red'>Fail,<span style='color:green'>Lift,<span style='color:green'>Lift,<span style='color:green'>Lift,<span style='color:green'>Lift,<span style='color:green'>Lift,<span style='color:red'>Fail,<span style='color:green'>Lift,<span style='color:green'>Lift,<span style='color:red'>Fail,<span style='color:green'>Lift","<span style='color:red'>Fail,<span style='color:green'>Lift,<span style='color:green'>Lift,<span style='color:red'>Fail,<span style='color:green'>Lift,<span style='color:green'>Lift","0,0,1,1,0,0,0,0,1,0,0,1","0,0,1,1,1,1,1,0,1,1,0,1","0,1,1,0,1,1",10,20,20,"","","","","{""box1"":""1"",""box2"":""2""}","",6,"round2_outcome",3,6,2,1,2,NA,NA,0,0,20,NA,NA,NA,NA,NA,NA,NA,NA,NA,NA,NA,1,2,NA,NA,0,0,20,NA,NA,NA,NA,NA,NA,NA,NA,NA,NA,NA,"",NA,NA,NA,NA,NA,NA,NA,NA,NA,2025-11-20 22:55:06
"9742.40000000596","https://psyc-201.github.io/xiang2023/exp/index1.html?PROLIFIC_PID=REDACTED&STUDY_ID=691f8ca61c6b4dcbb0aeb5f4&SESSION_ID=691f96a48aa11cacb1ca4a55","survey-html-form",41,1210671,"0.0-356.0","Sbrev3v6Ohpdw4cxjZE5UoIv4PkQiboIAH8d42eiNQGVUHiLnRAH+kkjzfaLA8unv6ChvKE37s+QG1vHpMgUQ9vpy7g5YWggOMWrt8Lh+LJfiNIG2xyXwsGKIZpJusnJIyRbBkMG1DeVlRZh7b7sfJrPTO9dNIlz5qLlaEPElz/snLtP4M0h/n0UMVcZZJVUKrwhOCFeDUgNsI8eBeTQ3CPWOyV5jX0c63Hhw2HKsnhP4bBzf4n64ih8eRaYA0WGQGi1o08sQmnNLNvzzEMH3evhKOhio2a5FrEfP6rTuhNj03l/U2djeb2lo95vc5giP5bpPXlWfnqJqMshHrinOA==","691f8ca61c6b4dcbb0aeb5f4","691f96a48aa11cacb1ca4a55","index1","<span style='color:red'>Fail,<span style='color:red'>Fail,<span style='color:green'>Lift,<span style='color:green'>Lift,<span style='color:red'>Fail,<span style='color:red'>Fail,<span style='color:red'>Fail,<span style='color:red'>Fail,<span style='color:green'>Lift,<span style='color:red'>Fail,<span style='color:red'>Fail,<span style='color:green'>Lift","<span style='color:red'>Fail,<span style='color:red'>Fail,<span style='color:green'>Lift,<span style='color:green'>Lift,<span style='color:green'>Lift,<span style='color:green'>Lift,<span style='color:green'>Lift,<span style='color:red'>Fail,<span style='color:green'>Lift,<span style='color:green'>Lift,<span style='color:red'>Fail,<span style='color:green'>Lift","<span style='color:red'>Fail,<span style='color:green'>Lift,<span style='color:green'>Lift,<span style='color:red'>Fail,<span style='color:green'>Lift,<span style='color:green'>Lift","0,0,1,1,0,0,0,0,1,0,0,1","0,0,1,1,1,1,1,0,1,1,0,1","0,1,1,0,1,1",10,20,20,"","","","","{""box1"":""10""}","",6,"round3_ready",4,6,3,NA,NA,NA,NA,NA,NA,NA,NA,NA,NA,NA,NA,NA,NA,10,10,NA,NA,NA,NA,NA,NA,NA,NA,NA,10,10,NA,NA,NA,NA,NA,NA,NA,NA,NA,"",NA,NA,NA,NA,NA,NA,NA,NA,NA,2025-11-20 22:55:06
"29575.19999998808","https://psyc-201.github.io/xiang2023/exp/index1.html?PROLIFIC_PID=REDACTED&STUDY_ID=691f8ca61c6b4dcbb0aeb5f4&SESSION_ID=691f96a48aa11cacb1ca4a55","survey-html-form",42,1240247,"0.0-358.0-0.0","Sbrev3v6Ohpdw4cxjZE5UoIv4PkQiboIAH8d42eiNQGVUHiLnRAH+kkjzfaLA8unv6ChvKE37s+QG1vHpMgUQ9vpy7g5YWggOMWrt8Lh+LJfiNIG2xyXwsGKIZpJusnJIyRbBkMG1DeVlRZh7b7sfJrPTO9dNIlz5qLlaEPElz/snLtP4M0h/n0UMVcZZJVUKrwhOCFeDUgNsI8eBeTQ3CPWOyV5jX0c63Hhw2HKsnhP4bBzf4n64ih8eRaYA0WGQGi1o08sQmnNLNvzzEMH3evhKOhio2a5FrEfP6rTuhNj03l/U2djeb2lo95vc5giP5bpPXlWfnqJqMshHrinOA==","691f8ca61c6b4dcbb0aeb5f4","691f96a48aa11cacb1ca4a55","index1","<span style='color:red'>Fail,<span style='color:red'>Fail,<span style='color:green'>Lift,<span style='color:green'>Lift,<span style='color:red'>Fail,<span style='color:red'>Fail,<span style='color:red'>Fail,<span style='color:red'>Fail,<span style='color:green'>Lift,<span style='color:red'>Fail,<span style='color:red'>Fail,<span style='color:green'>Lift","<span style='color:red'>Fail,<span style='color:red'>Fail,<span style='color:green'>Lift,<span style='color:green'>Lift,<span style='color:green'>Lift,<span style='color:green'>Lift,<span style='color:green'>Lift,<span style='color:red'>Fail,<span style='color:green'>Lift,<span style='color:green'>Lift,<span style='color:red'>Fail,<span style='color:green'>Lift","<span style='color:red'>Fail,<span style='color:green'>Lift,<span style='color:green'>Lift,<span style='color:red'>Fail,<span style='color:green'>Lift,<span style='color:green'>Lift","0,0,1,1,0,0,0,0,1,0,0,1","0,0,1,1,1,1,1,0,1,1,0,1","0,1,1,0,1,1",10,20,20,"","","","","{""box1"":""2"",""box2"":""2"",""box3"":""999"",""box4"":""999""}","",6,"round3_fail",5,6,3,2,2,NA,NA,0,0,20,NA,NA,NA,NA,NA,NA,NA,NA,NA,NA,NA,NA,NA,NA,NA,NA,NA,NA,NA,NA,2,2,NA,NA,0,0,20,1,1,"",NA,NA,NA,NA,NA,NA,NA,NA,NA,2025-11-20 22:55:06
"73021.20000001788","https://psyc-201.github.io/xiang2023/exp/index1.html?PROLIFIC_PID=REDACTED&STUDY_ID=691f8ca61c6b4dcbb0aeb5f4&SESSION_ID=691f96a48aa11cacb1ca4a55","survey-text",43,1313272,"0.0-361.0","Sbrev3v6Ohpdw4cxjZE5UoIv4PkQiboIAH8d42eiNQGVUHiLnRAH+kkjzfaLA8unv6ChvKE37s+QG1vHpMgUQ9vpy7g5YWggOMWrt8Lh+LJfiNIG2xyXwsGKIZpJusnJIyRbBkMG1DeVlRZh7b7sfJrPTO9dNIlz5qLlaEPElz/snLtP4M0h/n0UMVcZZJVUKrwhOCFeDUgNsI8eBeTQ3CPWOyV5jX0c63Hhw2HKsnhP4bBzf4n64ih8eRaYA0WGQGi1o08sQmnNLNvzzEMH3evhKOhio2a5FrEfP6rTuhNj03l/U2djeb2lo95vc5giP5bpPXlWfnqJqMshHrinOA==","691f8ca61c6b4dcbb0aeb5f4","691f96a48aa11cacb1ca4a55","index1","<span style='color:red'>Fail,<span style='color:red'>Fail,<span style='color:green'>Lift,<span style='color:green'>Lift,<span style='color:red'>Fail,<span style='color:red'>Fail,<span style='color:red'>Fail,<span style='color:red'>Fail,<span style='color:green'>Lift,<span style='color:red'>Fail,<span style='color:red'>Fail,<span style='color:green'>Lift","<span style='color:red'>Fail,<span style='color:red'>Fail,<span style='color:green'>Lift,<span style='color:green'>Lift,<span style='color:green'>Lift,<span style='color:green'>Lift,<span style='color:green'>Lift,<span style='color:red'>Fail,<span style='color:green'>Lift,<span style='color:green'>Lift,<span style='color:red'>Fail,<span style='color:green'>Lift","<span style='color:red'>Fail,<span style='color:green'>Lift,<span style='color:green'>Lift,<span style='color:red'>Fail,<span style='color:green'>Lift,<span style='color:green'>Lift","0,0,1,1,0,0,0,0,1,0,0,1","0,0,1,1,1,1,1,0,1,1,0,1","0,1,1,0,1,1",10,20,20,"","","","","{""Q0"":""I predicted the strength of new contestants in each round and their probability of lifting the boxes. The boxes weighed the same through each round and the contestants changed as well as their strengths. ""}","",NA,"",NA,NA,NA,NA,NA,NA,NA,NA,NA,NA,NA,NA,NA,NA,NA,NA,NA,NA,NA,NA,NA,NA,NA,NA,NA,NA,NA,NA,NA,NA,NA,NA,NA,NA,NA,NA,NA,NA,NA,"",NA,NA,NA,NA,NA,NA,NA,NA,NA,2025-11-20 22:55:06
"110702.5","https://psyc-201.github.io/xiang2023/exp/index1.html?PROLIFIC_PID=REDACTED&STUDY_ID=691f8ca61c6b4dcbb0aeb5f4&SESSION_ID=691f96a48aa11cacb1ca4a55","survey-text",44,1423976,"0.0-362.0","Sbrev3v6Ohpdw4cxjZE5UoIv4PkQiboIAH8d42eiNQGVUHiLnRAH+kkjzfaLA8unv6ChvKE37s+QG1vHpMgUQ9vpy7g5YWggOMWrt8Lh+LJfiNIG2xyXwsGKIZpJusnJIyRbBkMG1DeVlRZh7b7sfJrPTO9dNIlz5qLlaEPElz/snLtP4M0h/n0UMVcZZJVUKrwhOCFeDUgNsI8eBeTQ3CPWOyV5jX0c63Hhw2HKsnhP4bBzf4n64ih8eRaYA0WGQGi1o08sQmnNLNvzzEMH3evhKOhio2a5FrEfP6rTuhNj03l/U2djeb2lo95vc5giP5bpPXlWfnqJqMshHrinOA==","691f8ca61c6b4dcbb0aeb5f4","691f96a48aa11cacb1ca4a55","index1","<span style='color:red'>Fail,<span style='color:red'>Fail,<span style='color:green'>Lift,<span style='color:green'>Lift,<span style='color:red'>Fail,<span style='color:red'>Fail,<span style='color:red'>Fail,<span style='color:red'>Fail,<span style='color:green'>Lift,<span style='color:red'>Fail,<span style='color:red'>Fail,<span style='color:green'>Lift","<span style='color:red'>Fail,<span style='color:red'>Fail,<span style='color:green'>Lift,<span style='color:green'>Lift,<span style='color:green'>Lift,<span style='color:green'>Lift,<span style='color:green'>Lift,<span style='color:red'>Fail,<span style='color:green'>Lift,<span style='color:green'>Lift,<span style='color:red'>Fail,<span style='color:green'>Lift","<span style='color:red'>Fail,<span style='color:green'>Lift,<span style='color:green'>Lift,<span style='color:red'>Fail,<span style='color:green'>Lift,<span style='color:green'>Lift","0,0,1,1,0,0,0,0,1,0,0,1","0,0,1,1,1,1,1,0,1,1,0,1","0,1,1,0,1,1",10,20,20,"","","","","{""Q0"":""Thank you""}","",NA,"",NA,NA,NA,NA,NA,NA,NA,NA,NA,NA,NA,NA,NA,NA,NA,NA,NA,NA,NA,NA,NA,NA,NA,NA,NA,NA,NA,NA,NA,NA,NA,NA,NA,NA,NA,NA,NA,NA,NA,"[{""event"":""blur"",""trial"":1,""time"":80867},{""event"":""focus"",""trial"":1,""time"":83047},{""event"":""fullscreenenter"",""trial"":1,""time"":90118}]",2,2,0,40,1,0.4,NA,NA,NA,2025-11-20 22:55:06
"9293.59999999404","https://psyc-201.github.io/xiang2023/exp/index1.html?PROLIFIC_PID=REDACTED&STUDY_ID=691f8ca61c6b4dcbb0aeb5f4&SESSION_ID=691f96a48aa11cacb1ca4a55","html-button-response",45,1433271,"0.0-363.0","Sbrev3v6Ohpdw4cxjZE5UoIv4PkQiboIAH8d42eiNQGVUHiLnRAH+kkjzfaLA8unv6ChvKE37s+QG1vHpMgUQ9vpy7g5YWggOMWrt8Lh+LJfiNIG2xyXwsGKIZpJusnJIyRbBkMG1DeVlRZh7b7sfJrPTO9dNIlz5qLlaEPElz/snLtP4M0h/n0UMVcZZJVUKrwhOCFeDUgNsI8eBeTQ3CPWOyV5jX0c63Hhw2HKsnhP4bBzf4n64ih8eRaYA0WGQGi1o08sQmnNLNvzzEMH3evhKOhio2a5FrEfP6rTuhNj03l/U2djeb2lo95vc5giP5bpPXlWfnqJqMshHrinOA==","691f8ca61c6b4dcbb0aeb5f4","691f96a48aa11cacb1ca4a55","index1","<span style='color:red'>Fail,<span style='color:red'>Fail,<span style='color:green'>Lift,<span style='color:green'>Lift,<span style='color:red'>Fail,<span style='color:red'>Fail,<span style='color:red'>Fail,<span style='color:red'>Fail,<span style='color:green'>Lift,<span style='color:red'>Fail,<span style='color:red'>Fail,<span style='color:green'>Lift","<span style='color:red'>Fail,<span style='color:red'>Fail,<span style='color:green'>Lift,<span style='color:green'>Lift,<span style='color:green'>Lift,<span style='color:green'>Lift,<span style='color:green'>Lift,<span style='color:red'>Fail,<span style='color:green'>Lift,<span style='color:green'>Lift,<span style='color:red'>Fail,<span style='color:green'>Lift","<span style='color:red'>Fail,<span style='color:green'>Lift,<span style='color:green'>Lift,<span style='color:red'>Fail,<span style='color:green'>Lift,<span style='color:green'>Lift","0,0,1,1,0,0,0,0,1,0,0,1","0,0,1,1,1,1,1,0,1,1,0,1","0,1,1,0,1,1",10,20,20,"","","<p> We randomly picked <b>Contest 2, Round 2</b> to calculate your bonus. </p><p> The outcome of Contestant C on that round is <span style='color:green'>Lift</span>. </p><p> The probability you entered was 40. </p><p><b> You won a bonus of $0.40!</b></p><p> IMPORTANT: Please click 'Next' to complete the game.</p>","","","",NA,"",NA,NA,NA,NA,NA,NA,NA,NA,NA,NA,NA,NA,NA,NA,NA,NA,NA,NA,NA,NA,NA,NA,NA,NA,NA,NA,NA,NA,NA,NA,NA,NA,NA,NA,NA,NA,NA,NA,NA,"",NA,NA,NA,NA,NA,NA,0,2,1,2025-11-20 22:55:06
