"rt","url","trial_type","trial_index","time_elapsed","internal_node_id","encryptedProlificId","studyId","sessionId","expIndex","round1_outcomes","round2_outcomes","round3_outcomes","round1_o","round2_o","round3_o","round1_reward","round2_reward","round3_reward","success","view_history","stimulus","key_press","responses","question_order","button_pressed","j","Stage","stage","contest","round","strength_a","strength_b","effort_a","effort_b","outcome_a","outcome_b","reward","r1_strength_a","r1_strength_b","r1_effort_a","r1_effort_b","r1_outcome_a","r1_outcome_b","r1_reward","probability_a","probability_b","r2_prob_a","r2_prob_b","r2_strength_a","r2_strength_b","r2_effort_a","r2_effort_b","r2_outcome_a","r2_outcome_b","r2_reward","r3_prob_a","r3_prob_b","r3_strength_a","r3_strength_b","r3_effort_a","r3_effort_b","r3_outcome_a","r3_outcome_b","r3_reward","attention_check","count","screen","pick_contest","pick_round","pick_side","trial_probability","trial_outcome","bonus","attention_sum","attention","datapipe_meta.attributes.date_modified"
"13568.800000071526","https://psyc-201.github.io/xiang2023/exp/index1.html?PROLIFIC_PID=REDACTED&STUDY_ID=691f8ca61c6b4dcbb0aeb5f4&SESSION_ID=691fabdc3ebea909549f188c","external-html",0,14391,"0.0-0.0","noZMTagdDP6pVgvbTDJhVmApjn2m6QBlaqop99cEvbCIpVEEYp0mMioaWFEsZ3RobK8UsugL6gnYSxriKEc5fB4CsJiFkutwrLr62uuGwLLk3Fduy1uZPbvp2yLiTgtbGPf9cbnIgLcaPHFfYNWB0uqgBUmOOV8OjwIqKCXfU/rj0mY8GWnCzZ2Hnmr0/zgspLrPYnd55w/e+sP7L4uApWn3JQYf5x5X0nire0izpmnILrJlnIASgo0H6RBPexrGzyPhasHWRf7of/vBPLHIzE8Ji6OoCHvHXFbFX1d7n7BOjAgCPGfSmLfEFC3WJsmkHiachhZGEsN2YnAE9uyjuQ==","691f8ca61c6b4dcbb0aeb5f4","691fabdc3ebea909549f188c","index1","<span style='color:red'>Fail,<span style='color:red'>Fail,<span style='color:green'>Lift,<span style='color:green'>Lift,<span style='color:red'>Fail,<span style='color:red'>Fail,<span style='color:red'>Fail,<span style='color:red'>Fail,<span style='color:green'>Lift,<span style='color:red'>Fail,<span style='color:green'>Lift,<span style='color:red'>Fail","<span style='color:red'>Fail,<span style='color:red'>Fail,<span style='color:green'>Lift,<span style='color:green'>Lift,<span style='color:green'>Lift,<span style='color:green'>Lift,<span style='color:green'>Lift,<span style='color:red'>Fail,<span style='color:green'>Lift,<span style='color:green'>Lift,<span style='color:green'>Lift,<span style='color:red'>Fail","<span style='color:red'>Fail,<span style='color:green'>Lift,<span style='color:green'>Lift,<span style='color:red'>Fail,<span style='color:green'>Lift,<span style='color:green'>Lift","0,0,1,1,0,0,0,0,1,0,1,0","0,0,1,1,1,1,1,0,1,1,1,0","0,1,1,0,1,1",10,20,20,"","","","","","",NA,NA,"",NA,NA,NA,NA,NA,NA,NA,NA,NA,NA,NA,NA,NA,NA,NA,NA,NA,NA,NA,NA,NA,NA,NA,NA,NA,NA,NA,NA,NA,NA,NA,NA,NA,NA,NA,NA,NA,NA,NA,"",NA,NA,NA,NA,NA,NA,NA,NA,2025-11-21 00:45:11
"","https://psyc-201.github.io/xiang2023/exp/index1.html?PROLIFIC_PID=REDACTED&STUDY_ID=691f8ca61c6b4dcbb0aeb5f4&SESSION_ID=691fabdc3ebea909549f188c","fullscreen",1,256166,"0.0-1.0","noZMTagdDP6pVgvbTDJhVmApjn2m6QBlaqop99cEvbCIpVEEYp0mMioaWFEsZ3RobK8UsugL6gnYSxriKEc5fB4CsJiFkutwrLr62uuGwLLk3Fduy1uZPbvp2yLiTgtbGPf9cbnIgLcaPHFfYNWB0uqgBUmOOV8OjwIqKCXfU/rj0mY8GWnCzZ2Hnmr0/zgspLrPYnd55w/e+sP7L4uApWn3JQYf5x5X0nire0izpmnILrJlnIASgo0H6RBPexrGzyPhasHWRf7of/vBPLHIzE8Ji6OoCHvHXFbFX1d7n7BOjAgCPGfSmLfEFC3WJsmkHiachhZGEsN2YnAE9uyjuQ==","691f8ca61c6b4dcbb0aeb5f4","691fabdc3ebea909549f188c","index1","<span style='color:red'>Fail,<span style='color:red'>Fail,<span style='color:green'>Lift,<span style='color:green'>Lift,<span style='color:red'>Fail,<span style='color:red'>Fail,<span style='color:red'>Fail,<span style='color:red'>Fail,<span style='color:green'>Lift,<span style='color:red'>Fail,<span style='color:green'>Lift,<span style='color:red'>Fail","<span style='color:red'>Fail,<span style='color:red'>Fail,<span style='color:green'>Lift,<span style='color:green'>Lift,<span style='color:green'>Lift,<span style='color:green'>Lift,<span style='color:green'>Lift,<span style='color:red'>Fail,<span style='color:green'>Lift,<span style='color:green'>Lift,<span style='color:green'>Lift,<span style='color:red'>Fail","<span style='color:red'>Fail,<span style='color:green'>Lift,<span style='color:green'>Lift,<span style='color:red'>Fail,<span style='color:green'>Lift,<span style='color:green'>Lift","0,0,1,1,0,0,0,0,1,0,1,0","0,0,1,1,1,1,1,0,1,1,1,0","0,1,1,0,1,1",10,20,20,"true","","","","","",NA,NA,"",NA,NA,NA,NA,NA,NA,NA,NA,NA,NA,NA,NA,NA,NA,NA,NA,NA,NA,NA,NA,NA,NA,NA,NA,NA,NA,NA,NA,NA,NA,NA,NA,NA,NA,NA,NA,NA,NA,NA,"",NA,NA,NA,NA,NA,NA,NA,NA,2025-11-21 00:45:11
"731837.5","https://psyc-201.github.io/xiang2023/exp/index1.html?PROLIFIC_PID=REDACTED&STUDY_ID=691f8ca61c6b4dcbb0aeb5f4&SESSION_ID=691fabdc3ebea909549f188c","instructions",2,988006,"0.0-2.0","noZMTagdDP6pVgvbTDJhVmApjn2m6QBlaqop99cEvbCIpVEEYp0mMioaWFEsZ3RobK8UsugL6gnYSxriKEc5fB4CsJiFkutwrLr62uuGwLLk3Fduy1uZPbvp2yLiTgtbGPf9cbnIgLcaPHFfYNWB0uqgBUmOOV8OjwIqKCXfU/rj0mY8GWnCzZ2Hnmr0/zgspLrPYnd55w/e+sP7L4uApWn3JQYf5x5X0nire0izpmnILrJlnIASgo0H6RBPexrGzyPhasHWRf7of/vBPLHIzE8Ji6OoCHvHXFbFX1d7n7BOjAgCPGfSmLfEFC3WJsmkHiachhZGEsN2YnAE9uyjuQ==","691f8ca61c6b4dcbb0aeb5f4","691fabdc3ebea909549f188c","index1","<span style='color:red'>Fail,<span style='color:red'>Fail,<span style='color:green'>Lift,<span style='color:green'>Lift,<span style='color:red'>Fail,<span style='color:red'>Fail,<span style='color:red'>Fail,<span style='color:red'>Fail,<span style='color:green'>Lift,<span style='color:red'>Fail,<span style='color:green'>Lift,<span style='color:red'>Fail","<span style='color:red'>Fail,<span style='color:red'>Fail,<span style='color:green'>Lift,<span style='color:green'>Lift,<span style='color:green'>Lift,<span style='color:green'>Lift,<span style='color:green'>Lift,<span style='color:red'>Fail,<span style='color:green'>Lift,<span style='color:green'>Lift,<span style='color:green'>Lift,<span style='color:red'>Fail","<span style='color:red'>Fail,<span style='color:green'>Lift,<span style='color:green'>Lift,<span style='color:red'>Fail,<span style='color:green'>Lift,<span style='color:green'>Lift","0,0,1,1,0,0,0,0,1,0,1,0","0,0,1,1,1,1,1,0,1,1,1,0","0,1,1,0,1,1",10,20,20,"","[{""page_index"":0,""viewing_time"":337260.89999997616},{""page_index"":1,""viewing_time"":243913.79999995232},{""page_index"":2,""viewing_time"":51101.700000047684},{""page_index"":3,""viewing_time"":15759.299999952316},{""page_index"":4,""viewing_time"":4504},{""page_index"":5,""viewing_time"":12699.5},{""page_index"":6,""viewing_time"":66597.80000007153}]","","","","",NA,NA,"",NA,NA,NA,NA,NA,NA,NA,NA,NA,NA,NA,NA,NA,NA,NA,NA,NA,NA,NA,NA,NA,NA,NA,NA,NA,NA,NA,NA,NA,NA,NA,NA,NA,NA,NA,NA,NA,NA,NA,"",NA,NA,NA,NA,NA,NA,NA,NA,2025-11-21 00:45:11
"null","https://psyc-201.github.io/xiang2023/exp/index1.html?PROLIFIC_PID=REDACTED&STUDY_ID=691f8ca61c6b4dcbb0aeb5f4&SESSION_ID=691fabdc3ebea909549f188c","html-keyboard-response",3,989008,"0.0-3.0","noZMTagdDP6pVgvbTDJhVmApjn2m6QBlaqop99cEvbCIpVEEYp0mMioaWFEsZ3RobK8UsugL6gnYSxriKEc5fB4CsJiFkutwrLr62uuGwLLk3Fduy1uZPbvp2yLiTgtbGPf9cbnIgLcaPHFfYNWB0uqgBUmOOV8OjwIqKCXfU/rj0mY8GWnCzZ2Hnmr0/zgspLrPYnd55w/e+sP7L4uApWn3JQYf5x5X0nire0izpmnILrJlnIASgo0H6RBPexrGzyPhasHWRf7of/vBPLHIzE8Ji6OoCHvHXFbFX1d7n7BOjAgCPGfSmLfEFC3WJsmkHiachhZGEsN2YnAE9uyjuQ==","691f8ca61c6b4dcbb0aeb5f4","691fabdc3ebea909549f188c","index1","<span style='color:red'>Fail,<span style='color:red'>Fail,<span style='color:green'>Lift,<span style='color:green'>Lift,<span style='color:red'>Fail,<span style='color:red'>Fail,<span style='color:red'>Fail,<span style='color:red'>Fail,<span style='color:green'>Lift,<span style='color:red'>Fail,<span style='color:green'>Lift,<span style='color:red'>Fail","<span style='color:red'>Fail,<span style='color:red'>Fail,<span style='color:green'>Lift,<span style='color:green'>Lift,<span style='color:green'>Lift,<span style='color:green'>Lift,<span style='color:green'>Lift,<span style='color:red'>Fail,<span style='color:green'>Lift,<span style='color:green'>Lift,<span style='color:green'>Lift,<span style='color:red'>Fail","<span style='color:red'>Fail,<span style='color:green'>Lift,<span style='color:green'>Lift,<span style='color:red'>Fail,<span style='color:green'>Lift,<span style='color:green'>Lift","0,0,1,1,0,0,0,0,1,0,1,0","0,0,1,1,1,1,1,0,1,1,1,0","0,1,1,0,1,1",10,20,20,"",""," ","null","","",NA,NA,"",NA,NA,NA,NA,NA,NA,NA,NA,NA,NA,NA,NA,NA,NA,NA,NA,NA,NA,NA,NA,NA,NA,NA,NA,NA,NA,NA,NA,NA,NA,NA,NA,NA,NA,NA,NA,NA,NA,NA,"",NA,NA,NA,NA,NA,NA,NA,NA,2025-11-21 00:45:11
"67942.60000002384","https://psyc-201.github.io/xiang2023/exp/index1.html?PROLIFIC_PID=REDACTED&STUDY_ID=691f8ca61c6b4dcbb0aeb5f4&SESSION_ID=691fabdc3ebea909549f188c","survey-multi-choice",4,1056956,"0.0-4.0","noZMTagdDP6pVgvbTDJhVmApjn2m6QBlaqop99cEvbCIpVEEYp0mMioaWFEsZ3RobK8UsugL6gnYSxriKEc5fB4CsJiFkutwrLr62uuGwLLk3Fduy1uZPbvp2yLiTgtbGPf9cbnIgLcaPHFfYNWB0uqgBUmOOV8OjwIqKCXfU/rj0mY8GWnCzZ2Hnmr0/zgspLrPYnd55w/e+sP7L4uApWn3JQYf5x5X0nire0izpmnILrJlnIASgo0H6RBPexrGzyPhasHWRf7of/vBPLHIzE8Ji6OoCHvHXFbFX1d7n7BOjAgCPGfSmLfEFC3WJsmkHiachhZGEsN2YnAE9uyjuQ==","691f8ca61c6b4dcbb0aeb5f4","691fabdc3ebea909549f188c","index1","<span style='color:red'>Fail,<span style='color:red'>Fail,<span style='color:green'>Lift,<span style='color:green'>Lift,<span style='color:red'>Fail,<span style='color:red'>Fail,<span style='color:red'>Fail,<span style='color:red'>Fail,<span style='color:green'>Lift,<span style='color:red'>Fail,<span style='color:green'>Lift,<span style='color:red'>Fail","<span style='color:red'>Fail,<span style='color:red'>Fail,<span style='color:green'>Lift,<span style='color:green'>Lift,<span style='color:green'>Lift,<span style='color:green'>Lift,<span style='color:green'>Lift,<span style='color:red'>Fail,<span style='color:green'>Lift,<span style='color:green'>Lift,<span style='color:green'>Lift,<span style='color:red'>Fail","<span style='color:red'>Fail,<span style='color:green'>Lift,<span style='color:green'>Lift,<span style='color:red'>Fail,<span style='color:green'>Lift,<span style='color:green'>Lift","0,0,1,1,0,0,0,0,1,0,1,0","0,0,1,1,1,1,1,0,1,1,1,0","0,1,1,0,1,1",10,20,20,"","","","","{""Q0"":""It consists of multiple contests, each contest with one round."",""Q1"":""When a new round starts."",""Q2"":""The box weight always stays the same (equivalent to strength of 5)."",""Q3"":""They will split the $20 unevenly proportional to strength."",""Q4"":""How close my guesses are to the actual outcome.""}","[0,1,2,3,4]",NA,NA,"",NA,NA,NA,NA,NA,NA,NA,NA,NA,NA,NA,NA,NA,NA,NA,NA,NA,NA,NA,NA,NA,NA,NA,NA,NA,NA,NA,NA,NA,NA,NA,NA,NA,NA,NA,NA,NA,NA,NA,"",NA,NA,NA,NA,NA,NA,NA,NA,2025-11-21 00:45:11
"3833.899999976158","https://psyc-201.github.io/xiang2023/exp/index1.html?PROLIFIC_PID=REDACTED&STUDY_ID=691f8ca61c6b4dcbb0aeb5f4&SESSION_ID=691fabdc3ebea909549f188c","html-button-response",5,1060792,"0.0-5.0-1.0","noZMTagdDP6pVgvbTDJhVmApjn2m6QBlaqop99cEvbCIpVEEYp0mMioaWFEsZ3RobK8UsugL6gnYSxriKEc5fB4CsJiFkutwrLr62uuGwLLk3Fduy1uZPbvp2yLiTgtbGPf9cbnIgLcaPHFfYNWB0uqgBUmOOV8OjwIqKCXfU/rj0mY8GWnCzZ2Hnmr0/zgspLrPYnd55w/e+sP7L4uApWn3JQYf5x5X0nire0izpmnILrJlnIASgo0H6RBPexrGzyPhasHWRf7of/vBPLHIzE8Ji6OoCHvHXFbFX1d7n7BOjAgCPGfSmLfEFC3WJsmkHiachhZGEsN2YnAE9uyjuQ==","691f8ca61c6b4dcbb0aeb5f4","691fabdc3ebea909549f188c","index1","<span style='color:red'>Fail,<span style='color:red'>Fail,<span style='color:green'>Lift,<span style='color:green'>Lift,<span style='color:red'>Fail,<span style='color:red'>Fail,<span style='color:red'>Fail,<span style='color:red'>Fail,<span style='color:green'>Lift,<span style='color:red'>Fail,<span style='color:green'>Lift,<span style='color:red'>Fail","<span style='color:red'>Fail,<span style='color:red'>Fail,<span style='color:green'>Lift,<span style='color:green'>Lift,<span style='color:green'>Lift,<span style='color:green'>Lift,<span style='color:green'>Lift,<span style='color:red'>Fail,<span style='color:green'>Lift,<span style='color:green'>Lift,<span style='color:green'>Lift,<span style='color:red'>Fail","<span style='color:red'>Fail,<span style='color:green'>Lift,<span style='color:green'>Lift,<span style='color:red'>Fail,<span style='color:green'>Lift,<span style='color:green'>Lift","0,0,1,1,0,0,0,0,1,0,1,0","0,0,1,1,1,1,1,0,1,1,1,0","0,1,1,0,1,1",10,20,20,"","","<p> Oops! You did not pass the comprehension check. <b>Please note that you have only 1 attempt(s) left.</b> </p>","","","",1,NA,"",NA,NA,NA,NA,NA,NA,NA,NA,NA,NA,NA,NA,NA,NA,NA,NA,NA,NA,NA,NA,NA,NA,NA,NA,NA,NA,NA,NA,NA,NA,NA,NA,NA,NA,NA,NA,NA,NA,NA,"",NA,NA,NA,NA,NA,NA,NA,NA,2025-11-21 00:45:11
"63365.39999997616","https://psyc-201.github.io/xiang2023/exp/index1.html?PROLIFIC_PID=REDACTED&STUDY_ID=691f8ca61c6b4dcbb0aeb5f4&SESSION_ID=691fabdc3ebea909549f188c","instructions",6,1124158,"0.0-6.0-0.0","noZMTagdDP6pVgvbTDJhVmApjn2m6QBlaqop99cEvbCIpVEEYp0mMioaWFEsZ3RobK8UsugL6gnYSxriKEc5fB4CsJiFkutwrLr62uuGwLLk3Fduy1uZPbvp2yLiTgtbGPf9cbnIgLcaPHFfYNWB0uqgBUmOOV8OjwIqKCXfU/rj0mY8GWnCzZ2Hnmr0/zgspLrPYnd55w/e+sP7L4uApWn3JQYf5x5X0nire0izpmnILrJlnIASgo0H6RBPexrGzyPhasHWRf7of/vBPLHIzE8Ji6OoCHvHXFbFX1d7n7BOjAgCPGfSmLfEFC3WJsmkHiachhZGEsN2YnAE9uyjuQ==","691f8ca61c6b4dcbb0aeb5f4","691fabdc3ebea909549f188c","index1","<span style='color:red'>Fail,<span style='color:red'>Fail,<span style='color:green'>Lift,<span style='color:green'>Lift,<span style='color:red'>Fail,<span style='color:red'>Fail,<span style='color:red'>Fail,<span style='color:red'>Fail,<span style='color:green'>Lift,<span style='color:red'>Fail,<span style='color:green'>Lift,<span style='color:red'>Fail","<span style='color:red'>Fail,<span style='color:red'>Fail,<span style='color:green'>Lift,<span style='color:green'>Lift,<span style='color:green'>Lift,<span style='color:green'>Lift,<span style='color:green'>Lift,<span style='color:red'>Fail,<span style='color:green'>Lift,<span style='color:green'>Lift,<span style='color:green'>Lift,<span style='color:red'>Fail","<span style='color:red'>Fail,<span style='color:green'>Lift,<span style='color:green'>Lift,<span style='color:red'>Fail,<span style='color:green'>Lift,<span style='color:green'>Lift","0,0,1,1,0,0,0,0,1,0,1,0","0,0,1,1,1,1,1,0,1,1,1,0","0,1,1,0,1,1",10,20,20,"","[{""page_index"":0,""viewing_time"":13904},{""page_index"":1,""viewing_time"":5677.699999928474},{""page_index"":2,""viewing_time"":6903.700000047684},{""page_index"":3,""viewing_time"":10472.399999976158},{""page_index"":4,""viewing_time"":7760.399999976158},{""page_index"":5,""viewing_time"":8619.200000047684},{""page_index"":6,""viewing_time"":10027.799999952316}]","","","","",NA,NA,"",NA,NA,NA,NA,NA,NA,NA,NA,NA,NA,NA,NA,NA,NA,NA,NA,NA,NA,NA,NA,NA,NA,NA,NA,NA,NA,NA,NA,NA,NA,NA,NA,NA,NA,NA,NA,NA,NA,NA,"",NA,NA,NA,NA,NA,NA,NA,NA,2025-11-21 00:45:11
"null","https://psyc-201.github.io/xiang2023/exp/index1.html?PROLIFIC_PID=REDACTED&STUDY_ID=691f8ca61c6b4dcbb0aeb5f4&SESSION_ID=691fabdc3ebea909549f188c","html-keyboard-response",7,1125172,"0.0-6.0-1.0","noZMTagdDP6pVgvbTDJhVmApjn2m6QBlaqop99cEvbCIpVEEYp0mMioaWFEsZ3RobK8UsugL6gnYSxriKEc5fB4CsJiFkutwrLr62uuGwLLk3Fduy1uZPbvp2yLiTgtbGPf9cbnIgLcaPHFfYNWB0uqgBUmOOV8OjwIqKCXfU/rj0mY8GWnCzZ2Hnmr0/zgspLrPYnd55w/e+sP7L4uApWn3JQYf5x5X0nire0izpmnILrJlnIASgo0H6RBPexrGzyPhasHWRf7of/vBPLHIzE8Ji6OoCHvHXFbFX1d7n7BOjAgCPGfSmLfEFC3WJsmkHiachhZGEsN2YnAE9uyjuQ==","691f8ca61c6b4dcbb0aeb5f4","691fabdc3ebea909549f188c","index1","<span style='color:red'>Fail,<span style='color:red'>Fail,<span style='color:green'>Lift,<span style='color:green'>Lift,<span style='color:red'>Fail,<span style='color:red'>Fail,<span style='color:red'>Fail,<span style='color:red'>Fail,<span style='color:green'>Lift,<span style='color:red'>Fail,<span style='color:green'>Lift,<span style='color:red'>Fail","<span style='color:red'>Fail,<span style='color:red'>Fail,<span style='color:green'>Lift,<span style='color:green'>Lift,<span style='color:green'>Lift,<span style='color:green'>Lift,<span style='color:green'>Lift,<span style='color:red'>Fail,<span style='color:green'>Lift,<span style='color:green'>Lift,<span style='color:green'>Lift,<span style='color:red'>Fail","<span style='color:red'>Fail,<span style='color:green'>Lift,<span style='color:green'>Lift,<span style='color:red'>Fail,<span style='color:green'>Lift,<span style='color:green'>Lift","0,0,1,1,0,0,0,0,1,0,1,0","0,0,1,1,1,1,1,0,1,1,1,0","0,1,1,0,1,1",10,20,20,"",""," ","null","","",NA,NA,"",NA,NA,NA,NA,NA,NA,NA,NA,NA,NA,NA,NA,NA,NA,NA,NA,NA,NA,NA,NA,NA,NA,NA,NA,NA,NA,NA,NA,NA,NA,NA,NA,NA,NA,NA,NA,NA,NA,NA,"",NA,NA,NA,NA,NA,NA,NA,NA,2025-11-21 00:45:11
"45059.39999997616","https://psyc-201.github.io/xiang2023/exp/index1.html?PROLIFIC_PID=REDACTED&STUDY_ID=691f8ca61c6b4dcbb0aeb5f4&SESSION_ID=691fabdc3ebea909549f188c","survey-multi-choice",8,1170235,"0.0-7.0-0.0","noZMTagdDP6pVgvbTDJhVmApjn2m6QBlaqop99cEvbCIpVEEYp0mMioaWFEsZ3RobK8UsugL6gnYSxriKEc5fB4CsJiFkutwrLr62uuGwLLk3Fduy1uZPbvp2yLiTgtbGPf9cbnIgLcaPHFfYNWB0uqgBUmOOV8OjwIqKCXfU/rj0mY8GWnCzZ2Hnmr0/zgspLrPYnd55w/e+sP7L4uApWn3JQYf5x5X0nire0izpmnILrJlnIASgo0H6RBPexrGzyPhasHWRf7of/vBPLHIzE8Ji6OoCHvHXFbFX1d7n7BOjAgCPGfSmLfEFC3WJsmkHiachhZGEsN2YnAE9uyjuQ==","691f8ca61c6b4dcbb0aeb5f4","691fabdc3ebea909549f188c","index1","<span style='color:red'>Fail,<span style='color:red'>Fail,<span style='color:green'>Lift,<span style='color:green'>Lift,<span style='color:red'>Fail,<span style='color:red'>Fail,<span style='color:red'>Fail,<span style='color:red'>Fail,<span style='color:green'>Lift,<span style='color:red'>Fail,<span style='color:green'>Lift,<span style='color:red'>Fail","<span style='color:red'>Fail,<span style='color:red'>Fail,<span style='color:green'>Lift,<span style='color:green'>Lift,<span style='color:green'>Lift,<span style='color:green'>Lift,<span style='color:green'>Lift,<span style='color:red'>Fail,<span style='color:green'>Lift,<span style='color:green'>Lift,<span style='color:green'>Lift,<span style='color:red'>Fail","<span style='color:red'>Fail,<span style='color:green'>Lift,<span style='color:green'>Lift,<span style='color:red'>Fail,<span style='color:green'>Lift,<span style='color:green'>Lift","0,0,1,1,0,0,0,0,1,0,1,0","0,0,1,1,1,1,1,0,1,1,1,0","0,1,1,0,1,1",10,20,20,"","","","","{""Q0"":""It consists of multiple contests, each contest with three rounds."",""Q1"":""When a new contest begins."",""Q2"":""The box weight always stays the same (equivalent to strength of 5)."",""Q3"":""Each will get $20."",""Q4"":""How close my guesses are to the actual outcome.""}","[0,1,2,3,4]",NA,NA,"",NA,NA,NA,NA,NA,NA,NA,NA,NA,NA,NA,NA,NA,NA,NA,NA,NA,NA,NA,NA,NA,NA,NA,NA,NA,NA,NA,NA,NA,NA,NA,NA,NA,NA,NA,NA,NA,NA,NA,"",NA,NA,NA,NA,NA,NA,NA,NA,2025-11-21 00:45:11
"45379.299999952316","https://psyc-201.github.io/xiang2023/exp/index1.html?PROLIFIC_PID=REDACTED&STUDY_ID=691f8ca61c6b4dcbb0aeb5f4&SESSION_ID=691fabdc3ebea909549f188c","instructions",9,1215622,"0.0-305.0","noZMTagdDP6pVgvbTDJhVmApjn2m6QBlaqop99cEvbCIpVEEYp0mMioaWFEsZ3RobK8UsugL6gnYSxriKEc5fB4CsJiFkutwrLr62uuGwLLk3Fduy1uZPbvp2yLiTgtbGPf9cbnIgLcaPHFfYNWB0uqgBUmOOV8OjwIqKCXfU/rj0mY8GWnCzZ2Hnmr0/zgspLrPYnd55w/e+sP7L4uApWn3JQYf5x5X0nire0izpmnILrJlnIASgo0H6RBPexrGzyPhasHWRf7of/vBPLHIzE8Ji6OoCHvHXFbFX1d7n7BOjAgCPGfSmLfEFC3WJsmkHiachhZGEsN2YnAE9uyjuQ==","691f8ca61c6b4dcbb0aeb5f4","691fabdc3ebea909549f188c","index1","<span style='color:red'>Fail,<span style='color:red'>Fail,<span style='color:green'>Lift,<span style='color:green'>Lift,<span style='color:red'>Fail,<span style='color:red'>Fail,<span style='color:red'>Fail,<span style='color:red'>Fail,<span style='color:green'>Lift,<span style='color:red'>Fail,<span style='color:green'>Lift,<span style='color:red'>Fail","<span style='color:red'>Fail,<span style='color:red'>Fail,<span style='color:green'>Lift,<span style='color:green'>Lift,<span style='color:green'>Lift,<span style='color:green'>Lift,<span style='color:green'>Lift,<span style='color:red'>Fail,<span style='color:green'>Lift,<span style='color:green'>Lift,<span style='color:green'>Lift,<span style='color:red'>Fail","<span style='color:red'>Fail,<span style='color:green'>Lift,<span style='color:green'>Lift,<span style='color:red'>Fail,<span style='color:green'>Lift,<span style='color:green'>Lift","0,0,1,1,0,0,0,0,1,0,1,0","0,0,1,1,1,1,1,0,1,1,1,0","0,1,1,0,1,1",10,20,20,"","[{""page_index"":0,""viewing_time"":13580.299999952316},{""page_index"":1,""viewing_time"":31798.600000023842}]","","","","",NA,NA,"",NA,NA,NA,NA,NA,NA,NA,NA,NA,NA,NA,NA,NA,NA,NA,NA,NA,NA,NA,NA,NA,NA,NA,NA,NA,NA,NA,NA,NA,NA,NA,NA,NA,NA,NA,NA,NA,NA,NA,"",NA,NA,NA,NA,NA,NA,NA,NA,2025-11-21 00:45:11
"null","https://psyc-201.github.io/xiang2023/exp/index1.html?PROLIFIC_PID=REDACTED&STUDY_ID=691f8ca61c6b4dcbb0aeb5f4&SESSION_ID=691fabdc3ebea909549f188c","html-keyboard-response",10,1216636,"0.0-306.0","noZMTagdDP6pVgvbTDJhVmApjn2m6QBlaqop99cEvbCIpVEEYp0mMioaWFEsZ3RobK8UsugL6gnYSxriKEc5fB4CsJiFkutwrLr62uuGwLLk3Fduy1uZPbvp2yLiTgtbGPf9cbnIgLcaPHFfYNWB0uqgBUmOOV8OjwIqKCXfU/rj0mY8GWnCzZ2Hnmr0/zgspLrPYnd55w/e+sP7L4uApWn3JQYf5x5X0nire0izpmnILrJlnIASgo0H6RBPexrGzyPhasHWRf7of/vBPLHIzE8Ji6OoCHvHXFbFX1d7n7BOjAgCPGfSmLfEFC3WJsmkHiachhZGEsN2YnAE9uyjuQ==","691f8ca61c6b4dcbb0aeb5f4","691fabdc3ebea909549f188c","index1","<span style='color:red'>Fail,<span style='color:red'>Fail,<span style='color:green'>Lift,<span style='color:green'>Lift,<span style='color:red'>Fail,<span style='color:red'>Fail,<span style='color:red'>Fail,<span style='color:red'>Fail,<span style='color:green'>Lift,<span style='color:red'>Fail,<span style='color:green'>Lift,<span style='color:red'>Fail","<span style='color:red'>Fail,<span style='color:red'>Fail,<span style='color:green'>Lift,<span style='color:green'>Lift,<span style='color:green'>Lift,<span style='color:green'>Lift,<span style='color:green'>Lift,<span style='color:red'>Fail,<span style='color:green'>Lift,<span style='color:green'>Lift,<span style='color:green'>Lift,<span style='color:red'>Fail","<span style='color:red'>Fail,<span style='color:green'>Lift,<span style='color:green'>Lift,<span style='color:red'>Fail,<span style='color:green'>Lift,<span style='color:green'>Lift","0,0,1,1,0,0,0,0,1,0,1,0","0,0,1,1,1,1,1,0,1,1,1,0","0,1,1,0,1,1",10,20,20,"",""," ","null","","",NA,1,"",NA,NA,NA,NA,NA,NA,NA,NA,NA,NA,NA,NA,NA,NA,NA,NA,NA,NA,NA,NA,NA,NA,NA,NA,NA,NA,NA,NA,NA,NA,NA,NA,NA,NA,NA,NA,NA,NA,NA,"",NA,NA,NA,NA,NA,NA,NA,NA,2025-11-21 00:45:11
"null","https://psyc-201.github.io/xiang2023/exp/index1.html?PROLIFIC_PID=REDACTED&STUDY_ID=691f8ca61c6b4dcbb0aeb5f4&SESSION_ID=691fabdc3ebea909549f188c","html-keyboard-response",11,1219646,"0.0-307.0","noZMTagdDP6pVgvbTDJhVmApjn2m6QBlaqop99cEvbCIpVEEYp0mMioaWFEsZ3RobK8UsugL6gnYSxriKEc5fB4CsJiFkutwrLr62uuGwLLk3Fduy1uZPbvp2yLiTgtbGPf9cbnIgLcaPHFfYNWB0uqgBUmOOV8OjwIqKCXfU/rj0mY8GWnCzZ2Hnmr0/zgspLrPYnd55w/e+sP7L4uApWn3JQYf5x5X0nire0izpmnILrJlnIASgo0H6RBPexrGzyPhasHWRf7of/vBPLHIzE8Ji6OoCHvHXFbFX1d7n7BOjAgCPGfSmLfEFC3WJsmkHiachhZGEsN2YnAE9uyjuQ==","691f8ca61c6b4dcbb0aeb5f4","691fabdc3ebea909549f188c","index1","<span style='color:red'>Fail,<span style='color:red'>Fail,<span style='color:green'>Lift,<span style='color:green'>Lift,<span style='color:red'>Fail,<span style='color:red'>Fail,<span style='color:red'>Fail,<span style='color:red'>Fail,<span style='color:green'>Lift,<span style='color:red'>Fail,<span style='color:green'>Lift,<span style='color:red'>Fail","<span style='color:red'>Fail,<span style='color:red'>Fail,<span style='color:green'>Lift,<span style='color:green'>Lift,<span style='color:green'>Lift,<span style='color:green'>Lift,<span style='color:green'>Lift,<span style='color:red'>Fail,<span style='color:green'>Lift,<span style='color:green'>Lift,<span style='color:green'>Lift,<span style='color:red'>Fail","<span style='color:red'>Fail,<span style='color:green'>Lift,<span style='color:green'>Lift,<span style='color:red'>Fail,<span style='color:green'>Lift,<span style='color:green'>Lift","0,0,1,1,0,0,0,0,1,0,1,0","0,0,1,1,1,1,1,0,1,1,1,0","0,1,1,0,1,1",10,20,20,"","","<p style='font-size:30px'><b> New Contest! </b></p>","null","","",NA,1,"",NA,NA,NA,NA,NA,NA,NA,NA,NA,NA,NA,NA,NA,NA,NA,NA,NA,NA,NA,NA,NA,NA,NA,NA,NA,NA,NA,NA,NA,NA,NA,NA,NA,NA,NA,NA,NA,NA,NA,"",NA,NA,NA,NA,NA,NA,NA,NA,2025-11-21 00:45:11
"39614.200000047684","https://psyc-201.github.io/xiang2023/exp/index1.html?PROLIFIC_PID=REDACTED&STUDY_ID=691f8ca61c6b4dcbb0aeb5f4&SESSION_ID=691fabdc3ebea909549f188c","survey-html-form",12,1259265,"0.0-308.0","noZMTagdDP6pVgvbTDJhVmApjn2m6QBlaqop99cEvbCIpVEEYp0mMioaWFEsZ3RobK8UsugL6gnYSxriKEc5fB4CsJiFkutwrLr62uuGwLLk3Fduy1uZPbvp2yLiTgtbGPf9cbnIgLcaPHFfYNWB0uqgBUmOOV8OjwIqKCXfU/rj0mY8GWnCzZ2Hnmr0/zgspLrPYnd55w/e+sP7L4uApWn3JQYf5x5X0nire0izpmnILrJlnIASgo0H6RBPexrGzyPhasHWRf7of/vBPLHIzE8Ji6OoCHvHXFbFX1d7n7BOjAgCPGfSmLfEFC3WJsmkHiachhZGEsN2YnAE9uyjuQ==","691f8ca61c6b4dcbb0aeb5f4","691fabdc3ebea909549f188c","index1","<span style='color:red'>Fail,<span style='color:red'>Fail,<span style='color:green'>Lift,<span style='color:green'>Lift,<span style='color:red'>Fail,<span style='color:red'>Fail,<span style='color:red'>Fail,<span style='color:red'>Fail,<span style='color:green'>Lift,<span style='color:red'>Fail,<span style='color:green'>Lift,<span style='color:red'>Fail","<span style='color:red'>Fail,<span style='color:red'>Fail,<span style='color:green'>Lift,<span style='color:green'>Lift,<span style='color:green'>Lift,<span style='color:green'>Lift,<span style='color:green'>Lift,<span style='color:red'>Fail,<span style='color:green'>Lift,<span style='color:green'>Lift,<span style='color:green'>Lift,<span style='color:red'>Fail","<span style='color:red'>Fail,<span style='color:green'>Lift,<span style='color:green'>Lift,<span style='color:red'>Fail,<span style='color:green'>Lift,<span style='color:green'>Lift","0,0,1,1,0,0,0,0,1,0,1,0","0,0,1,1,1,1,1,0,1,1,1,0","0,1,1,0,1,1",10,20,20,"","","","","{""box1"":""6"",""box2"":""5"",""box3"":""90""}","",NA,1,"round1_outcome",1,1,1,6,5,90,NA,1,0,10,6,5,90,NA,1,0,10,NA,NA,NA,NA,NA,NA,NA,NA,NA,NA,NA,NA,NA,NA,NA,NA,NA,NA,NA,NA,NA,NA,"",NA,NA,NA,NA,NA,NA,NA,NA,2025-11-21 00:45:11
"28032.599999904633","https://psyc-201.github.io/xiang2023/exp/index1.html?PROLIFIC_PID=REDACTED&STUDY_ID=691f8ca61c6b4dcbb0aeb5f4&SESSION_ID=691fabdc3ebea909549f188c","survey-html-form",13,1287300,"0.0-309.0","noZMTagdDP6pVgvbTDJhVmApjn2m6QBlaqop99cEvbCIpVEEYp0mMioaWFEsZ3RobK8UsugL6gnYSxriKEc5fB4CsJiFkutwrLr62uuGwLLk3Fduy1uZPbvp2yLiTgtbGPf9cbnIgLcaPHFfYNWB0uqgBUmOOV8OjwIqKCXfU/rj0mY8GWnCzZ2Hnmr0/zgspLrPYnd55w/e+sP7L4uApWn3JQYf5x5X0nire0izpmnILrJlnIASgo0H6RBPexrGzyPhasHWRf7of/vBPLHIzE8Ji6OoCHvHXFbFX1d7n7BOjAgCPGfSmLfEFC3WJsmkHiachhZGEsN2YnAE9uyjuQ==","691f8ca61c6b4dcbb0aeb5f4","691fabdc3ebea909549f188c","index1","<span style='color:red'>Fail,<span style='color:red'>Fail,<span style='color:green'>Lift,<span style='color:green'>Lift,<span style='color:red'>Fail,<span style='color:red'>Fail,<span style='color:red'>Fail,<span style='color:red'>Fail,<span style='color:green'>Lift,<span style='color:red'>Fail,<span style='color:green'>Lift,<span style='color:red'>Fail","<span style='color:red'>Fail,<span style='color:red'>Fail,<span style='color:green'>Lift,<span style='color:green'>Lift,<span style='color:green'>Lift,<span style='color:green'>Lift,<span style='color:green'>Lift,<span style='color:red'>Fail,<span style='color:green'>Lift,<span style='color:green'>Lift,<span style='color:green'>Lift,<span style='color:red'>Fail","<span style='color:red'>Fail,<span style='color:green'>Lift,<span style='color:green'>Lift,<span style='color:red'>Fail,<span style='color:green'>Lift,<span style='color:green'>Lift","0,0,1,1,0,0,0,0,1,0,1,0","0,0,1,1,1,1,1,0,1,1,1,0","0,1,1,0,1,1",10,20,20,"","","","","{""box1"":""95"",""box2"":""65""}","",NA,1,"round2_ready",2,1,2,NA,NA,NA,NA,NA,NA,NA,NA,NA,NA,NA,NA,NA,NA,95,65,95,65,NA,NA,NA,NA,NA,NA,NA,NA,NA,NA,NA,NA,NA,NA,NA,NA,NA,NA,"",NA,NA,NA,NA,NA,NA,NA,NA,2025-11-21 00:45:11
"33791.800000071526","https://psyc-201.github.io/xiang2023/exp/index1.html?PROLIFIC_PID=REDACTED&STUDY_ID=691f8ca61c6b4dcbb0aeb5f4&SESSION_ID=691fabdc3ebea909549f188c","survey-html-form",14,1321095,"0.0-310.0","noZMTagdDP6pVgvbTDJhVmApjn2m6QBlaqop99cEvbCIpVEEYp0mMioaWFEsZ3RobK8UsugL6gnYSxriKEc5fB4CsJiFkutwrLr62uuGwLLk3Fduy1uZPbvp2yLiTgtbGPf9cbnIgLcaPHFfYNWB0uqgBUmOOV8OjwIqKCXfU/rj0mY8GWnCzZ2Hnmr0/zgspLrPYnd55w/e+sP7L4uApWn3JQYf5x5X0nire0izpmnILrJlnIASgo0H6RBPexrGzyPhasHWRf7of/vBPLHIzE8Ji6OoCHvHXFbFX1d7n7BOjAgCPGfSmLfEFC3WJsmkHiachhZGEsN2YnAE9uyjuQ==","691f8ca61c6b4dcbb0aeb5f4","691fabdc3ebea909549f188c","index1","<span style='color:red'>Fail,<span style='color:red'>Fail,<span style='color:green'>Lift,<span style='color:green'>Lift,<span style='color:red'>Fail,<span style='color:red'>Fail,<span style='color:red'>Fail,<span style='color:red'>Fail,<span style='color:green'>Lift,<span style='color:red'>Fail,<span style='color:green'>Lift,<span style='color:red'>Fail","<span style='color:red'>Fail,<span style='color:red'>Fail,<span style='color:green'>Lift,<span style='color:green'>Lift,<span style='color:green'>Lift,<span style='color:green'>Lift,<span style='color:green'>Lift,<span style='color:red'>Fail,<span style='color:green'>Lift,<span style='color:green'>Lift,<span style='color:green'>Lift,<span style='color:red'>Fail","<span style='color:red'>Fail,<span style='color:green'>Lift,<span style='color:green'>Lift,<span style='color:red'>Fail,<span style='color:green'>Lift,<span style='color:green'>Lift","0,0,1,1,0,0,0,0,1,0,1,0","0,0,1,1,1,1,1,0,1,1,1,0","0,1,1,0,1,1",10,20,20,"","","","","{""box1"":""6"",""box2"":""5"",""box3"":""60"",""box4"":""80""}","",NA,1,"round2_outcome",3,1,2,6,5,60,80,1,1,20,NA,NA,NA,NA,NA,NA,NA,NA,NA,NA,NA,6,5,60,80,1,1,20,NA,NA,NA,NA,NA,NA,NA,NA,NA,NA,NA,"",NA,NA,NA,NA,NA,NA,NA,NA,2025-11-21 00:45:11
"95465.10000002384","https://psyc-201.github.io/xiang2023/exp/index1.html?PROLIFIC_PID=REDACTED&STUDY_ID=691f8ca61c6b4dcbb0aeb5f4&SESSION_ID=691fabdc3ebea909549f188c","survey-html-form",15,1416562,"0.0-311.0","noZMTagdDP6pVgvbTDJhVmApjn2m6QBlaqop99cEvbCIpVEEYp0mMioaWFEsZ3RobK8UsugL6gnYSxriKEc5fB4CsJiFkutwrLr62uuGwLLk3Fduy1uZPbvp2yLiTgtbGPf9cbnIgLcaPHFfYNWB0uqgBUmOOV8OjwIqKCXfU/rj0mY8GWnCzZ2Hnmr0/zgspLrPYnd55w/e+sP7L4uApWn3JQYf5x5X0nire0izpmnILrJlnIASgo0H6RBPexrGzyPhasHWRf7of/vBPLHIzE8Ji6OoCHvHXFbFX1d7n7BOjAgCPGfSmLfEFC3WJsmkHiachhZGEsN2YnAE9uyjuQ==","691f8ca61c6b4dcbb0aeb5f4","691fabdc3ebea909549f188c","index1","<span style='color:red'>Fail,<span style='color:red'>Fail,<span style='color:green'>Lift,<span style='color:green'>Lift,<span style='color:red'>Fail,<span style='color:red'>Fail,<span style='color:red'>Fail,<span style='color:red'>Fail,<span style='color:green'>Lift,<span style='color:red'>Fail,<span style='color:green'>Lift,<span style='color:red'>Fail","<span style='color:red'>Fail,<span style='color:red'>Fail,<span style='color:green'>Lift,<span style='color:green'>Lift,<span style='color:green'>Lift,<span style='color:green'>Lift,<span style='color:green'>Lift,<span style='color:red'>Fail,<span style='color:green'>Lift,<span style='color:green'>Lift,<span style='color:green'>Lift,<span style='color:red'>Fail","<span style='color:red'>Fail,<span style='color:green'>Lift,<span style='color:green'>Lift,<span style='color:red'>Fail,<span style='color:green'>Lift,<span style='color:green'>Lift","0,0,1,1,0,0,0,0,1,0,1,0","0,0,1,1,1,1,1,0,1,1,1,0","0,1,1,0,1,1",10,20,20,"","","","","{""box1"":""90""}","",NA,1,"round3_ready",4,1,3,NA,NA,NA,NA,NA,NA,NA,NA,NA,NA,NA,NA,NA,NA,90,90,NA,NA,NA,NA,NA,NA,NA,NA,NA,90,90,NA,NA,NA,NA,NA,NA,NA,NA,NA,"",NA,NA,NA,NA,NA,NA,NA,NA,2025-11-21 00:45:11
"36269.40000009537","https://psyc-201.github.io/xiang2023/exp/index1.html?PROLIFIC_PID=REDACTED&STUDY_ID=691f8ca61c6b4dcbb0aeb5f4&SESSION_ID=691fabdc3ebea909549f188c","survey-html-form",16,1452834,"0.0-312.0-0.0","noZMTagdDP6pVgvbTDJhVmApjn2m6QBlaqop99cEvbCIpVEEYp0mMioaWFEsZ3RobK8UsugL6gnYSxriKEc5fB4CsJiFkutwrLr62uuGwLLk3Fduy1uZPbvp2yLiTgtbGPf9cbnIgLcaPHFfYNWB0uqgBUmOOV8OjwIqKCXfU/rj0mY8GWnCzZ2Hnmr0/zgspLrPYnd55w/e+sP7L4uApWn3JQYf5x5X0nire0izpmnILrJlnIASgo0H6RBPexrGzyPhasHWRf7of/vBPLHIzE8Ji6OoCHvHXFbFX1d7n7BOjAgCPGfSmLfEFC3WJsmkHiachhZGEsN2YnAE9uyjuQ==","691f8ca61c6b4dcbb0aeb5f4","691fabdc3ebea909549f188c","index1","<span style='color:red'>Fail,<span style='color:red'>Fail,<span style='color:green'>Lift,<span style='color:green'>Lift,<span style='color:red'>Fail,<span style='color:red'>Fail,<span style='color:red'>Fail,<span style='color:red'>Fail,<span style='color:green'>Lift,<span style='color:red'>Fail,<span style='color:green'>Lift,<span style='color:red'>Fail","<span style='color:red'>Fail,<span style='color:red'>Fail,<span style='color:green'>Lift,<span style='color:green'>Lift,<span style='color:green'>Lift,<span style='color:green'>Lift,<span style='color:green'>Lift,<span style='color:red'>Fail,<span style='color:green'>Lift,<span style='color:green'>Lift,<span style='color:green'>Lift,<span style='color:red'>Fail","<span style='color:red'>Fail,<span style='color:green'>Lift,<span style='color:green'>Lift,<span style='color:red'>Fail,<span style='color:green'>Lift,<span style='color:green'>Lift","0,0,1,1,0,0,0,0,1,0,1,0","0,0,1,1,1,1,1,0,1,1,1,0","0,1,1,0,1,1",10,20,20,"","","","","{""box1"":""6"",""box2"":""5"",""box3"":""60"",""box4"":""80""}","",NA,2,"round3_lift",5,1,3,6,5,60,80,1,1,20,NA,NA,NA,NA,NA,NA,NA,NA,NA,NA,NA,NA,NA,NA,NA,NA,NA,NA,NA,NA,6,5,60,80,1,1,20,NA,NA,"",NA,NA,NA,NA,NA,NA,NA,NA,2025-11-21 00:45:11
"null","https://psyc-201.github.io/xiang2023/exp/index1.html?PROLIFIC_PID=REDACTED&STUDY_ID=691f8ca61c6b4dcbb0aeb5f4&SESSION_ID=691fabdc3ebea909549f188c","html-keyboard-response",17,1455835,"0.0-316.0","noZMTagdDP6pVgvbTDJhVmApjn2m6QBlaqop99cEvbCIpVEEYp0mMioaWFEsZ3RobK8UsugL6gnYSxriKEc5fB4CsJiFkutwrLr62uuGwLLk3Fduy1uZPbvp2yLiTgtbGPf9cbnIgLcaPHFfYNWB0uqgBUmOOV8OjwIqKCXfU/rj0mY8GWnCzZ2Hnmr0/zgspLrPYnd55w/e+sP7L4uApWn3JQYf5x5X0nire0izpmnILrJlnIASgo0H6RBPexrGzyPhasHWRf7of/vBPLHIzE8Ji6OoCHvHXFbFX1d7n7BOjAgCPGfSmLfEFC3WJsmkHiachhZGEsN2YnAE9uyjuQ==","691f8ca61c6b4dcbb0aeb5f4","691fabdc3ebea909549f188c","index1","<span style='color:red'>Fail,<span style='color:red'>Fail,<span style='color:green'>Lift,<span style='color:green'>Lift,<span style='color:red'>Fail,<span style='color:red'>Fail,<span style='color:red'>Fail,<span style='color:red'>Fail,<span style='color:green'>Lift,<span style='color:red'>Fail,<span style='color:green'>Lift,<span style='color:red'>Fail","<span style='color:red'>Fail,<span style='color:red'>Fail,<span style='color:green'>Lift,<span style='color:green'>Lift,<span style='color:green'>Lift,<span style='color:green'>Lift,<span style='color:green'>Lift,<span style='color:red'>Fail,<span style='color:green'>Lift,<span style='color:green'>Lift,<span style='color:green'>Lift,<span style='color:red'>Fail","<span style='color:red'>Fail,<span style='color:green'>Lift,<span style='color:green'>Lift,<span style='color:red'>Fail,<span style='color:green'>Lift,<span style='color:green'>Lift","0,0,1,1,0,0,0,0,1,0,1,0","0,0,1,1,1,1,1,0,1,1,1,0","0,1,1,0,1,1",10,20,20,"","","<p style='font-size:30px'><b> New Contest! </b></p>","null","","",NA,2,"",NA,NA,NA,NA,NA,NA,NA,NA,NA,NA,NA,NA,NA,NA,NA,NA,NA,NA,NA,NA,NA,NA,NA,NA,NA,NA,NA,NA,NA,NA,NA,NA,NA,NA,NA,NA,NA,NA,NA,"",NA,NA,NA,NA,NA,NA,NA,NA,2025-11-21 00:45:11
"20997.800000071526","https://psyc-201.github.io/xiang2023/exp/index1.html?PROLIFIC_PID=REDACTED&STUDY_ID=691f8ca61c6b4dcbb0aeb5f4&SESSION_ID=691fabdc3ebea909549f188c","survey-html-form",18,1476835,"0.0-317.0","noZMTagdDP6pVgvbTDJhVmApjn2m6QBlaqop99cEvbCIpVEEYp0mMioaWFEsZ3RobK8UsugL6gnYSxriKEc5fB4CsJiFkutwrLr62uuGwLLk3Fduy1uZPbvp2yLiTgtbGPf9cbnIgLcaPHFfYNWB0uqgBUmOOV8OjwIqKCXfU/rj0mY8GWnCzZ2Hnmr0/zgspLrPYnd55w/e+sP7L4uApWn3JQYf5x5X0nire0izpmnILrJlnIASgo0H6RBPexrGzyPhasHWRf7of/vBPLHIzE8Ji6OoCHvHXFbFX1d7n7BOjAgCPGfSmLfEFC3WJsmkHiachhZGEsN2YnAE9uyjuQ==","691f8ca61c6b4dcbb0aeb5f4","691fabdc3ebea909549f188c","index1","<span style='color:red'>Fail,<span style='color:red'>Fail,<span style='color:green'>Lift,<span style='color:green'>Lift,<span style='color:red'>Fail,<span style='color:red'>Fail,<span style='color:red'>Fail,<span style='color:red'>Fail,<span style='color:green'>Lift,<span style='color:red'>Fail,<span style='color:green'>Lift,<span style='color:red'>Fail","<span style='color:red'>Fail,<span style='color:red'>Fail,<span style='color:green'>Lift,<span style='color:green'>Lift,<span style='color:green'>Lift,<span style='color:green'>Lift,<span style='color:green'>Lift,<span style='color:red'>Fail,<span style='color:green'>Lift,<span style='color:green'>Lift,<span style='color:green'>Lift,<span style='color:red'>Fail","<span style='color:red'>Fail,<span style='color:green'>Lift,<span style='color:green'>Lift,<span style='color:red'>Fail,<span style='color:green'>Lift,<span style='color:green'>Lift","0,0,1,1,0,0,0,0,1,0,1,0","0,0,1,1,1,1,1,0,1,1,1,0","0,1,1,0,1,1",10,20,20,"","","","","{""box1"":""5"",""box2"":""5""}","",NA,2,"round1_outcome",1,2,1,5,5,NA,NA,0,0,10,5,5,NA,NA,0,0,10,NA,NA,NA,NA,NA,NA,NA,NA,NA,NA,NA,NA,NA,NA,NA,NA,NA,NA,NA,NA,NA,NA,"",NA,NA,NA,NA,NA,NA,NA,NA,2025-11-21 00:45:11
"25249.200000047684","https://psyc-201.github.io/xiang2023/exp/index1.html?PROLIFIC_PID=REDACTED&STUDY_ID=691f8ca61c6b4dcbb0aeb5f4&SESSION_ID=691fabdc3ebea909549f188c","survey-html-form",19,1502086,"0.0-318.0","noZMTagdDP6pVgvbTDJhVmApjn2m6QBlaqop99cEvbCIpVEEYp0mMioaWFEsZ3RobK8UsugL6gnYSxriKEc5fB4CsJiFkutwrLr62uuGwLLk3Fduy1uZPbvp2yLiTgtbGPf9cbnIgLcaPHFfYNWB0uqgBUmOOV8OjwIqKCXfU/rj0mY8GWnCzZ2Hnmr0/zgspLrPYnd55w/e+sP7L4uApWn3JQYf5x5X0nire0izpmnILrJlnIASgo0H6RBPexrGzyPhasHWRf7of/vBPLHIzE8Ji6OoCHvHXFbFX1d7n7BOjAgCPGfSmLfEFC3WJsmkHiachhZGEsN2YnAE9uyjuQ==","691f8ca61c6b4dcbb0aeb5f4","691fabdc3ebea909549f188c","index1","<span style='color:red'>Fail,<span style='color:red'>Fail,<span style='color:green'>Lift,<span style='color:green'>Lift,<span style='color:red'>Fail,<span style='color:red'>Fail,<span style='color:red'>Fail,<span style='color:red'>Fail,<span style='color:green'>Lift,<span style='color:red'>Fail,<span style='color:green'>Lift,<span style='color:red'>Fail","<span style='color:red'>Fail,<span style='color:red'>Fail,<span style='color:green'>Lift,<span style='color:green'>Lift,<span style='color:green'>Lift,<span style='color:green'>Lift,<span style='color:green'>Lift,<span style='color:red'>Fail,<span style='color:green'>Lift,<span style='color:green'>Lift,<span style='color:green'>Lift,<span style='color:red'>Fail","<span style='color:red'>Fail,<span style='color:green'>Lift,<span style='color:green'>Lift,<span style='color:red'>Fail,<span style='color:green'>Lift,<span style='color:green'>Lift","0,0,1,1,0,0,0,0,1,0,1,0","0,0,1,1,1,1,1,0,1,1,1,0","0,1,1,0,1,1",10,20,20,"","","","","{""box1"":""60"",""box2"":""60""}","",NA,2,"round2_ready",2,2,2,NA,NA,NA,NA,NA,NA,NA,NA,NA,NA,NA,NA,NA,NA,60,60,60,60,NA,NA,NA,NA,NA,NA,NA,NA,NA,NA,NA,NA,NA,NA,NA,NA,NA,NA,"",NA,NA,NA,NA,NA,NA,NA,NA,2025-11-21 00:45:11
"64142.299999952316","https://psyc-201.github.io/xiang2023/exp/index1.html?PROLIFIC_PID=REDACTED&STUDY_ID=691f8ca61c6b4dcbb0aeb5f4&SESSION_ID=691fabdc3ebea909549f188c","survey-html-form",20,1566230,"0.0-319.0","noZMTagdDP6pVgvbTDJhVmApjn2m6QBlaqop99cEvbCIpVEEYp0mMioaWFEsZ3RobK8UsugL6gnYSxriKEc5fB4CsJiFkutwrLr62uuGwLLk3Fduy1uZPbvp2yLiTgtbGPf9cbnIgLcaPHFfYNWB0uqgBUmOOV8OjwIqKCXfU/rj0mY8GWnCzZ2Hnmr0/zgspLrPYnd55w/e+sP7L4uApWn3JQYf5x5X0nire0izpmnILrJlnIASgo0H6RBPexrGzyPhasHWRf7of/vBPLHIzE8Ji6OoCHvHXFbFX1d7n7BOjAgCPGfSmLfEFC3WJsmkHiachhZGEsN2YnAE9uyjuQ==","691f8ca61c6b4dcbb0aeb5f4","691fabdc3ebea909549f188c","index1","<span style='color:red'>Fail,<span style='color:red'>Fail,<span style='color:green'>Lift,<span style='color:green'>Lift,<span style='color:red'>Fail,<span style='color:red'>Fail,<span style='color:red'>Fail,<span style='color:red'>Fail,<span style='color:green'>Lift,<span style='color:red'>Fail,<span style='color:green'>Lift,<span style='color:red'>Fail","<span style='color:red'>Fail,<span style='color:red'>Fail,<span style='color:green'>Lift,<span style='color:green'>Lift,<span style='color:green'>Lift,<span style='color:green'>Lift,<span style='color:green'>Lift,<span style='color:red'>Fail,<span style='color:green'>Lift,<span style='color:green'>Lift,<span style='color:green'>Lift,<span style='color:red'>Fail","<span style='color:red'>Fail,<span style='color:green'>Lift,<span style='color:green'>Lift,<span style='color:red'>Fail,<span style='color:green'>Lift,<span style='color:green'>Lift","0,0,1,1,0,0,0,0,1,0,1,0","0,0,1,1,1,1,1,0,1,1,1,0","0,1,1,0,1,1",10,20,20,"","","","","{""box1"":""5"",""box2"":""5"",""box3"":""80"",""box4"":""80""}","",NA,2,"round2_outcome",3,2,2,5,5,80,80,1,1,20,NA,NA,NA,NA,NA,NA,NA,NA,NA,NA,NA,5,5,80,80,1,1,20,NA,NA,NA,NA,NA,NA,NA,NA,NA,NA,NA,"",NA,NA,NA,NA,NA,NA,NA,NA,2025-11-21 00:45:11
"29144.399999976158","https://psyc-201.github.io/xiang2023/exp/index1.html?PROLIFIC_PID=REDACTED&STUDY_ID=691f8ca61c6b4dcbb0aeb5f4&SESSION_ID=691fabdc3ebea909549f188c","survey-html-form",21,1595376,"0.0-320.0","noZMTagdDP6pVgvbTDJhVmApjn2m6QBlaqop99cEvbCIpVEEYp0mMioaWFEsZ3RobK8UsugL6gnYSxriKEc5fB4CsJiFkutwrLr62uuGwLLk3Fduy1uZPbvp2yLiTgtbGPf9cbnIgLcaPHFfYNWB0uqgBUmOOV8OjwIqKCXfU/rj0mY8GWnCzZ2Hnmr0/zgspLrPYnd55w/e+sP7L4uApWn3JQYf5x5X0nire0izpmnILrJlnIASgo0H6RBPexrGzyPhasHWRf7of/vBPLHIzE8Ji6OoCHvHXFbFX1d7n7BOjAgCPGfSmLfEFC3WJsmkHiachhZGEsN2YnAE9uyjuQ==","691f8ca61c6b4dcbb0aeb5f4","691fabdc3ebea909549f188c","index1","<span style='color:red'>Fail,<span style='color:red'>Fail,<span style='color:green'>Lift,<span style='color:green'>Lift,<span style='color:red'>Fail,<span style='color:red'>Fail,<span style='color:red'>Fail,<span style='color:red'>Fail,<span style='color:green'>Lift,<span style='color:red'>Fail,<span style='color:green'>Lift,<span style='color:red'>Fail","<span style='color:red'>Fail,<span style='color:red'>Fail,<span style='color:green'>Lift,<span style='color:green'>Lift,<span style='color:green'>Lift,<span style='color:green'>Lift,<span style='color:green'>Lift,<span style='color:red'>Fail,<span style='color:green'>Lift,<span style='color:green'>Lift,<span style='color:green'>Lift,<span style='color:red'>Fail","<span style='color:red'>Fail,<span style='color:green'>Lift,<span style='color:green'>Lift,<span style='color:red'>Fail,<span style='color:green'>Lift,<span style='color:green'>Lift","0,0,1,1,0,0,0,0,1,0,1,0","0,0,1,1,1,1,1,0,1,1,1,0","0,1,1,0,1,1",10,20,20,"","","","","{""box1"":""95""}","",NA,2,"round3_ready",4,2,3,NA,NA,NA,NA,NA,NA,NA,NA,NA,NA,NA,NA,NA,NA,95,95,NA,NA,NA,NA,NA,NA,NA,NA,NA,95,95,NA,NA,NA,NA,NA,NA,NA,NA,NA,"",NA,NA,NA,NA,NA,NA,NA,NA,2025-11-21 00:45:11
"48731.5","https://psyc-201.github.io/xiang2023/exp/index1.html?PROLIFIC_PID=REDACTED&STUDY_ID=691f8ca61c6b4dcbb0aeb5f4&SESSION_ID=691fabdc3ebea909549f188c","survey-html-form",22,1644111,"0.0-321.0-0.0","noZMTagdDP6pVgvbTDJhVmApjn2m6QBlaqop99cEvbCIpVEEYp0mMioaWFEsZ3RobK8UsugL6gnYSxriKEc5fB4CsJiFkutwrLr62uuGwLLk3Fduy1uZPbvp2yLiTgtbGPf9cbnIgLcaPHFfYNWB0uqgBUmOOV8OjwIqKCXfU/rj0mY8GWnCzZ2Hnmr0/zgspLrPYnd55w/e+sP7L4uApWn3JQYf5x5X0nire0izpmnILrJlnIASgo0H6RBPexrGzyPhasHWRf7of/vBPLHIzE8Ji6OoCHvHXFbFX1d7n7BOjAgCPGfSmLfEFC3WJsmkHiachhZGEsN2YnAE9uyjuQ==","691f8ca61c6b4dcbb0aeb5f4","691fabdc3ebea909549f188c","index1","<span style='color:red'>Fail,<span style='color:red'>Fail,<span style='color:green'>Lift,<span style='color:green'>Lift,<span style='color:red'>Fail,<span style='color:red'>Fail,<span style='color:red'>Fail,<span style='color:red'>Fail,<span style='color:green'>Lift,<span style='color:red'>Fail,<span style='color:green'>Lift,<span style='color:red'>Fail","<span style='color:red'>Fail,<span style='color:red'>Fail,<span style='color:green'>Lift,<span style='color:green'>Lift,<span style='color:green'>Lift,<span style='color:green'>Lift,<span style='color:green'>Lift,<span style='color:red'>Fail,<span style='color:green'>Lift,<span style='color:green'>Lift,<span style='color:green'>Lift,<span style='color:red'>Fail","<span style='color:red'>Fail,<span style='color:green'>Lift,<span style='color:green'>Lift,<span style='color:red'>Fail,<span style='color:green'>Lift,<span style='color:green'>Lift","0,0,1,1,0,0,0,0,1,0,1,0","0,0,1,1,1,1,1,0,1,1,1,0","0,1,1,0,1,1",10,20,20,"","","","","{""box1"":""5"",""box2"":""5"",""box3"":""80"",""box4"":""80""}","",NA,3,"round3_lift",5,2,3,5,5,80,80,1,1,20,NA,NA,NA,NA,NA,NA,NA,NA,NA,NA,NA,NA,NA,NA,NA,NA,NA,NA,NA,NA,5,5,80,80,1,1,20,NA,NA,"",NA,NA,NA,NA,NA,NA,NA,NA,2025-11-21 00:45:11
"null","https://psyc-201.github.io/xiang2023/exp/index1.html?PROLIFIC_PID=REDACTED&STUDY_ID=691f8ca61c6b4dcbb0aeb5f4&SESSION_ID=691fabdc3ebea909549f188c","html-keyboard-response",23,1647129,"0.0-325.0","noZMTagdDP6pVgvbTDJhVmApjn2m6QBlaqop99cEvbCIpVEEYp0mMioaWFEsZ3RobK8UsugL6gnYSxriKEc5fB4CsJiFkutwrLr62uuGwLLk3Fduy1uZPbvp2yLiTgtbGPf9cbnIgLcaPHFfYNWB0uqgBUmOOV8OjwIqKCXfU/rj0mY8GWnCzZ2Hnmr0/zgspLrPYnd55w/e+sP7L4uApWn3JQYf5x5X0nire0izpmnILrJlnIASgo0H6RBPexrGzyPhasHWRf7of/vBPLHIzE8Ji6OoCHvHXFbFX1d7n7BOjAgCPGfSmLfEFC3WJsmkHiachhZGEsN2YnAE9uyjuQ==","691f8ca61c6b4dcbb0aeb5f4","691fabdc3ebea909549f188c","index1","<span style='color:red'>Fail,<span style='color:red'>Fail,<span style='color:green'>Lift,<span style='color:green'>Lift,<span style='color:red'>Fail,<span style='color:red'>Fail,<span style='color:red'>Fail,<span style='color:red'>Fail,<span style='color:green'>Lift,<span style='color:red'>Fail,<span style='color:green'>Lift,<span style='color:red'>Fail","<span style='color:red'>Fail,<span style='color:red'>Fail,<span style='color:green'>Lift,<span style='color:green'>Lift,<span style='color:green'>Lift,<span style='color:green'>Lift,<span style='color:green'>Lift,<span style='color:red'>Fail,<span style='color:green'>Lift,<span style='color:green'>Lift,<span style='color:green'>Lift,<span style='color:red'>Fail","<span style='color:red'>Fail,<span style='color:green'>Lift,<span style='color:green'>Lift,<span style='color:red'>Fail,<span style='color:green'>Lift,<span style='color:green'>Lift","0,0,1,1,0,0,0,0,1,0,1,0","0,0,1,1,1,1,1,0,1,1,1,0","0,1,1,0,1,1",10,20,20,"","","<p style='font-size:30px'><b> New Contest! </b></p>","null","","",NA,3,"",NA,NA,NA,NA,NA,NA,NA,NA,NA,NA,NA,NA,NA,NA,NA,NA,NA,NA,NA,NA,NA,NA,NA,NA,NA,NA,NA,NA,NA,NA,NA,NA,NA,NA,NA,NA,NA,NA,NA,"",NA,NA,NA,NA,NA,NA,NA,NA,2025-11-21 00:45:11
"16290","https://psyc-201.github.io/xiang2023/exp/index1.html?PROLIFIC_PID=REDACTED&STUDY_ID=691f8ca61c6b4dcbb0aeb5f4&SESSION_ID=691fabdc3ebea909549f188c","survey-html-form",24,1663422,"0.0-326.0","noZMTagdDP6pVgvbTDJhVmApjn2m6QBlaqop99cEvbCIpVEEYp0mMioaWFEsZ3RobK8UsugL6gnYSxriKEc5fB4CsJiFkutwrLr62uuGwLLk3Fduy1uZPbvp2yLiTgtbGPf9cbnIgLcaPHFfYNWB0uqgBUmOOV8OjwIqKCXfU/rj0mY8GWnCzZ2Hnmr0/zgspLrPYnd55w/e+sP7L4uApWn3JQYf5x5X0nire0izpmnILrJlnIASgo0H6RBPexrGzyPhasHWRf7of/vBPLHIzE8Ji6OoCHvHXFbFX1d7n7BOjAgCPGfSmLfEFC3WJsmkHiachhZGEsN2YnAE9uyjuQ==","691f8ca61c6b4dcbb0aeb5f4","691fabdc3ebea909549f188c","index1","<span style='color:red'>Fail,<span style='color:red'>Fail,<span style='color:green'>Lift,<span style='color:green'>Lift,<span style='color:red'>Fail,<span style='color:red'>Fail,<span style='color:red'>Fail,<span style='color:red'>Fail,<span style='color:green'>Lift,<span style='color:red'>Fail,<span style='color:green'>Lift,<span style='color:red'>Fail","<span style='color:red'>Fail,<span style='color:red'>Fail,<span style='color:green'>Lift,<span style='color:green'>Lift,<span style='color:green'>Lift,<span style='color:green'>Lift,<span style='color:green'>Lift,<span style='color:red'>Fail,<span style='color:green'>Lift,<span style='color:green'>Lift,<span style='color:green'>Lift,<span style='color:red'>Fail","<span style='color:red'>Fail,<span style='color:green'>Lift,<span style='color:green'>Lift,<span style='color:red'>Fail,<span style='color:green'>Lift,<span style='color:green'>Lift","0,0,1,1,0,0,0,0,1,0,1,0","0,0,1,1,1,1,1,0,1,1,1,0","0,1,1,0,1,1",10,20,20,"","","","","{""box1"":""5"",""box2"":""5""}","",NA,3,"round1_outcome",1,3,1,5,5,NA,NA,0,0,10,5,5,NA,NA,0,0,10,NA,NA,NA,NA,NA,NA,NA,NA,NA,NA,NA,NA,NA,NA,NA,NA,NA,NA,NA,NA,NA,NA,"",NA,NA,NA,NA,NA,NA,NA,NA,2025-11-21 00:45:11
"16802.399999976158","https://psyc-201.github.io/xiang2023/exp/index1.html?PROLIFIC_PID=REDACTED&STUDY_ID=691f8ca61c6b4dcbb0aeb5f4&SESSION_ID=691fabdc3ebea909549f188c","survey-html-form",25,1680227,"0.0-327.0","noZMTagdDP6pVgvbTDJhVmApjn2m6QBlaqop99cEvbCIpVEEYp0mMioaWFEsZ3RobK8UsugL6gnYSxriKEc5fB4CsJiFkutwrLr62uuGwLLk3Fduy1uZPbvp2yLiTgtbGPf9cbnIgLcaPHFfYNWB0uqgBUmOOV8OjwIqKCXfU/rj0mY8GWnCzZ2Hnmr0/zgspLrPYnd55w/e+sP7L4uApWn3JQYf5x5X0nire0izpmnILrJlnIASgo0H6RBPexrGzyPhasHWRf7of/vBPLHIzE8Ji6OoCHvHXFbFX1d7n7BOjAgCPGfSmLfEFC3WJsmkHiachhZGEsN2YnAE9uyjuQ==","691f8ca61c6b4dcbb0aeb5f4","691fabdc3ebea909549f188c","index1","<span style='color:red'>Fail,<span style='color:red'>Fail,<span style='color:green'>Lift,<span style='color:green'>Lift,<span style='color:red'>Fail,<span style='color:red'>Fail,<span style='color:red'>Fail,<span style='color:red'>Fail,<span style='color:green'>Lift,<span style='color:red'>Fail,<span style='color:green'>Lift,<span style='color:red'>Fail","<span style='color:red'>Fail,<span style='color:red'>Fail,<span style='color:green'>Lift,<span style='color:green'>Lift,<span style='color:green'>Lift,<span style='color:green'>Lift,<span style='color:green'>Lift,<span style='color:red'>Fail,<span style='color:green'>Lift,<span style='color:green'>Lift,<span style='color:green'>Lift,<span style='color:red'>Fail","<span style='color:red'>Fail,<span style='color:green'>Lift,<span style='color:green'>Lift,<span style='color:red'>Fail,<span style='color:green'>Lift,<span style='color:green'>Lift","0,0,1,1,0,0,0,0,1,0,1,0","0,0,1,1,1,1,1,0,1,1,1,0","0,1,1,0,1,1",10,20,20,"","","","","{""box1"":""65"",""box2"":""65""}","",NA,3,"round2_ready",2,3,2,NA,NA,NA,NA,NA,NA,NA,NA,NA,NA,NA,NA,NA,NA,65,65,65,65,NA,NA,NA,NA,NA,NA,NA,NA,NA,NA,NA,NA,NA,NA,NA,NA,NA,NA,"",NA,NA,NA,NA,NA,NA,NA,NA,2025-11-21 00:45:11
"15593.200000047684","https://psyc-201.github.io/xiang2023/exp/index1.html?PROLIFIC_PID=REDACTED&STUDY_ID=691f8ca61c6b4dcbb0aeb5f4&SESSION_ID=691fabdc3ebea909549f188c","survey-html-form",26,1695823,"0.0-328.0","noZMTagdDP6pVgvbTDJhVmApjn2m6QBlaqop99cEvbCIpVEEYp0mMioaWFEsZ3RobK8UsugL6gnYSxriKEc5fB4CsJiFkutwrLr62uuGwLLk3Fduy1uZPbvp2yLiTgtbGPf9cbnIgLcaPHFfYNWB0uqgBUmOOV8OjwIqKCXfU/rj0mY8GWnCzZ2Hnmr0/zgspLrPYnd55w/e+sP7L4uApWn3JQYf5x5X0nire0izpmnILrJlnIASgo0H6RBPexrGzyPhasHWRf7of/vBPLHIzE8Ji6OoCHvHXFbFX1d7n7BOjAgCPGfSmLfEFC3WJsmkHiachhZGEsN2YnAE9uyjuQ==","691f8ca61c6b4dcbb0aeb5f4","691fabdc3ebea909549f188c","index1","<span style='color:red'>Fail,<span style='color:red'>Fail,<span style='color:green'>Lift,<span style='color:green'>Lift,<span style='color:red'>Fail,<span style='color:red'>Fail,<span style='color:red'>Fail,<span style='color:red'>Fail,<span style='color:green'>Lift,<span style='color:red'>Fail,<span style='color:green'>Lift,<span style='color:red'>Fail","<span style='color:red'>Fail,<span style='color:red'>Fail,<span style='color:green'>Lift,<span style='color:green'>Lift,<span style='color:green'>Lift,<span style='color:green'>Lift,<span style='color:green'>Lift,<span style='color:red'>Fail,<span style='color:green'>Lift,<span style='color:green'>Lift,<span style='color:green'>Lift,<span style='color:red'>Fail","<span style='color:red'>Fail,<span style='color:green'>Lift,<span style='color:green'>Lift,<span style='color:red'>Fail,<span style='color:green'>Lift,<span style='color:green'>Lift","0,0,1,1,0,0,0,0,1,0,1,0","0,0,1,1,1,1,1,0,1,1,1,0","0,1,1,0,1,1",10,20,20,"","","","","{""box1"":""4"",""box2"":""4""}","",NA,3,"round2_outcome",3,3,2,4,4,NA,NA,0,0,20,NA,NA,NA,NA,NA,NA,NA,NA,NA,NA,NA,4,4,NA,NA,0,0,20,NA,NA,NA,NA,NA,NA,NA,NA,NA,NA,NA,"",NA,NA,NA,NA,NA,NA,NA,NA,2025-11-21 00:45:11
"15948.200000047684","https://psyc-201.github.io/xiang2023/exp/index1.html?PROLIFIC_PID=REDACTED&STUDY_ID=691f8ca61c6b4dcbb0aeb5f4&SESSION_ID=691fabdc3ebea909549f188c","survey-html-form",27,1711773,"0.0-329.0","noZMTagdDP6pVgvbTDJhVmApjn2m6QBlaqop99cEvbCIpVEEYp0mMioaWFEsZ3RobK8UsugL6gnYSxriKEc5fB4CsJiFkutwrLr62uuGwLLk3Fduy1uZPbvp2yLiTgtbGPf9cbnIgLcaPHFfYNWB0uqgBUmOOV8OjwIqKCXfU/rj0mY8GWnCzZ2Hnmr0/zgspLrPYnd55w/e+sP7L4uApWn3JQYf5x5X0nire0izpmnILrJlnIASgo0H6RBPexrGzyPhasHWRf7of/vBPLHIzE8Ji6OoCHvHXFbFX1d7n7BOjAgCPGfSmLfEFC3WJsmkHiachhZGEsN2YnAE9uyjuQ==","691f8ca61c6b4dcbb0aeb5f4","691fabdc3ebea909549f188c","index1","<span style='color:red'>Fail,<span style='color:red'>Fail,<span style='color:green'>Lift,<span style='color:green'>Lift,<span style='color:red'>Fail,<span style='color:red'>Fail,<span style='color:red'>Fail,<span style='color:red'>Fail,<span style='color:green'>Lift,<span style='color:red'>Fail,<span style='color:green'>Lift,<span style='color:red'>Fail","<span style='color:red'>Fail,<span style='color:red'>Fail,<span style='color:green'>Lift,<span style='color:green'>Lift,<span style='color:green'>Lift,<span style='color:green'>Lift,<span style='color:green'>Lift,<span style='color:red'>Fail,<span style='color:green'>Lift,<span style='color:green'>Lift,<span style='color:green'>Lift,<span style='color:red'>Fail","<span style='color:red'>Fail,<span style='color:green'>Lift,<span style='color:green'>Lift,<span style='color:red'>Fail,<span style='color:green'>Lift,<span style='color:green'>Lift","0,0,1,1,0,0,0,0,1,0,1,0","0,0,1,1,1,1,1,0,1,1,1,0","0,1,1,0,1,1",10,20,20,"","","","","{""box1"":""85""}","",NA,3,"round3_ready",4,3,3,NA,NA,NA,NA,NA,NA,NA,NA,NA,NA,NA,NA,NA,NA,85,85,NA,NA,NA,NA,NA,NA,NA,NA,NA,85,85,NA,NA,NA,NA,NA,NA,NA,NA,NA,"",NA,NA,NA,NA,NA,NA,NA,NA,2025-11-21 00:45:11
"36011.299999952316","https://psyc-201.github.io/xiang2023/exp/index1.html?PROLIFIC_PID=REDACTED&STUDY_ID=691f8ca61c6b4dcbb0aeb5f4&SESSION_ID=691fabdc3ebea909549f188c","survey-html-form",28,1747787,"0.0-331.0-0.0","noZMTagdDP6pVgvbTDJhVmApjn2m6QBlaqop99cEvbCIpVEEYp0mMioaWFEsZ3RobK8UsugL6gnYSxriKEc5fB4CsJiFkutwrLr62uuGwLLk3Fduy1uZPbvp2yLiTgtbGPf9cbnIgLcaPHFfYNWB0uqgBUmOOV8OjwIqKCXfU/rj0mY8GWnCzZ2Hnmr0/zgspLrPYnd55w/e+sP7L4uApWn3JQYf5x5X0nire0izpmnILrJlnIASgo0H6RBPexrGzyPhasHWRf7of/vBPLHIzE8Ji6OoCHvHXFbFX1d7n7BOjAgCPGfSmLfEFC3WJsmkHiachhZGEsN2YnAE9uyjuQ==","691f8ca61c6b4dcbb0aeb5f4","691fabdc3ebea909549f188c","index1","<span style='color:red'>Fail,<span style='color:red'>Fail,<span style='color:green'>Lift,<span style='color:green'>Lift,<span style='color:red'>Fail,<span style='color:red'>Fail,<span style='color:red'>Fail,<span style='color:red'>Fail,<span style='color:green'>Lift,<span style='color:red'>Fail,<span style='color:green'>Lift,<span style='color:red'>Fail","<span style='color:red'>Fail,<span style='color:red'>Fail,<span style='color:green'>Lift,<span style='color:green'>Lift,<span style='color:green'>Lift,<span style='color:green'>Lift,<span style='color:green'>Lift,<span style='color:red'>Fail,<span style='color:green'>Lift,<span style='color:green'>Lift,<span style='color:green'>Lift,<span style='color:red'>Fail","<span style='color:red'>Fail,<span style='color:green'>Lift,<span style='color:green'>Lift,<span style='color:red'>Fail,<span style='color:green'>Lift,<span style='color:green'>Lift","0,0,1,1,0,0,0,0,1,0,1,0","0,0,1,1,1,1,1,0,1,1,1,0","0,1,1,0,1,1",10,20,20,"","","","","{""box1"":""4"",""box2"":""4"",""box3"":""999"",""box4"":""999""}","",NA,4,"round3_fail",5,3,3,4,4,NA,NA,0,0,20,NA,NA,NA,NA,NA,NA,NA,NA,NA,NA,NA,NA,NA,NA,NA,NA,NA,NA,NA,NA,4,4,NA,NA,0,0,20,1,1,"",NA,NA,NA,NA,NA,NA,NA,NA,2025-11-21 00:45:11
"null","https://psyc-201.github.io/xiang2023/exp/index1.html?PROLIFIC_PID=REDACTED&STUDY_ID=691f8ca61c6b4dcbb0aeb5f4&SESSION_ID=691fabdc3ebea909549f188c","html-keyboard-response",29,1750794,"0.0-334.0","noZMTagdDP6pVgvbTDJhVmApjn2m6QBlaqop99cEvbCIpVEEYp0mMioaWFEsZ3RobK8UsugL6gnYSxriKEc5fB4CsJiFkutwrLr62uuGwLLk3Fduy1uZPbvp2yLiTgtbGPf9cbnIgLcaPHFfYNWB0uqgBUmOOV8OjwIqKCXfU/rj0mY8GWnCzZ2Hnmr0/zgspLrPYnd55w/e+sP7L4uApWn3JQYf5x5X0nire0izpmnILrJlnIASgo0H6RBPexrGzyPhasHWRf7of/vBPLHIzE8Ji6OoCHvHXFbFX1d7n7BOjAgCPGfSmLfEFC3WJsmkHiachhZGEsN2YnAE9uyjuQ==","691f8ca61c6b4dcbb0aeb5f4","691fabdc3ebea909549f188c","index1","<span style='color:red'>Fail,<span style='color:red'>Fail,<span style='color:green'>Lift,<span style='color:green'>Lift,<span style='color:red'>Fail,<span style='color:red'>Fail,<span style='color:red'>Fail,<span style='color:red'>Fail,<span style='color:green'>Lift,<span style='color:red'>Fail,<span style='color:green'>Lift,<span style='color:red'>Fail","<span style='color:red'>Fail,<span style='color:red'>Fail,<span style='color:green'>Lift,<span style='color:green'>Lift,<span style='color:green'>Lift,<span style='color:green'>Lift,<span style='color:green'>Lift,<span style='color:red'>Fail,<span style='color:green'>Lift,<span style='color:green'>Lift,<span style='color:green'>Lift,<span style='color:red'>Fail","<span style='color:red'>Fail,<span style='color:green'>Lift,<span style='color:green'>Lift,<span style='color:red'>Fail,<span style='color:green'>Lift,<span style='color:green'>Lift","0,0,1,1,0,0,0,0,1,0,1,0","0,0,1,1,1,1,1,0,1,1,1,0","0,1,1,0,1,1",10,20,20,"","","<p style='font-size:30px'><b> New Contest! </b></p>","null","","",NA,4,"",NA,NA,NA,NA,NA,NA,NA,NA,NA,NA,NA,NA,NA,NA,NA,NA,NA,NA,NA,NA,NA,NA,NA,NA,NA,NA,NA,NA,NA,NA,NA,NA,NA,NA,NA,NA,NA,NA,NA,"",NA,NA,NA,NA,NA,NA,NA,NA,2025-11-21 00:45:11
"24388","https://psyc-201.github.io/xiang2023/exp/index1.html?PROLIFIC_PID=REDACTED&STUDY_ID=691f8ca61c6b4dcbb0aeb5f4&SESSION_ID=691fabdc3ebea909549f188c","survey-html-form",30,1775185,"0.0-335.0","noZMTagdDP6pVgvbTDJhVmApjn2m6QBlaqop99cEvbCIpVEEYp0mMioaWFEsZ3RobK8UsugL6gnYSxriKEc5fB4CsJiFkutwrLr62uuGwLLk3Fduy1uZPbvp2yLiTgtbGPf9cbnIgLcaPHFfYNWB0uqgBUmOOV8OjwIqKCXfU/rj0mY8GWnCzZ2Hnmr0/zgspLrPYnd55w/e+sP7L4uApWn3JQYf5x5X0nire0izpmnILrJlnIASgo0H6RBPexrGzyPhasHWRf7of/vBPLHIzE8Ji6OoCHvHXFbFX1d7n7BOjAgCPGfSmLfEFC3WJsmkHiachhZGEsN2YnAE9uyjuQ==","691f8ca61c6b4dcbb0aeb5f4","691fabdc3ebea909549f188c","index1","<span style='color:red'>Fail,<span style='color:red'>Fail,<span style='color:green'>Lift,<span style='color:green'>Lift,<span style='color:red'>Fail,<span style='color:red'>Fail,<span style='color:red'>Fail,<span style='color:red'>Fail,<span style='color:green'>Lift,<span style='color:red'>Fail,<span style='color:green'>Lift,<span style='color:red'>Fail","<span style='color:red'>Fail,<span style='color:red'>Fail,<span style='color:green'>Lift,<span style='color:green'>Lift,<span style='color:green'>Lift,<span style='color:green'>Lift,<span style='color:green'>Lift,<span style='color:red'>Fail,<span style='color:green'>Lift,<span style='color:green'>Lift,<span style='color:green'>Lift,<span style='color:red'>Fail","<span style='color:red'>Fail,<span style='color:green'>Lift,<span style='color:green'>Lift,<span style='color:red'>Fail,<span style='color:green'>Lift,<span style='color:green'>Lift","0,0,1,1,0,0,0,0,1,0,1,0","0,0,1,1,1,1,1,0,1,1,1,0","0,1,1,0,1,1",10,20,20,"","","","","{""box1"":""6"",""box2"":""5"",""box3"":""90""}","",NA,4,"round1_outcome",1,4,1,6,5,90,NA,1,0,10,6,5,90,NA,1,0,10,NA,NA,NA,NA,NA,NA,NA,NA,NA,NA,NA,NA,NA,NA,NA,NA,NA,NA,NA,NA,NA,NA,"",NA,NA,NA,NA,NA,NA,NA,NA,2025-11-21 00:45:11
"62710.699999928474","https://psyc-201.github.io/xiang2023/exp/index1.html?PROLIFIC_PID=REDACTED&STUDY_ID=691f8ca61c6b4dcbb0aeb5f4&SESSION_ID=691fabdc3ebea909549f188c","survey-html-form",31,1837898,"0.0-336.0","noZMTagdDP6pVgvbTDJhVmApjn2m6QBlaqop99cEvbCIpVEEYp0mMioaWFEsZ3RobK8UsugL6gnYSxriKEc5fB4CsJiFkutwrLr62uuGwLLk3Fduy1uZPbvp2yLiTgtbGPf9cbnIgLcaPHFfYNWB0uqgBUmOOV8OjwIqKCXfU/rj0mY8GWnCzZ2Hnmr0/zgspLrPYnd55w/e+sP7L4uApWn3JQYf5x5X0nire0izpmnILrJlnIASgo0H6RBPexrGzyPhasHWRf7of/vBPLHIzE8Ji6OoCHvHXFbFX1d7n7BOjAgCPGfSmLfEFC3WJsmkHiachhZGEsN2YnAE9uyjuQ==","691f8ca61c6b4dcbb0aeb5f4","691fabdc3ebea909549f188c","index1","<span style='color:red'>Fail,<span style='color:red'>Fail,<span style='color:green'>Lift,<span style='color:green'>Lift,<span style='color:red'>Fail,<span style='color:red'>Fail,<span style='color:red'>Fail,<span style='color:red'>Fail,<span style='color:green'>Lift,<span style='color:red'>Fail,<span style='color:green'>Lift,<span style='color:red'>Fail","<span style='color:red'>Fail,<span style='color:red'>Fail,<span style='color:green'>Lift,<span style='color:green'>Lift,<span style='color:green'>Lift,<span style='color:green'>Lift,<span style='color:green'>Lift,<span style='color:red'>Fail,<span style='color:green'>Lift,<span style='color:green'>Lift,<span style='color:green'>Lift,<span style='color:red'>Fail","<span style='color:red'>Fail,<span style='color:green'>Lift,<span style='color:green'>Lift,<span style='color:red'>Fail,<span style='color:green'>Lift,<span style='color:green'>Lift","0,0,1,1,0,0,0,0,1,0,1,0","0,0,1,1,1,1,1,0,1,1,1,0","0,1,1,0,1,1",10,20,20,"","","","","{""box1"":""95"",""box2"":""65""}","",NA,4,"round2_ready",2,4,2,NA,NA,NA,NA,NA,NA,NA,NA,NA,NA,NA,NA,NA,NA,95,65,95,65,NA,NA,NA,NA,NA,NA,NA,NA,NA,NA,NA,NA,NA,NA,NA,NA,NA,NA,"",NA,NA,NA,NA,NA,NA,NA,NA,2025-11-21 00:45:11
"22020.800000071526","https://psyc-201.github.io/xiang2023/exp/index1.html?PROLIFIC_PID=REDACTED&STUDY_ID=691f8ca61c6b4dcbb0aeb5f4&SESSION_ID=691fabdc3ebea909549f188c","survey-html-form",32,1859921,"0.0-337.0","noZMTagdDP6pVgvbTDJhVmApjn2m6QBlaqop99cEvbCIpVEEYp0mMioaWFEsZ3RobK8UsugL6gnYSxriKEc5fB4CsJiFkutwrLr62uuGwLLk3Fduy1uZPbvp2yLiTgtbGPf9cbnIgLcaPHFfYNWB0uqgBUmOOV8OjwIqKCXfU/rj0mY8GWnCzZ2Hnmr0/zgspLrPYnd55w/e+sP7L4uApWn3JQYf5x5X0nire0izpmnILrJlnIASgo0H6RBPexrGzyPhasHWRf7of/vBPLHIzE8Ji6OoCHvHXFbFX1d7n7BOjAgCPGfSmLfEFC3WJsmkHiachhZGEsN2YnAE9uyjuQ==","691f8ca61c6b4dcbb0aeb5f4","691fabdc3ebea909549f188c","index1","<span style='color:red'>Fail,<span style='color:red'>Fail,<span style='color:green'>Lift,<span style='color:green'>Lift,<span style='color:red'>Fail,<span style='color:red'>Fail,<span style='color:red'>Fail,<span style='color:red'>Fail,<span style='color:green'>Lift,<span style='color:red'>Fail,<span style='color:green'>Lift,<span style='color:red'>Fail","<span style='color:red'>Fail,<span style='color:red'>Fail,<span style='color:green'>Lift,<span style='color:green'>Lift,<span style='color:green'>Lift,<span style='color:green'>Lift,<span style='color:green'>Lift,<span style='color:red'>Fail,<span style='color:green'>Lift,<span style='color:green'>Lift,<span style='color:green'>Lift,<span style='color:red'>Fail","<span style='color:red'>Fail,<span style='color:green'>Lift,<span style='color:green'>Lift,<span style='color:red'>Fail,<span style='color:green'>Lift,<span style='color:green'>Lift","0,0,1,1,0,0,0,0,1,0,1,0","0,0,1,1,1,1,1,0,1,1,1,0","0,1,1,0,1,1",10,20,20,"","","","","{""box1"":""6"",""box2"":""5"",""box3"":""60""}","",NA,4,"round2_outcome",3,4,2,6,5,60,NA,1,0,20,NA,NA,NA,NA,NA,NA,NA,NA,NA,NA,NA,6,5,60,NA,1,0,20,NA,NA,NA,NA,NA,NA,NA,NA,NA,NA,NA,"",NA,NA,NA,NA,NA,NA,NA,NA,2025-11-21 00:45:11
"29910.399999976158","https://psyc-201.github.io/xiang2023/exp/index1.html?PROLIFIC_PID=REDACTED&STUDY_ID=691f8ca61c6b4dcbb0aeb5f4&SESSION_ID=691fabdc3ebea909549f188c","survey-html-form",33,1889833,"0.0-338.0","noZMTagdDP6pVgvbTDJhVmApjn2m6QBlaqop99cEvbCIpVEEYp0mMioaWFEsZ3RobK8UsugL6gnYSxriKEc5fB4CsJiFkutwrLr62uuGwLLk3Fduy1uZPbvp2yLiTgtbGPf9cbnIgLcaPHFfYNWB0uqgBUmOOV8OjwIqKCXfU/rj0mY8GWnCzZ2Hnmr0/zgspLrPYnd55w/e+sP7L4uApWn3JQYf5x5X0nire0izpmnILrJlnIASgo0H6RBPexrGzyPhasHWRf7of/vBPLHIzE8Ji6OoCHvHXFbFX1d7n7BOjAgCPGfSmLfEFC3WJsmkHiachhZGEsN2YnAE9uyjuQ==","691f8ca61c6b4dcbb0aeb5f4","691fabdc3ebea909549f188c","index1","<span style='color:red'>Fail,<span style='color:red'>Fail,<span style='color:green'>Lift,<span style='color:green'>Lift,<span style='color:red'>Fail,<span style='color:red'>Fail,<span style='color:red'>Fail,<span style='color:red'>Fail,<span style='color:green'>Lift,<span style='color:red'>Fail,<span style='color:green'>Lift,<span style='color:red'>Fail","<span style='color:red'>Fail,<span style='color:red'>Fail,<span style='color:green'>Lift,<span style='color:green'>Lift,<span style='color:green'>Lift,<span style='color:green'>Lift,<span style='color:green'>Lift,<span style='color:red'>Fail,<span style='color:green'>Lift,<span style='color:green'>Lift,<span style='color:green'>Lift,<span style='color:red'>Fail","<span style='color:red'>Fail,<span style='color:green'>Lift,<span style='color:green'>Lift,<span style='color:red'>Fail,<span style='color:green'>Lift,<span style='color:green'>Lift","0,0,1,1,0,0,0,0,1,0,1,0","0,0,1,1,1,1,1,0,1,1,1,0","0,1,1,0,1,1",10,20,20,"","","","","{""box1"":""75""}","",NA,4,"round3_ready",4,4,3,NA,NA,NA,NA,NA,NA,NA,NA,NA,NA,NA,NA,NA,NA,75,75,NA,NA,NA,NA,NA,NA,NA,NA,NA,75,75,NA,NA,NA,NA,NA,NA,NA,NA,NA,"",NA,NA,NA,NA,NA,NA,NA,NA,2025-11-21 00:45:11
"27074.300000071526","https://psyc-201.github.io/xiang2023/exp/index1.html?PROLIFIC_PID=REDACTED&STUDY_ID=691f8ca61c6b4dcbb0aeb5f4&SESSION_ID=691fabdc3ebea909549f188c","survey-html-form",34,1916909,"0.0-339.0-0.0","noZMTagdDP6pVgvbTDJhVmApjn2m6QBlaqop99cEvbCIpVEEYp0mMioaWFEsZ3RobK8UsugL6gnYSxriKEc5fB4CsJiFkutwrLr62uuGwLLk3Fduy1uZPbvp2yLiTgtbGPf9cbnIgLcaPHFfYNWB0uqgBUmOOV8OjwIqKCXfU/rj0mY8GWnCzZ2Hnmr0/zgspLrPYnd55w/e+sP7L4uApWn3JQYf5x5X0nire0izpmnILrJlnIASgo0H6RBPexrGzyPhasHWRf7of/vBPLHIzE8Ji6OoCHvHXFbFX1d7n7BOjAgCPGfSmLfEFC3WJsmkHiachhZGEsN2YnAE9uyjuQ==","691f8ca61c6b4dcbb0aeb5f4","691fabdc3ebea909549f188c","index1","<span style='color:red'>Fail,<span style='color:red'>Fail,<span style='color:green'>Lift,<span style='color:green'>Lift,<span style='color:red'>Fail,<span style='color:red'>Fail,<span style='color:red'>Fail,<span style='color:red'>Fail,<span style='color:green'>Lift,<span style='color:red'>Fail,<span style='color:green'>Lift,<span style='color:red'>Fail","<span style='color:red'>Fail,<span style='color:red'>Fail,<span style='color:green'>Lift,<span style='color:green'>Lift,<span style='color:green'>Lift,<span style='color:green'>Lift,<span style='color:green'>Lift,<span style='color:red'>Fail,<span style='color:green'>Lift,<span style='color:green'>Lift,<span style='color:green'>Lift,<span style='color:red'>Fail","<span style='color:red'>Fail,<span style='color:green'>Lift,<span style='color:green'>Lift,<span style='color:red'>Fail,<span style='color:green'>Lift,<span style='color:green'>Lift","0,0,1,1,0,0,0,0,1,0,1,0","0,0,1,1,1,1,1,0,1,1,1,0","0,1,1,0,1,1",10,20,20,"","","","","{""box1"":""6"",""box2"":""5"",""box3"":""60"",""box4"":""70""}","",NA,5,"round3_lift",5,4,3,6,5,60,70,1,1,20,NA,NA,NA,NA,NA,NA,NA,NA,NA,NA,NA,NA,NA,NA,NA,NA,NA,NA,NA,NA,6,5,60,70,1,1,20,NA,NA,"",NA,NA,NA,NA,NA,NA,NA,NA,2025-11-21 00:45:11
"null","https://psyc-201.github.io/xiang2023/exp/index1.html?PROLIFIC_PID=REDACTED&STUDY_ID=691f8ca61c6b4dcbb0aeb5f4&SESSION_ID=691fabdc3ebea909549f188c","html-keyboard-response",35,1919913,"0.0-343.0","noZMTagdDP6pVgvbTDJhVmApjn2m6QBlaqop99cEvbCIpVEEYp0mMioaWFEsZ3RobK8UsugL6gnYSxriKEc5fB4CsJiFkutwrLr62uuGwLLk3Fduy1uZPbvp2yLiTgtbGPf9cbnIgLcaPHFfYNWB0uqgBUmOOV8OjwIqKCXfU/rj0mY8GWnCzZ2Hnmr0/zgspLrPYnd55w/e+sP7L4uApWn3JQYf5x5X0nire0izpmnILrJlnIASgo0H6RBPexrGzyPhasHWRf7of/vBPLHIzE8Ji6OoCHvHXFbFX1d7n7BOjAgCPGfSmLfEFC3WJsmkHiachhZGEsN2YnAE9uyjuQ==","691f8ca61c6b4dcbb0aeb5f4","691fabdc3ebea909549f188c","index1","<span style='color:red'>Fail,<span style='color:red'>Fail,<span style='color:green'>Lift,<span style='color:green'>Lift,<span style='color:red'>Fail,<span style='color:red'>Fail,<span style='color:red'>Fail,<span style='color:red'>Fail,<span style='color:green'>Lift,<span style='color:red'>Fail,<span style='color:green'>Lift,<span style='color:red'>Fail","<span style='color:red'>Fail,<span style='color:red'>Fail,<span style='color:green'>Lift,<span style='color:green'>Lift,<span style='color:green'>Lift,<span style='color:green'>Lift,<span style='color:green'>Lift,<span style='color:red'>Fail,<span style='color:green'>Lift,<span style='color:green'>Lift,<span style='color:green'>Lift,<span style='color:red'>Fail","<span style='color:red'>Fail,<span style='color:green'>Lift,<span style='color:green'>Lift,<span style='color:red'>Fail,<span style='color:green'>Lift,<span style='color:green'>Lift","0,0,1,1,0,0,0,0,1,0,1,0","0,0,1,1,1,1,1,0,1,1,1,0","0,1,1,0,1,1",10,20,20,"","","<p style='font-size:30px'><b> New Contest! </b></p>","null","","",NA,5,"",NA,NA,NA,NA,NA,NA,NA,NA,NA,NA,NA,NA,NA,NA,NA,NA,NA,NA,NA,NA,NA,NA,NA,NA,NA,NA,NA,NA,NA,NA,NA,NA,NA,NA,NA,NA,NA,NA,NA,"",NA,NA,NA,NA,NA,NA,NA,NA,2025-11-21 00:45:11
"22052.700000047684","https://psyc-201.github.io/xiang2023/exp/index1.html?PROLIFIC_PID=REDACTED&STUDY_ID=691f8ca61c6b4dcbb0aeb5f4&SESSION_ID=691fabdc3ebea909549f188c","survey-html-form",36,1941968,"0.0-344.0","noZMTagdDP6pVgvbTDJhVmApjn2m6QBlaqop99cEvbCIpVEEYp0mMioaWFEsZ3RobK8UsugL6gnYSxriKEc5fB4CsJiFkutwrLr62uuGwLLk3Fduy1uZPbvp2yLiTgtbGPf9cbnIgLcaPHFfYNWB0uqgBUmOOV8OjwIqKCXfU/rj0mY8GWnCzZ2Hnmr0/zgspLrPYnd55w/e+sP7L4uApWn3JQYf5x5X0nire0izpmnILrJlnIASgo0H6RBPexrGzyPhasHWRf7of/vBPLHIzE8Ji6OoCHvHXFbFX1d7n7BOjAgCPGfSmLfEFC3WJsmkHiachhZGEsN2YnAE9uyjuQ==","691f8ca61c6b4dcbb0aeb5f4","691fabdc3ebea909549f188c","index1","<span style='color:red'>Fail,<span style='color:red'>Fail,<span style='color:green'>Lift,<span style='color:green'>Lift,<span style='color:red'>Fail,<span style='color:red'>Fail,<span style='color:red'>Fail,<span style='color:red'>Fail,<span style='color:green'>Lift,<span style='color:red'>Fail,<span style='color:green'>Lift,<span style='color:red'>Fail","<span style='color:red'>Fail,<span style='color:red'>Fail,<span style='color:green'>Lift,<span style='color:green'>Lift,<span style='color:green'>Lift,<span style='color:green'>Lift,<span style='color:green'>Lift,<span style='color:red'>Fail,<span style='color:green'>Lift,<span style='color:green'>Lift,<span style='color:green'>Lift,<span style='color:red'>Fail","<span style='color:red'>Fail,<span style='color:green'>Lift,<span style='color:green'>Lift,<span style='color:red'>Fail,<span style='color:green'>Lift,<span style='color:green'>Lift","0,0,1,1,0,0,0,0,1,0,1,0","0,0,1,1,1,1,1,0,1,1,1,0","0,1,1,0,1,1",10,20,20,"","","","","{""box1"":""5"",""box2"":""5""}","",NA,5,"round1_outcome",1,5,1,5,5,NA,NA,0,0,10,5,5,NA,NA,0,0,10,NA,NA,NA,NA,NA,NA,NA,NA,NA,NA,NA,NA,NA,NA,NA,NA,NA,NA,NA,NA,NA,NA,"",NA,NA,NA,NA,NA,NA,NA,NA,2025-11-21 00:45:11
"27635.699999928474","https://psyc-201.github.io/xiang2023/exp/index1.html?PROLIFIC_PID=REDACTED&STUDY_ID=691f8ca61c6b4dcbb0aeb5f4&SESSION_ID=691fabdc3ebea909549f188c","survey-html-form",37,1969606,"0.0-345.0","noZMTagdDP6pVgvbTDJhVmApjn2m6QBlaqop99cEvbCIpVEEYp0mMioaWFEsZ3RobK8UsugL6gnYSxriKEc5fB4CsJiFkutwrLr62uuGwLLk3Fduy1uZPbvp2yLiTgtbGPf9cbnIgLcaPHFfYNWB0uqgBUmOOV8OjwIqKCXfU/rj0mY8GWnCzZ2Hnmr0/zgspLrPYnd55w/e+sP7L4uApWn3JQYf5x5X0nire0izpmnILrJlnIASgo0H6RBPexrGzyPhasHWRf7of/vBPLHIzE8Ji6OoCHvHXFbFX1d7n7BOjAgCPGfSmLfEFC3WJsmkHiachhZGEsN2YnAE9uyjuQ==","691f8ca61c6b4dcbb0aeb5f4","691fabdc3ebea909549f188c","index1","<span style='color:red'>Fail,<span style='color:red'>Fail,<span style='color:green'>Lift,<span style='color:green'>Lift,<span style='color:red'>Fail,<span style='color:red'>Fail,<span style='color:red'>Fail,<span style='color:red'>Fail,<span style='color:green'>Lift,<span style='color:red'>Fail,<span style='color:green'>Lift,<span style='color:red'>Fail","<span style='color:red'>Fail,<span style='color:red'>Fail,<span style='color:green'>Lift,<span style='color:green'>Lift,<span style='color:green'>Lift,<span style='color:green'>Lift,<span style='color:green'>Lift,<span style='color:red'>Fail,<span style='color:green'>Lift,<span style='color:green'>Lift,<span style='color:green'>Lift,<span style='color:red'>Fail","<span style='color:red'>Fail,<span style='color:green'>Lift,<span style='color:green'>Lift,<span style='color:red'>Fail,<span style='color:green'>Lift,<span style='color:green'>Lift","0,0,1,1,0,0,0,0,1,0,1,0","0,0,1,1,1,1,1,0,1,1,1,0","0,1,1,0,1,1",10,20,20,"","","","","{""box1"":""65"",""box2"":""65""}","",NA,5,"round2_ready",2,5,2,NA,NA,NA,NA,NA,NA,NA,NA,NA,NA,NA,NA,NA,NA,65,65,65,65,NA,NA,NA,NA,NA,NA,NA,NA,NA,NA,NA,NA,NA,NA,NA,NA,NA,NA,"",NA,NA,NA,NA,NA,NA,NA,NA,2025-11-21 00:45:11
"20859.700000047684","https://psyc-201.github.io/xiang2023/exp/index1.html?PROLIFIC_PID=REDACTED&STUDY_ID=691f8ca61c6b4dcbb0aeb5f4&SESSION_ID=691fabdc3ebea909549f188c","survey-html-form",38,1990468,"0.0-346.0","noZMTagdDP6pVgvbTDJhVmApjn2m6QBlaqop99cEvbCIpVEEYp0mMioaWFEsZ3RobK8UsugL6gnYSxriKEc5fB4CsJiFkutwrLr62uuGwLLk3Fduy1uZPbvp2yLiTgtbGPf9cbnIgLcaPHFfYNWB0uqgBUmOOV8OjwIqKCXfU/rj0mY8GWnCzZ2Hnmr0/zgspLrPYnd55w/e+sP7L4uApWn3JQYf5x5X0nire0izpmnILrJlnIASgo0H6RBPexrGzyPhasHWRf7of/vBPLHIzE8Ji6OoCHvHXFbFX1d7n7BOjAgCPGfSmLfEFC3WJsmkHiachhZGEsN2YnAE9uyjuQ==","691f8ca61c6b4dcbb0aeb5f4","691fabdc3ebea909549f188c","index1","<span style='color:red'>Fail,<span style='color:red'>Fail,<span style='color:green'>Lift,<span style='color:green'>Lift,<span style='color:red'>Fail,<span style='color:red'>Fail,<span style='color:red'>Fail,<span style='color:red'>Fail,<span style='color:green'>Lift,<span style='color:red'>Fail,<span style='color:green'>Lift,<span style='color:red'>Fail","<span style='color:red'>Fail,<span style='color:red'>Fail,<span style='color:green'>Lift,<span style='color:green'>Lift,<span style='color:green'>Lift,<span style='color:green'>Lift,<span style='color:green'>Lift,<span style='color:red'>Fail,<span style='color:green'>Lift,<span style='color:green'>Lift,<span style='color:green'>Lift,<span style='color:red'>Fail","<span style='color:red'>Fail,<span style='color:green'>Lift,<span style='color:green'>Lift,<span style='color:red'>Fail,<span style='color:green'>Lift,<span style='color:green'>Lift","0,0,1,1,0,0,0,0,1,0,1,0","0,0,1,1,1,1,1,0,1,1,1,0","0,1,1,0,1,1",10,20,20,"","","","","{""box1"":""5"",""box2"":""5"",""box3"":""80""}","",NA,5,"round2_outcome",3,5,2,5,5,80,NA,1,0,20,NA,NA,NA,NA,NA,NA,NA,NA,NA,NA,NA,5,5,80,NA,1,0,20,NA,NA,NA,NA,NA,NA,NA,NA,NA,NA,NA,"",NA,NA,NA,NA,NA,NA,NA,NA,2025-11-21 00:45:11
"68933.90000009537","https://psyc-201.github.io/xiang2023/exp/index1.html?PROLIFIC_PID=REDACTED&STUDY_ID=691f8ca61c6b4dcbb0aeb5f4&SESSION_ID=691fabdc3ebea909549f188c","survey-html-form",39,2059404,"0.0-347.0","noZMTagdDP6pVgvbTDJhVmApjn2m6QBlaqop99cEvbCIpVEEYp0mMioaWFEsZ3RobK8UsugL6gnYSxriKEc5fB4CsJiFkutwrLr62uuGwLLk3Fduy1uZPbvp2yLiTgtbGPf9cbnIgLcaPHFfYNWB0uqgBUmOOV8OjwIqKCXfU/rj0mY8GWnCzZ2Hnmr0/zgspLrPYnd55w/e+sP7L4uApWn3JQYf5x5X0nire0izpmnILrJlnIASgo0H6RBPexrGzyPhasHWRf7of/vBPLHIzE8Ji6OoCHvHXFbFX1d7n7BOjAgCPGfSmLfEFC3WJsmkHiachhZGEsN2YnAE9uyjuQ==","691f8ca61c6b4dcbb0aeb5f4","691fabdc3ebea909549f188c","index1","<span style='color:red'>Fail,<span style='color:red'>Fail,<span style='color:green'>Lift,<span style='color:green'>Lift,<span style='color:red'>Fail,<span style='color:red'>Fail,<span style='color:red'>Fail,<span style='color:red'>Fail,<span style='color:green'>Lift,<span style='color:red'>Fail,<span style='color:green'>Lift,<span style='color:red'>Fail","<span style='color:red'>Fail,<span style='color:red'>Fail,<span style='color:green'>Lift,<span style='color:green'>Lift,<span style='color:green'>Lift,<span style='color:green'>Lift,<span style='color:green'>Lift,<span style='color:red'>Fail,<span style='color:green'>Lift,<span style='color:green'>Lift,<span style='color:green'>Lift,<span style='color:red'>Fail","<span style='color:red'>Fail,<span style='color:green'>Lift,<span style='color:green'>Lift,<span style='color:red'>Fail,<span style='color:green'>Lift,<span style='color:green'>Lift","0,0,1,1,0,0,0,0,1,0,1,0","0,0,1,1,1,1,1,0,1,1,1,0","0,1,1,0,1,1",10,20,20,"","","","","{""box1"":""80""}","",NA,5,"round3_ready",4,5,3,NA,NA,NA,NA,NA,NA,NA,NA,NA,NA,NA,NA,NA,NA,80,80,NA,NA,NA,NA,NA,NA,NA,NA,NA,80,80,NA,NA,NA,NA,NA,NA,NA,NA,NA,"",NA,NA,NA,NA,NA,NA,NA,NA,2025-11-21 00:45:11
"25887.200000047684","https://psyc-201.github.io/xiang2023/exp/index1.html?PROLIFIC_PID=REDACTED&STUDY_ID=691f8ca61c6b4dcbb0aeb5f4&SESSION_ID=691fabdc3ebea909549f188c","survey-html-form",40,2085293,"0.0-349.0-0.0","noZMTagdDP6pVgvbTDJhVmApjn2m6QBlaqop99cEvbCIpVEEYp0mMioaWFEsZ3RobK8UsugL6gnYSxriKEc5fB4CsJiFkutwrLr62uuGwLLk3Fduy1uZPbvp2yLiTgtbGPf9cbnIgLcaPHFfYNWB0uqgBUmOOV8OjwIqKCXfU/rj0mY8GWnCzZ2Hnmr0/zgspLrPYnd55w/e+sP7L4uApWn3JQYf5x5X0nire0izpmnILrJlnIASgo0H6RBPexrGzyPhasHWRf7of/vBPLHIzE8Ji6OoCHvHXFbFX1d7n7BOjAgCPGfSmLfEFC3WJsmkHiachhZGEsN2YnAE9uyjuQ==","691f8ca61c6b4dcbb0aeb5f4","691fabdc3ebea909549f188c","index1","<span style='color:red'>Fail,<span style='color:red'>Fail,<span style='color:green'>Lift,<span style='color:green'>Lift,<span style='color:red'>Fail,<span style='color:red'>Fail,<span style='color:red'>Fail,<span style='color:red'>Fail,<span style='color:green'>Lift,<span style='color:red'>Fail,<span style='color:green'>Lift,<span style='color:red'>Fail","<span style='color:red'>Fail,<span style='color:red'>Fail,<span style='color:green'>Lift,<span style='color:green'>Lift,<span style='color:green'>Lift,<span style='color:green'>Lift,<span style='color:green'>Lift,<span style='color:red'>Fail,<span style='color:green'>Lift,<span style='color:green'>Lift,<span style='color:green'>Lift,<span style='color:red'>Fail","<span style='color:red'>Fail,<span style='color:green'>Lift,<span style='color:green'>Lift,<span style='color:red'>Fail,<span style='color:green'>Lift,<span style='color:green'>Lift","0,0,1,1,0,0,0,0,1,0,1,0","0,0,1,1,1,1,1,0,1,1,1,0","0,1,1,0,1,1",10,20,20,"","","","","{""box1"":""5"",""box2"":""5"",""box3"":""999"",""box4"":""999""}","",NA,6,"round3_fail",5,5,3,5,5,NA,NA,0,0,20,NA,NA,NA,NA,NA,NA,NA,NA,NA,NA,NA,NA,NA,NA,NA,NA,NA,NA,NA,NA,5,5,NA,NA,0,0,20,1,1,"",NA,NA,NA,NA,NA,NA,NA,NA,2025-11-21 00:45:11
"null","https://psyc-201.github.io/xiang2023/exp/index1.html?PROLIFIC_PID=REDACTED&STUDY_ID=691f8ca61c6b4dcbb0aeb5f4&SESSION_ID=691fabdc3ebea909549f188c","html-keyboard-response",41,2088299,"0.0-352.0","noZMTagdDP6pVgvbTDJhVmApjn2m6QBlaqop99cEvbCIpVEEYp0mMioaWFEsZ3RobK8UsugL6gnYSxriKEc5fB4CsJiFkutwrLr62uuGwLLk3Fduy1uZPbvp2yLiTgtbGPf9cbnIgLcaPHFfYNWB0uqgBUmOOV8OjwIqKCXfU/rj0mY8GWnCzZ2Hnmr0/zgspLrPYnd55w/e+sP7L4uApWn3JQYf5x5X0nire0izpmnILrJlnIASgo0H6RBPexrGzyPhasHWRf7of/vBPLHIzE8Ji6OoCHvHXFbFX1d7n7BOjAgCPGfSmLfEFC3WJsmkHiachhZGEsN2YnAE9uyjuQ==","691f8ca61c6b4dcbb0aeb5f4","691fabdc3ebea909549f188c","index1","<span style='color:red'>Fail,<span style='color:red'>Fail,<span style='color:green'>Lift,<span style='color:green'>Lift,<span style='color:red'>Fail,<span style='color:red'>Fail,<span style='color:red'>Fail,<span style='color:red'>Fail,<span style='color:green'>Lift,<span style='color:red'>Fail,<span style='color:green'>Lift,<span style='color:red'>Fail","<span style='color:red'>Fail,<span style='color:red'>Fail,<span style='color:green'>Lift,<span style='color:green'>Lift,<span style='color:green'>Lift,<span style='color:green'>Lift,<span style='color:green'>Lift,<span style='color:red'>Fail,<span style='color:green'>Lift,<span style='color:green'>Lift,<span style='color:green'>Lift,<span style='color:red'>Fail","<span style='color:red'>Fail,<span style='color:green'>Lift,<span style='color:green'>Lift,<span style='color:red'>Fail,<span style='color:green'>Lift,<span style='color:green'>Lift","0,0,1,1,0,0,0,0,1,0,1,0","0,0,1,1,1,1,1,0,1,1,1,0","0,1,1,0,1,1",10,20,20,"","","<p style='font-size:30px'><b> New Contest! </b></p>","null","","",NA,6,"",NA,NA,NA,NA,NA,NA,NA,NA,NA,NA,NA,NA,NA,NA,NA,NA,NA,NA,NA,NA,NA,NA,NA,NA,NA,NA,NA,NA,NA,NA,NA,NA,NA,NA,NA,NA,NA,NA,NA,"",NA,NA,NA,NA,NA,NA,NA,NA,2025-11-21 00:45:11
"21865.699999928474","https://psyc-201.github.io/xiang2023/exp/index1.html?PROLIFIC_PID=REDACTED&STUDY_ID=691f8ca61c6b4dcbb0aeb5f4&SESSION_ID=691fabdc3ebea909549f188c","survey-html-form",42,2110169,"0.0-353.0","noZMTagdDP6pVgvbTDJhVmApjn2m6QBlaqop99cEvbCIpVEEYp0mMioaWFEsZ3RobK8UsugL6gnYSxriKEc5fB4CsJiFkutwrLr62uuGwLLk3Fduy1uZPbvp2yLiTgtbGPf9cbnIgLcaPHFfYNWB0uqgBUmOOV8OjwIqKCXfU/rj0mY8GWnCzZ2Hnmr0/zgspLrPYnd55w/e+sP7L4uApWn3JQYf5x5X0nire0izpmnILrJlnIASgo0H6RBPexrGzyPhasHWRf7of/vBPLHIzE8Ji6OoCHvHXFbFX1d7n7BOjAgCPGfSmLfEFC3WJsmkHiachhZGEsN2YnAE9uyjuQ==","691f8ca61c6b4dcbb0aeb5f4","691fabdc3ebea909549f188c","index1","<span style='color:red'>Fail,<span style='color:red'>Fail,<span style='color:green'>Lift,<span style='color:green'>Lift,<span style='color:red'>Fail,<span style='color:red'>Fail,<span style='color:red'>Fail,<span style='color:red'>Fail,<span style='color:green'>Lift,<span style='color:red'>Fail,<span style='color:green'>Lift,<span style='color:red'>Fail","<span style='color:red'>Fail,<span style='color:red'>Fail,<span style='color:green'>Lift,<span style='color:green'>Lift,<span style='color:green'>Lift,<span style='color:green'>Lift,<span style='color:green'>Lift,<span style='color:red'>Fail,<span style='color:green'>Lift,<span style='color:green'>Lift,<span style='color:green'>Lift,<span style='color:red'>Fail","<span style='color:red'>Fail,<span style='color:green'>Lift,<span style='color:green'>Lift,<span style='color:red'>Fail,<span style='color:green'>Lift,<span style='color:green'>Lift","0,0,1,1,0,0,0,0,1,0,1,0","0,0,1,1,1,1,1,0,1,1,1,0","0,1,1,0,1,1",10,20,20,"","","","","{""box1"":""6"",""box2"":""6"",""box3"":""90"",""box4"":""90""}","",NA,6,"round1_outcome",1,6,1,6,6,90,90,1,1,10,6,6,90,90,1,1,10,NA,NA,NA,NA,NA,NA,NA,NA,NA,NA,NA,NA,NA,NA,NA,NA,NA,NA,NA,NA,NA,NA,"",NA,NA,NA,NA,NA,NA,NA,NA,2025-11-21 00:45:11
"19873.100000023842","https://psyc-201.github.io/xiang2023/exp/index1.html?PROLIFIC_PID=REDACTED&STUDY_ID=691f8ca61c6b4dcbb0aeb5f4&SESSION_ID=691fabdc3ebea909549f188c","survey-html-form",43,2130044,"0.0-354.0","noZMTagdDP6pVgvbTDJhVmApjn2m6QBlaqop99cEvbCIpVEEYp0mMioaWFEsZ3RobK8UsugL6gnYSxriKEc5fB4CsJiFkutwrLr62uuGwLLk3Fduy1uZPbvp2yLiTgtbGPf9cbnIgLcaPHFfYNWB0uqgBUmOOV8OjwIqKCXfU/rj0mY8GWnCzZ2Hnmr0/zgspLrPYnd55w/e+sP7L4uApWn3JQYf5x5X0nire0izpmnILrJlnIASgo0H6RBPexrGzyPhasHWRf7of/vBPLHIzE8Ji6OoCHvHXFbFX1d7n7BOjAgCPGfSmLfEFC3WJsmkHiachhZGEsN2YnAE9uyjuQ==","691f8ca61c6b4dcbb0aeb5f4","691fabdc3ebea909549f188c","index1","<span style='color:red'>Fail,<span style='color:red'>Fail,<span style='color:green'>Lift,<span style='color:green'>Lift,<span style='color:red'>Fail,<span style='color:red'>Fail,<span style='color:red'>Fail,<span style='color:red'>Fail,<span style='color:green'>Lift,<span style='color:red'>Fail,<span style='color:green'>Lift,<span style='color:red'>Fail","<span style='color:red'>Fail,<span style='color:red'>Fail,<span style='color:green'>Lift,<span style='color:green'>Lift,<span style='color:green'>Lift,<span style='color:green'>Lift,<span style='color:green'>Lift,<span style='color:red'>Fail,<span style='color:green'>Lift,<span style='color:green'>Lift,<span style='color:green'>Lift,<span style='color:red'>Fail","<span style='color:red'>Fail,<span style='color:green'>Lift,<span style='color:green'>Lift,<span style='color:red'>Fail,<span style='color:green'>Lift,<span style='color:green'>Lift","0,0,1,1,0,0,0,0,1,0,1,0","0,0,1,1,1,1,1,0,1,1,1,0","0,1,1,0,1,1",10,20,20,"","","","","{""box1"":""95"",""box2"":""95""}","",NA,6,"round2_ready",2,6,2,NA,NA,NA,NA,NA,NA,NA,NA,NA,NA,NA,NA,NA,NA,95,95,95,95,NA,NA,NA,NA,NA,NA,NA,NA,NA,NA,NA,NA,NA,NA,NA,NA,NA,NA,"",NA,NA,NA,NA,NA,NA,NA,NA,2025-11-21 00:45:11
"22342.600000023842","https://psyc-201.github.io/xiang2023/exp/index1.html?PROLIFIC_PID=REDACTED&STUDY_ID=691f8ca61c6b4dcbb0aeb5f4&SESSION_ID=691fabdc3ebea909549f188c","survey-html-form",44,2152388,"0.0-355.0","noZMTagdDP6pVgvbTDJhVmApjn2m6QBlaqop99cEvbCIpVEEYp0mMioaWFEsZ3RobK8UsugL6gnYSxriKEc5fB4CsJiFkutwrLr62uuGwLLk3Fduy1uZPbvp2yLiTgtbGPf9cbnIgLcaPHFfYNWB0uqgBUmOOV8OjwIqKCXfU/rj0mY8GWnCzZ2Hnmr0/zgspLrPYnd55w/e+sP7L4uApWn3JQYf5x5X0nire0izpmnILrJlnIASgo0H6RBPexrGzyPhasHWRf7of/vBPLHIzE8Ji6OoCHvHXFbFX1d7n7BOjAgCPGfSmLfEFC3WJsmkHiachhZGEsN2YnAE9uyjuQ==","691f8ca61c6b4dcbb0aeb5f4","691fabdc3ebea909549f188c","index1","<span style='color:red'>Fail,<span style='color:red'>Fail,<span style='color:green'>Lift,<span style='color:green'>Lift,<span style='color:red'>Fail,<span style='color:red'>Fail,<span style='color:red'>Fail,<span style='color:red'>Fail,<span style='color:green'>Lift,<span style='color:red'>Fail,<span style='color:green'>Lift,<span style='color:red'>Fail","<span style='color:red'>Fail,<span style='color:red'>Fail,<span style='color:green'>Lift,<span style='color:green'>Lift,<span style='color:green'>Lift,<span style='color:green'>Lift,<span style='color:green'>Lift,<span style='color:red'>Fail,<span style='color:green'>Lift,<span style='color:green'>Lift,<span style='color:green'>Lift,<span style='color:red'>Fail","<span style='color:red'>Fail,<span style='color:green'>Lift,<span style='color:green'>Lift,<span style='color:red'>Fail,<span style='color:green'>Lift,<span style='color:green'>Lift","0,0,1,1,0,0,0,0,1,0,1,0","0,0,1,1,1,1,1,0,1,1,1,0","0,1,1,0,1,1",10,20,20,"","","","","{""box1"":""6"",""box2"":""6"",""box3"":""60"",""box4"":""60""}","",NA,6,"round2_outcome",3,6,2,6,6,60,60,1,1,20,NA,NA,NA,NA,NA,NA,NA,NA,NA,NA,NA,6,6,60,60,1,1,20,NA,NA,NA,NA,NA,NA,NA,NA,NA,NA,NA,"",NA,NA,NA,NA,NA,NA,NA,NA,2025-11-21 00:45:11
"150233.29999995232","https://psyc-201.github.io/xiang2023/exp/index1.html?PROLIFIC_PID=REDACTED&STUDY_ID=691f8ca61c6b4dcbb0aeb5f4&SESSION_ID=691fabdc3ebea909549f188c","survey-html-form",45,2302623,"0.0-356.0","noZMTagdDP6pVgvbTDJhVmApjn2m6QBlaqop99cEvbCIpVEEYp0mMioaWFEsZ3RobK8UsugL6gnYSxriKEc5fB4CsJiFkutwrLr62uuGwLLk3Fduy1uZPbvp2yLiTgtbGPf9cbnIgLcaPHFfYNWB0uqgBUmOOV8OjwIqKCXfU/rj0mY8GWnCzZ2Hnmr0/zgspLrPYnd55w/e+sP7L4uApWn3JQYf5x5X0nire0izpmnILrJlnIASgo0H6RBPexrGzyPhasHWRf7of/vBPLHIzE8Ji6OoCHvHXFbFX1d7n7BOjAgCPGfSmLfEFC3WJsmkHiachhZGEsN2YnAE9uyjuQ==","691f8ca61c6b4dcbb0aeb5f4","691fabdc3ebea909549f188c","index1","<span style='color:red'>Fail,<span style='color:red'>Fail,<span style='color:green'>Lift,<span style='color:green'>Lift,<span style='color:red'>Fail,<span style='color:red'>Fail,<span style='color:red'>Fail,<span style='color:red'>Fail,<span style='color:green'>Lift,<span style='color:red'>Fail,<span style='color:green'>Lift,<span style='color:red'>Fail","<span style='color:red'>Fail,<span style='color:red'>Fail,<span style='color:green'>Lift,<span style='color:green'>Lift,<span style='color:green'>Lift,<span style='color:green'>Lift,<span style='color:green'>Lift,<span style='color:red'>Fail,<span style='color:green'>Lift,<span style='color:green'>Lift,<span style='color:green'>Lift,<span style='color:red'>Fail","<span style='color:red'>Fail,<span style='color:green'>Lift,<span style='color:green'>Lift,<span style='color:red'>Fail,<span style='color:green'>Lift,<span style='color:green'>Lift","0,0,1,1,0,0,0,0,1,0,1,0","0,0,1,1,1,1,1,0,1,1,1,0","0,1,1,0,1,1",10,20,20,"","","","","{""box1"":""95""}","",NA,6,"round3_ready",4,6,3,NA,NA,NA,NA,NA,NA,NA,NA,NA,NA,NA,NA,NA,NA,95,95,NA,NA,NA,NA,NA,NA,NA,NA,NA,95,95,NA,NA,NA,NA,NA,NA,NA,NA,NA,"",NA,NA,NA,NA,NA,NA,NA,NA,2025-11-21 00:45:11
"23286.100000023842","https://psyc-201.github.io/xiang2023/exp/index1.html?PROLIFIC_PID=REDACTED&STUDY_ID=691f8ca61c6b4dcbb0aeb5f4&SESSION_ID=691fabdc3ebea909549f188c","survey-html-form",46,2325912,"0.0-357.0-0.0","noZMTagdDP6pVgvbTDJhVmApjn2m6QBlaqop99cEvbCIpVEEYp0mMioaWFEsZ3RobK8UsugL6gnYSxriKEc5fB4CsJiFkutwrLr62uuGwLLk3Fduy1uZPbvp2yLiTgtbGPf9cbnIgLcaPHFfYNWB0uqgBUmOOV8OjwIqKCXfU/rj0mY8GWnCzZ2Hnmr0/zgspLrPYnd55w/e+sP7L4uApWn3JQYf5x5X0nire0izpmnILrJlnIASgo0H6RBPexrGzyPhasHWRf7of/vBPLHIzE8Ji6OoCHvHXFbFX1d7n7BOjAgCPGfSmLfEFC3WJsmkHiachhZGEsN2YnAE9uyjuQ==","691f8ca61c6b4dcbb0aeb5f4","691fabdc3ebea909549f188c","index1","<span style='color:red'>Fail,<span style='color:red'>Fail,<span style='color:green'>Lift,<span style='color:green'>Lift,<span style='color:red'>Fail,<span style='color:red'>Fail,<span style='color:red'>Fail,<span style='color:red'>Fail,<span style='color:green'>Lift,<span style='color:red'>Fail,<span style='color:green'>Lift,<span style='color:red'>Fail","<span style='color:red'>Fail,<span style='color:red'>Fail,<span style='color:green'>Lift,<span style='color:green'>Lift,<span style='color:green'>Lift,<span style='color:green'>Lift,<span style='color:green'>Lift,<span style='color:red'>Fail,<span style='color:green'>Lift,<span style='color:green'>Lift,<span style='color:green'>Lift,<span style='color:red'>Fail","<span style='color:red'>Fail,<span style='color:green'>Lift,<span style='color:green'>Lift,<span style='color:red'>Fail,<span style='color:green'>Lift,<span style='color:green'>Lift","0,0,1,1,0,0,0,0,1,0,1,0","0,0,1,1,1,1,1,0,1,1,1,0","0,1,1,0,1,1",10,20,20,"","","","","{""box1"":""6"",""box2"":""6"",""box3"":""60"",""box4"":""60""}","",NA,6,"round3_lift",5,6,3,6,6,60,60,1,1,20,NA,NA,NA,NA,NA,NA,NA,NA,NA,NA,NA,NA,NA,NA,NA,NA,NA,NA,NA,NA,6,6,60,60,1,1,20,NA,NA,"",NA,NA,NA,NA,NA,NA,NA,NA,2025-11-21 00:45:11
"82244.70000004768","https://psyc-201.github.io/xiang2023/exp/index1.html?PROLIFIC_PID=REDACTED&STUDY_ID=691f8ca61c6b4dcbb0aeb5f4&SESSION_ID=691fabdc3ebea909549f188c","survey-text",47,2408160,"0.0-361.0","noZMTagdDP6pVgvbTDJhVmApjn2m6QBlaqop99cEvbCIpVEEYp0mMioaWFEsZ3RobK8UsugL6gnYSxriKEc5fB4CsJiFkutwrLr62uuGwLLk3Fduy1uZPbvp2yLiTgtbGPf9cbnIgLcaPHFfYNWB0uqgBUmOOV8OjwIqKCXfU/rj0mY8GWnCzZ2Hnmr0/zgspLrPYnd55w/e+sP7L4uApWn3JQYf5x5X0nire0izpmnILrJlnIASgo0H6RBPexrGzyPhasHWRf7of/vBPLHIzE8Ji6OoCHvHXFbFX1d7n7BOjAgCPGfSmLfEFC3WJsmkHiachhZGEsN2YnAE9uyjuQ==","691f8ca61c6b4dcbb0aeb5f4","691fabdc3ebea909549f188c","index1","<span style='color:red'>Fail,<span style='color:red'>Fail,<span style='color:green'>Lift,<span style='color:green'>Lift,<span style='color:red'>Fail,<span style='color:red'>Fail,<span style='color:red'>Fail,<span style='color:red'>Fail,<span style='color:green'>Lift,<span style='color:red'>Fail,<span style='color:green'>Lift,<span style='color:red'>Fail","<span style='color:red'>Fail,<span style='color:red'>Fail,<span style='color:green'>Lift,<span style='color:green'>Lift,<span style='color:green'>Lift,<span style='color:green'>Lift,<span style='color:green'>Lift,<span style='color:red'>Fail,<span style='color:green'>Lift,<span style='color:green'>Lift,<span style='color:green'>Lift,<span style='color:red'>Fail","<span style='color:red'>Fail,<span style='color:green'>Lift,<span style='color:green'>Lift,<span style='color:red'>Fail,<span style='color:green'>Lift,<span style='color:green'>Lift","0,0,1,1,0,0,0,0,1,0,1,0","0,0,1,1,1,1,1,0,1,1,1,0","0,1,1,0,1,1",10,20,20,"","","","","{""Q0"":""I guessed how likely each contestant could lift the box, watched what actually happened, and then updated my ideas about their strength and effort for each round.""}","",NA,NA,"",NA,NA,NA,NA,NA,NA,NA,NA,NA,NA,NA,NA,NA,NA,NA,NA,NA,NA,NA,NA,NA,NA,NA,NA,NA,NA,NA,NA,NA,NA,NA,NA,NA,NA,NA,NA,NA,NA,NA,"",NA,NA,NA,NA,NA,NA,NA,NA,2025-11-21 00:45:11
"5675.899999976158","https://psyc-201.github.io/xiang2023/exp/index1.html?PROLIFIC_PID=REDACTED&STUDY_ID=691f8ca61c6b4dcbb0aeb5f4&SESSION_ID=691fabdc3ebea909549f188c","survey-text",48,2413838,"0.0-362.0","noZMTagdDP6pVgvbTDJhVmApjn2m6QBlaqop99cEvbCIpVEEYp0mMioaWFEsZ3RobK8UsugL6gnYSxriKEc5fB4CsJiFkutwrLr62uuGwLLk3Fduy1uZPbvp2yLiTgtbGPf9cbnIgLcaPHFfYNWB0uqgBUmOOV8OjwIqKCXfU/rj0mY8GWnCzZ2Hnmr0/zgspLrPYnd55w/e+sP7L4uApWn3JQYf5x5X0nire0izpmnILrJlnIASgo0H6RBPexrGzyPhasHWRf7of/vBPLHIzE8Ji6OoCHvHXFbFX1d7n7BOjAgCPGfSmLfEFC3WJsmkHiachhZGEsN2YnAE9uyjuQ==","691f8ca61c6b4dcbb0aeb5f4","691fabdc3ebea909549f188c","index1","<span style='color:red'>Fail,<span style='color:red'>Fail,<span style='color:green'>Lift,<span style='color:green'>Lift,<span style='color:red'>Fail,<span style='color:red'>Fail,<span style='color:red'>Fail,<span style='color:red'>Fail,<span style='color:green'>Lift,<span style='color:red'>Fail,<span style='color:green'>Lift,<span style='color:red'>Fail","<span style='color:red'>Fail,<span style='color:red'>Fail,<span style='color:green'>Lift,<span style='color:green'>Lift,<span style='color:green'>Lift,<span style='color:green'>Lift,<span style='color:green'>Lift,<span style='color:red'>Fail,<span style='color:green'>Lift,<span style='color:green'>Lift,<span style='color:green'>Lift,<span style='color:red'>Fail","<span style='color:red'>Fail,<span style='color:green'>Lift,<span style='color:green'>Lift,<span style='color:red'>Fail,<span style='color:green'>Lift,<span style='color:green'>Lift","0,0,1,1,0,0,0,0,1,0,1,0","0,0,1,1,1,1,1,0,1,1,1,0","0,1,1,0,1,1",10,20,20,"","","","","{""Q0"":""""}","",NA,NA,"",NA,NA,NA,NA,NA,NA,NA,NA,NA,NA,NA,NA,NA,NA,NA,NA,NA,NA,NA,NA,NA,NA,NA,NA,NA,NA,NA,NA,NA,NA,NA,NA,NA,NA,NA,NA,NA,NA,NA,"[{""event"":""focus"",""trial"":0,""time"":12078},{""event"":""blur"",""trial"":1,""time"":87016},{""event"":""focus"",""trial"":1,""time"":255129},{""event"":""fullscreenenter"",""trial"":1,""time"":255199},{""event"":""blur"",""trial"":6,""time"":1067366},{""event"":""focus"",""trial"":6,""time"":1074620},{""event"":""blur"",""trial"":6,""time"":1077680},{""event"":""focus"",""trial"":6,""time"":1080319},{""event"":""blur"",""trial"":6,""time"":1084091},{""event"":""focus"",""trial"":6,""time"":1087221},{""event"":""blur"",""trial"":6,""time"":1091443},{""event"":""focus"",""trial"":6,""time"":1097050},{""event"":""blur"",""trial"":6,""time"":1101690},{""event"":""focus"",""trial"":6,""time"":1104611},{""event"":""blur"",""trial"":6,""time"":1109746},{""event"":""focus"",""trial"":6,""time"":1113123},{""event"":""blur"",""trial"":6,""time"":1118382},{""event"":""focus"",""trial"":6,""time"":1124067},{""event"":""blur"",""trial"":8,""time"":1131963},{""event"":""focus"",""trial"":8,""time"":1135484},{""event"":""blur"",""trial"":9,""time"":1177058},{""event"":""focus"",""trial"":9,""time"":1180038},{""event"":""blur"",""trial"":12,""time"":1227688},{""event"":""focus"",""trial"":12,""time"":1236234},{""event"":""blur"",""trial"":13,""time"":1267637},{""event"":""focus"",""trial"":13,""time"":1278599},{""event"":""blur"",""trial"":14,""time"":1293077},{""event"":""focus"",""trial"":14,""time"":1306610},{""event"":""blur"",""trial"":15,""time"":1327222},{""event"":""focus"",""trial"":15,""time"":1413418},{""event"":""blur"",""trial"":16,""time"":1425600},{""event"":""focus"",""trial"":16,""time"":1434533},{""event"":""blur"",""trial"":18,""time"":1462035},{""event"":""focus"",""trial"":18,""time"":1472249},{""event"":""blur"",""trial"":19,""time"":1482027},{""event"":""focus"",""trial"":19,""time"":1491003},{""event"":""blur"",""trial"":20,""time"":1508049},{""event"":""focus"",""trial"":20,""time"":1555278},{""event"":""blur"",""trial"":21,""time"":1570634},{""event"":""focus"",""trial"":21,""time"":1586598},{""event"":""blur"",""trial"":22,""time"":1599628},{""event"":""focus"",""trial"":22,""time"":1633914},{""event"":""blur"",""trial"":24,""time"":1651553},{""event"":""focus"",""trial"":24,""time"":1660354},{""event"":""blur"",""trial"":25,""time"":1667150},{""event"":""focus"",""trial"":25,""time"":1675435},{""event"":""blur"",""trial"":26,""time"":1685913},{""event"":""focus"",""trial"":26,""time"":1692335},{""event"":""blur"",""trial"":27,""time"":1700211},{""event"":""focus"",""trial"":27,""time"":1707803},{""event"":""blur"",""trial"":28,""time"":1718477},{""event"":""focus"",""trial"":28,""time"":1729388},{""event"":""blur"",""trial"":30,""time"":1754953},{""event"":""focus"",""trial"":30,""time"":1764200},{""event"":""blur"",""trial"":31,""time"":1787848},{""event"":""focus"",""trial"":31,""time"":1827889},{""event"":""blur"",""trial"":32,""time"":1842045},{""event"":""focus"",""trial"":32,""time"":1849318},{""event"":""blur"",""trial"":33,""time"":1865733},{""event"":""focus"",""trial"":33,""time"":1885929},{""event"":""blur"",""trial"":34,""time"":1893842},{""event"":""focus"",""trial"":34,""time"":1901903},{""event"":""blur"",""trial"":36,""time"":1929718},{""event"":""focus"",""trial"":36,""time"":1937334},{""event"":""blur"",""trial"":37,""time"":1947182},{""event"":""focus"",""trial"":37,""time"":1959922},{""event"":""blur"",""trial"":38,""time"":1975286},{""event"":""focus"",""trial"":38,""time"":1983915},{""event"":""blur"",""trial"":39,""time"":1996718},{""event"":""focus"",""trial"":39,""time"":2004591},{""event"":""blur"",""trial"":40,""time"":2064409},{""event"":""focus"",""trial"":40,""time"":2073239},{""event"":""blur"",""trial"":42,""time"":2094169},{""event"":""focus"",""trial"":42,""time"":2100578},{""event"":""blur"",""trial"":43,""time"":2116080},{""event"":""focus"",""trial"":43,""time"":2123631},{""event"":""blur"",""trial"":44,""time"":2135424},{""event"":""focus"",""trial"":44,""time"":2144727},{""event"":""blur"",""trial"":45,""time"":2156781},{""event"":""focus"",""trial"":45,""time"":2278160},{""event"":""blur"",""trial"":46,""time"":2308170},{""event"":""focus"",""trial"":46,""time"":2316888},{""event"":""blur"",""trial"":47,""time"":2331386},{""event"":""focus"",""trial"":47,""time"":2353694},{""event"":""blur"",""trial"":47,""time"":2362004},{""event"":""focus"",""trial"":47,""time"":2368725}]",1,3,NA,90,1,0.9,NA,NA,2025-11-21 00:45:11
"4863.300000071526","https://psyc-201.github.io/xiang2023/exp/index1.html?PROLIFIC_PID=REDACTED&STUDY_ID=691f8ca61c6b4dcbb0aeb5f4&SESSION_ID=691fabdc3ebea909549f188c","html-button-response",49,2418704,"0.0-363.0","noZMTagdDP6pVgvbTDJhVmApjn2m6QBlaqop99cEvbCIpVEEYp0mMioaWFEsZ3RobK8UsugL6gnYSxriKEc5fB4CsJiFkutwrLr62uuGwLLk3Fduy1uZPbvp2yLiTgtbGPf9cbnIgLcaPHFfYNWB0uqgBUmOOV8OjwIqKCXfU/rj0mY8GWnCzZ2Hnmr0/zgspLrPYnd55w/e+sP7L4uApWn3JQYf5x5X0nire0izpmnILrJlnIASgo0H6RBPexrGzyPhasHWRf7of/vBPLHIzE8Ji6OoCHvHXFbFX1d7n7BOjAgCPGfSmLfEFC3WJsmkHiachhZGEsN2YnAE9uyjuQ==","691f8ca61c6b4dcbb0aeb5f4","691fabdc3ebea909549f188c","index1","<span style='color:red'>Fail,<span style='color:red'>Fail,<span style='color:green'>Lift,<span style='color:green'>Lift,<span style='color:red'>Fail,<span style='color:red'>Fail,<span style='color:red'>Fail,<span style='color:red'>Fail,<span style='color:green'>Lift,<span style='color:red'>Fail,<span style='color:green'>Lift,<span style='color:red'>Fail","<span style='color:red'>Fail,<span style='color:red'>Fail,<span style='color:green'>Lift,<span style='color:green'>Lift,<span style='color:green'>Lift,<span style='color:green'>Lift,<span style='color:green'>Lift,<span style='color:red'>Fail,<span style='color:green'>Lift,<span style='color:green'>Lift,<span style='color:green'>Lift,<span style='color:red'>Fail","<span style='color:red'>Fail,<span style='color:green'>Lift,<span style='color:green'>Lift,<span style='color:red'>Fail,<span style='color:green'>Lift,<span style='color:green'>Lift","0,0,1,1,0,0,0,0,1,0,1,0","0,0,1,1,1,1,1,0,1,1,1,0","0,1,1,0,1,1",10,20,20,"","","<p> We randomly picked <b>Contest 1, Round 3</b> to calculate your bonus. </p><p> The outcome of Contestant A and B on that round is <span style='color:green'>Lift</span>. </p><p> The probability you entered was 90. </p><p><b> You won a bonus of $0.90!</b></p><p> IMPORTANT: Please click 'Next' to complete the game. </p>","","","",0,NA,"",NA,NA,NA,NA,NA,NA,NA,NA,NA,NA,NA,NA,NA,NA,NA,NA,NA,NA,NA,NA,NA,NA,NA,NA,NA,NA,NA,NA,NA,NA,NA,NA,NA,NA,NA,NA,NA,NA,NA,"",NA,NA,NA,NA,NA,NA,2,1,2025-11-21 00:45:11
