"rt","url","trial_type","trial_index","time_elapsed","internal_node_id","encryptedProlificId","studyId","sessionId","expIndex","round1_outcomes","round2_outcomes","round3_outcomes","round1_o","round2_o","round3_o","round1_reward","round2_reward","round3_reward","success","view_history","stimulus","key_press","responses","question_order","j","Stage","stage","contest","round","strength_a","strength_b","effort_a","effort_b","outcome_a","outcome_b","reward","r1_strength_a","r1_strength_b","r1_effort_a","r1_effort_b","r1_outcome_a","r1_outcome_b","r1_reward","probability_a","probability_b","r2_prob_a","r2_prob_b","r2_strength_a","r2_strength_b","r2_effort_a","r2_effort_b","r2_outcome_a","r2_outcome_b","r2_reward","r3_prob_a","r3_prob_b","r3_strength_a","r3_strength_b","r3_effort_a","r3_effort_b","r3_outcome_a","r3_outcome_b","r3_reward","attention_check","count","screen","pick_contest","pick_round","pick_side","trial_probability","trial_outcome","bonus","button_pressed","attention_sum","attention","datapipe_meta.attributes.date_modified"
"24647.19999998808","https://psyc-201.github.io/xiang2023/exp/index1.html?PROLIFIC_PID=REDACTED&STUDY_ID=691f8ca61c6b4dcbb0aeb5f4&SESSION_ID=691fbd7668eae1cd9472735b","external-html",0,24708,"0.0-0.0","XMYO/OyQKtZwULJCetirOv/TiVdRhZBdly1IRQR3HIrt0szdolT8rdMHiPkYPP5YUf2Ib6FXMmZdPoOYAktnstRPRGl6eb/FGimftf43aNeAeuaFgGhO3KLXBhhLrKosjhol2L86FaiGZdej1hBdAioDUqB0pV1Ys5JvZZNz+mZTGgPA9TyXu6Bu6eijp/RqpiaEQGcAwWCECJk7UpOIlaiD+qtqDqdbcz5O8l+fcvOPfIW3C034a5u4syq1lua1Cb1AQ+bsxGa2ESu3H0cWM680A/q2rV+pFtMcWN/8nppGQSzmk2ysi+GqQc2QPd91ngOJ6rdaGhL6GdCsYS6xIQ==","691f8ca61c6b4dcbb0aeb5f4","691fbd7668eae1cd9472735b","index1","<span style='color:red'>Fail,<span style='color:red'>Fail,<span style='color:green'>Lift,<span style='color:green'>Lift,<span style='color:red'>Fail,<span style='color:red'>Fail,<span style='color:red'>Fail,<span style='color:red'>Fail,<span style='color:red'>Fail,<span style='color:green'>Lift,<span style='color:green'>Lift,<span style='color:red'>Fail","<span style='color:red'>Fail,<span style='color:red'>Fail,<span style='color:green'>Lift,<span style='color:green'>Lift,<span style='color:green'>Lift,<span style='color:green'>Lift,<span style='color:green'>Lift,<span style='color:red'>Fail,<span style='color:green'>Lift,<span style='color:green'>Lift,<span style='color:green'>Lift,<span style='color:red'>Fail","<span style='color:red'>Fail,<span style='color:green'>Lift,<span style='color:green'>Lift,<span style='color:red'>Fail,<span style='color:green'>Lift,<span style='color:green'>Lift","0,0,1,1,0,0,0,0,0,1,1,0","0,0,1,1,1,1,1,0,1,1,1,0","0,1,1,0,1,1",10,20,20,"","","","","","",NA,"",NA,NA,NA,NA,NA,NA,NA,NA,NA,NA,NA,NA,NA,NA,NA,NA,NA,NA,NA,NA,NA,NA,NA,NA,NA,NA,NA,NA,NA,NA,NA,NA,NA,NA,NA,NA,NA,NA,NA,"",NA,NA,NA,NA,NA,NA,NA,NA,NA,2025-11-21 01:35:08
"","https://psyc-201.github.io/xiang2023/exp/index1.html?PROLIFIC_PID=REDACTED&STUDY_ID=691f8ca61c6b4dcbb0aeb5f4&SESSION_ID=691fbd7668eae1cd9472735b","fullscreen",1,31043,"0.0-1.0","XMYO/OyQKtZwULJCetirOv/TiVdRhZBdly1IRQR3HIrt0szdolT8rdMHiPkYPP5YUf2Ib6FXMmZdPoOYAktnstRPRGl6eb/FGimftf43aNeAeuaFgGhO3KLXBhhLrKosjhol2L86FaiGZdej1hBdAioDUqB0pV1Ys5JvZZNz+mZTGgPA9TyXu6Bu6eijp/RqpiaEQGcAwWCECJk7UpOIlaiD+qtqDqdbcz5O8l+fcvOPfIW3C034a5u4syq1lua1Cb1AQ+bsxGa2ESu3H0cWM680A/q2rV+pFtMcWN/8nppGQSzmk2ysi+GqQc2QPd91ngOJ6rdaGhL6GdCsYS6xIQ==","691f8ca61c6b4dcbb0aeb5f4","691fbd7668eae1cd9472735b","index1","<span style='color:red'>Fail,<span style='color:red'>Fail,<span style='color:green'>Lift,<span style='color:green'>Lift,<span style='color:red'>Fail,<span style='color:red'>Fail,<span style='color:red'>Fail,<span style='color:red'>Fail,<span style='color:red'>Fail,<span style='color:green'>Lift,<span style='color:green'>Lift,<span style='color:red'>Fail","<span style='color:red'>Fail,<span style='color:red'>Fail,<span style='color:green'>Lift,<span style='color:green'>Lift,<span style='color:green'>Lift,<span style='color:green'>Lift,<span style='color:green'>Lift,<span style='color:red'>Fail,<span style='color:green'>Lift,<span style='color:green'>Lift,<span style='color:green'>Lift,<span style='color:red'>Fail","<span style='color:red'>Fail,<span style='color:green'>Lift,<span style='color:green'>Lift,<span style='color:red'>Fail,<span style='color:green'>Lift,<span style='color:green'>Lift","0,0,1,1,0,0,0,0,0,1,1,0","0,0,1,1,1,1,1,0,1,1,1,0","0,1,1,0,1,1",10,20,20,"true","","","","","",NA,"",NA,NA,NA,NA,NA,NA,NA,NA,NA,NA,NA,NA,NA,NA,NA,NA,NA,NA,NA,NA,NA,NA,NA,NA,NA,NA,NA,NA,NA,NA,NA,NA,NA,NA,NA,NA,NA,NA,NA,"",NA,NA,NA,NA,NA,NA,NA,NA,NA,2025-11-21 01:35:08
"184564.5","https://psyc-201.github.io/xiang2023/exp/index1.html?PROLIFIC_PID=REDACTED&STUDY_ID=691f8ca61c6b4dcbb0aeb5f4&SESSION_ID=691fbd7668eae1cd9472735b","instructions",2,215607,"0.0-2.0","XMYO/OyQKtZwULJCetirOv/TiVdRhZBdly1IRQR3HIrt0szdolT8rdMHiPkYPP5YUf2Ib6FXMmZdPoOYAktnstRPRGl6eb/FGimftf43aNeAeuaFgGhO3KLXBhhLrKosjhol2L86FaiGZdej1hBdAioDUqB0pV1Ys5JvZZNz+mZTGgPA9TyXu6Bu6eijp/RqpiaEQGcAwWCECJk7UpOIlaiD+qtqDqdbcz5O8l+fcvOPfIW3C034a5u4syq1lua1Cb1AQ+bsxGa2ESu3H0cWM680A/q2rV+pFtMcWN/8nppGQSzmk2ysi+GqQc2QPd91ngOJ6rdaGhL6GdCsYS6xIQ==","691f8ca61c6b4dcbb0aeb5f4","691fbd7668eae1cd9472735b","index1","<span style='color:red'>Fail,<span style='color:red'>Fail,<span style='color:green'>Lift,<span style='color:green'>Lift,<span style='color:red'>Fail,<span style='color:red'>Fail,<span style='color:red'>Fail,<span style='color:red'>Fail,<span style='color:red'>Fail,<span style='color:green'>Lift,<span style='color:green'>Lift,<span style='color:red'>Fail","<span style='color:red'>Fail,<span style='color:red'>Fail,<span style='color:green'>Lift,<span style='color:green'>Lift,<span style='color:green'>Lift,<span style='color:green'>Lift,<span style='color:green'>Lift,<span style='color:red'>Fail,<span style='color:green'>Lift,<span style='color:green'>Lift,<span style='color:green'>Lift,<span style='color:red'>Fail","<span style='color:red'>Fail,<span style='color:green'>Lift,<span style='color:green'>Lift,<span style='color:red'>Fail,<span style='color:green'>Lift,<span style='color:green'>Lift","0,0,1,1,0,0,0,0,0,1,1,0","0,0,1,1,1,1,1,0,1,1,1,0","0,1,1,0,1,1",10,20,20,"","[{""page_index"":0,""viewing_time"":33997.30000001192},{""page_index"":1,""viewing_time"":24849.59999999404},{""page_index"":2,""viewing_time"":14032.800000011921},{""page_index"":3,""viewing_time"":32334.29999998212},{""page_index"":4,""viewing_time"":10633.5},{""page_index"":5,""viewing_time"":57900.30000001192},{""page_index"":6,""viewing_time"":10816.09999999404}]","","","","",NA,"",NA,NA,NA,NA,NA,NA,NA,NA,NA,NA,NA,NA,NA,NA,NA,NA,NA,NA,NA,NA,NA,NA,NA,NA,NA,NA,NA,NA,NA,NA,NA,NA,NA,NA,NA,NA,NA,NA,NA,"",NA,NA,NA,NA,NA,NA,NA,NA,NA,2025-11-21 01:35:08
"null","https://psyc-201.github.io/xiang2023/exp/index1.html?PROLIFIC_PID=REDACTED&STUDY_ID=691f8ca61c6b4dcbb0aeb5f4&SESSION_ID=691fbd7668eae1cd9472735b","html-keyboard-response",3,216610,"0.0-3.0","XMYO/OyQKtZwULJCetirOv/TiVdRhZBdly1IRQR3HIrt0szdolT8rdMHiPkYPP5YUf2Ib6FXMmZdPoOYAktnstRPRGl6eb/FGimftf43aNeAeuaFgGhO3KLXBhhLrKosjhol2L86FaiGZdej1hBdAioDUqB0pV1Ys5JvZZNz+mZTGgPA9TyXu6Bu6eijp/RqpiaEQGcAwWCECJk7UpOIlaiD+qtqDqdbcz5O8l+fcvOPfIW3C034a5u4syq1lua1Cb1AQ+bsxGa2ESu3H0cWM680A/q2rV+pFtMcWN/8nppGQSzmk2ysi+GqQc2QPd91ngOJ6rdaGhL6GdCsYS6xIQ==","691f8ca61c6b4dcbb0aeb5f4","691fbd7668eae1cd9472735b","index1","<span style='color:red'>Fail,<span style='color:red'>Fail,<span style='color:green'>Lift,<span style='color:green'>Lift,<span style='color:red'>Fail,<span style='color:red'>Fail,<span style='color:red'>Fail,<span style='color:red'>Fail,<span style='color:red'>Fail,<span style='color:green'>Lift,<span style='color:green'>Lift,<span style='color:red'>Fail","<span style='color:red'>Fail,<span style='color:red'>Fail,<span style='color:green'>Lift,<span style='color:green'>Lift,<span style='color:green'>Lift,<span style='color:green'>Lift,<span style='color:green'>Lift,<span style='color:red'>Fail,<span style='color:green'>Lift,<span style='color:green'>Lift,<span style='color:green'>Lift,<span style='color:red'>Fail","<span style='color:red'>Fail,<span style='color:green'>Lift,<span style='color:green'>Lift,<span style='color:red'>Fail,<span style='color:green'>Lift,<span style='color:green'>Lift","0,0,1,1,0,0,0,0,0,1,1,0","0,0,1,1,1,1,1,0,1,1,1,0","0,1,1,0,1,1",10,20,20,"",""," ","null","","",NA,"",NA,NA,NA,NA,NA,NA,NA,NA,NA,NA,NA,NA,NA,NA,NA,NA,NA,NA,NA,NA,NA,NA,NA,NA,NA,NA,NA,NA,NA,NA,NA,NA,NA,NA,NA,NA,NA,NA,NA,"",NA,NA,NA,NA,NA,NA,NA,NA,NA,2025-11-21 01:35:08
"43298.5","https://psyc-201.github.io/xiang2023/exp/index1.html?PROLIFIC_PID=REDACTED&STUDY_ID=691f8ca61c6b4dcbb0aeb5f4&SESSION_ID=691fbd7668eae1cd9472735b","survey-multi-choice",4,259911,"0.0-4.0","XMYO/OyQKtZwULJCetirOv/TiVdRhZBdly1IRQR3HIrt0szdolT8rdMHiPkYPP5YUf2Ib6FXMmZdPoOYAktnstRPRGl6eb/FGimftf43aNeAeuaFgGhO3KLXBhhLrKosjhol2L86FaiGZdej1hBdAioDUqB0pV1Ys5JvZZNz+mZTGgPA9TyXu6Bu6eijp/RqpiaEQGcAwWCECJk7UpOIlaiD+qtqDqdbcz5O8l+fcvOPfIW3C034a5u4syq1lua1Cb1AQ+bsxGa2ESu3H0cWM680A/q2rV+pFtMcWN/8nppGQSzmk2ysi+GqQc2QPd91ngOJ6rdaGhL6GdCsYS6xIQ==","691f8ca61c6b4dcbb0aeb5f4","691fbd7668eae1cd9472735b","index1","<span style='color:red'>Fail,<span style='color:red'>Fail,<span style='color:green'>Lift,<span style='color:green'>Lift,<span style='color:red'>Fail,<span style='color:red'>Fail,<span style='color:red'>Fail,<span style='color:red'>Fail,<span style='color:red'>Fail,<span style='color:green'>Lift,<span style='color:green'>Lift,<span style='color:red'>Fail","<span style='color:red'>Fail,<span style='color:red'>Fail,<span style='color:green'>Lift,<span style='color:green'>Lift,<span style='color:green'>Lift,<span style='color:green'>Lift,<span style='color:green'>Lift,<span style='color:red'>Fail,<span style='color:green'>Lift,<span style='color:green'>Lift,<span style='color:green'>Lift,<span style='color:red'>Fail","<span style='color:red'>Fail,<span style='color:green'>Lift,<span style='color:green'>Lift,<span style='color:red'>Fail,<span style='color:green'>Lift,<span style='color:green'>Lift","0,0,1,1,0,0,0,0,0,1,1,0","0,0,1,1,1,1,1,0,1,1,1,0","0,1,1,0,1,1",10,20,20,"","","","","{""Q0"":""It consists of multiple contests, each contest with three rounds."",""Q1"":""When a new contest begins."",""Q2"":""The box weight always stays the same (equivalent to strength of 5)."",""Q3"":""Each will get $20."",""Q4"":""How close my guesses are to the actual outcome.""}","[0,1,2,3,4]",NA,"",NA,NA,NA,NA,NA,NA,NA,NA,NA,NA,NA,NA,NA,NA,NA,NA,NA,NA,NA,NA,NA,NA,NA,NA,NA,NA,NA,NA,NA,NA,NA,NA,NA,NA,NA,NA,NA,NA,NA,"",NA,NA,NA,NA,NA,NA,NA,NA,NA,2025-11-21 01:35:08
"24422.40000000596","https://psyc-201.github.io/xiang2023/exp/index1.html?PROLIFIC_PID=REDACTED&STUDY_ID=691f8ca61c6b4dcbb0aeb5f4&SESSION_ID=691fbd7668eae1cd9472735b","instructions",5,284339,"0.0-305.0","XMYO/OyQKtZwULJCetirOv/TiVdRhZBdly1IRQR3HIrt0szdolT8rdMHiPkYPP5YUf2Ib6FXMmZdPoOYAktnstRPRGl6eb/FGimftf43aNeAeuaFgGhO3KLXBhhLrKosjhol2L86FaiGZdej1hBdAioDUqB0pV1Ys5JvZZNz+mZTGgPA9TyXu6Bu6eijp/RqpiaEQGcAwWCECJk7UpOIlaiD+qtqDqdbcz5O8l+fcvOPfIW3C034a5u4syq1lua1Cb1AQ+bsxGa2ESu3H0cWM680A/q2rV+pFtMcWN/8nppGQSzmk2ysi+GqQc2QPd91ngOJ6rdaGhL6GdCsYS6xIQ==","691f8ca61c6b4dcbb0aeb5f4","691fbd7668eae1cd9472735b","index1","<span style='color:red'>Fail,<span style='color:red'>Fail,<span style='color:green'>Lift,<span style='color:green'>Lift,<span style='color:red'>Fail,<span style='color:red'>Fail,<span style='color:red'>Fail,<span style='color:red'>Fail,<span style='color:red'>Fail,<span style='color:green'>Lift,<span style='color:green'>Lift,<span style='color:red'>Fail","<span style='color:red'>Fail,<span style='color:red'>Fail,<span style='color:green'>Lift,<span style='color:green'>Lift,<span style='color:green'>Lift,<span style='color:green'>Lift,<span style='color:green'>Lift,<span style='color:red'>Fail,<span style='color:green'>Lift,<span style='color:green'>Lift,<span style='color:green'>Lift,<span style='color:red'>Fail","<span style='color:red'>Fail,<span style='color:green'>Lift,<span style='color:green'>Lift,<span style='color:red'>Fail,<span style='color:green'>Lift,<span style='color:green'>Lift","0,0,1,1,0,0,0,0,0,1,1,0","0,0,1,1,1,1,1,0,1,1,1,0","0,1,1,0,1,1",10,20,20,"","[{""page_index"":0,""viewing_time"":15088.5},{""page_index"":1,""viewing_time"":9333.40000000596}]","","","","",NA,"",NA,NA,NA,NA,NA,NA,NA,NA,NA,NA,NA,NA,NA,NA,NA,NA,NA,NA,NA,NA,NA,NA,NA,NA,NA,NA,NA,NA,NA,NA,NA,NA,NA,NA,NA,NA,NA,NA,NA,"",NA,NA,NA,NA,NA,NA,NA,NA,NA,2025-11-21 01:35:08
"null","https://psyc-201.github.io/xiang2023/exp/index1.html?PROLIFIC_PID=REDACTED&STUDY_ID=691f8ca61c6b4dcbb0aeb5f4&SESSION_ID=691fbd7668eae1cd9472735b","html-keyboard-response",6,285342,"0.0-306.0","XMYO/OyQKtZwULJCetirOv/TiVdRhZBdly1IRQR3HIrt0szdolT8rdMHiPkYPP5YUf2Ib6FXMmZdPoOYAktnstRPRGl6eb/FGimftf43aNeAeuaFgGhO3KLXBhhLrKosjhol2L86FaiGZdej1hBdAioDUqB0pV1Ys5JvZZNz+mZTGgPA9TyXu6Bu6eijp/RqpiaEQGcAwWCECJk7UpOIlaiD+qtqDqdbcz5O8l+fcvOPfIW3C034a5u4syq1lua1Cb1AQ+bsxGa2ESu3H0cWM680A/q2rV+pFtMcWN/8nppGQSzmk2ysi+GqQc2QPd91ngOJ6rdaGhL6GdCsYS6xIQ==","691f8ca61c6b4dcbb0aeb5f4","691fbd7668eae1cd9472735b","index1","<span style='color:red'>Fail,<span style='color:red'>Fail,<span style='color:green'>Lift,<span style='color:green'>Lift,<span style='color:red'>Fail,<span style='color:red'>Fail,<span style='color:red'>Fail,<span style='color:red'>Fail,<span style='color:red'>Fail,<span style='color:green'>Lift,<span style='color:green'>Lift,<span style='color:red'>Fail","<span style='color:red'>Fail,<span style='color:red'>Fail,<span style='color:green'>Lift,<span style='color:green'>Lift,<span style='color:green'>Lift,<span style='color:green'>Lift,<span style='color:green'>Lift,<span style='color:red'>Fail,<span style='color:green'>Lift,<span style='color:green'>Lift,<span style='color:green'>Lift,<span style='color:red'>Fail","<span style='color:red'>Fail,<span style='color:green'>Lift,<span style='color:green'>Lift,<span style='color:red'>Fail,<span style='color:green'>Lift,<span style='color:green'>Lift","0,0,1,1,0,0,0,0,0,1,1,0","0,0,1,1,1,1,1,0,1,1,1,0","0,1,1,0,1,1",10,20,20,"",""," ","null","","",1,"",NA,NA,NA,NA,NA,NA,NA,NA,NA,NA,NA,NA,NA,NA,NA,NA,NA,NA,NA,NA,NA,NA,NA,NA,NA,NA,NA,NA,NA,NA,NA,NA,NA,NA,NA,NA,NA,NA,NA,"",NA,NA,NA,NA,NA,NA,NA,NA,NA,2025-11-21 01:35:08
"null","https://psyc-201.github.io/xiang2023/exp/index1.html?PROLIFIC_PID=REDACTED&STUDY_ID=691f8ca61c6b4dcbb0aeb5f4&SESSION_ID=691fbd7668eae1cd9472735b","html-keyboard-response",7,288346,"0.0-307.0","XMYO/OyQKtZwULJCetirOv/TiVdRhZBdly1IRQR3HIrt0szdolT8rdMHiPkYPP5YUf2Ib6FXMmZdPoOYAktnstRPRGl6eb/FGimftf43aNeAeuaFgGhO3KLXBhhLrKosjhol2L86FaiGZdej1hBdAioDUqB0pV1Ys5JvZZNz+mZTGgPA9TyXu6Bu6eijp/RqpiaEQGcAwWCECJk7UpOIlaiD+qtqDqdbcz5O8l+fcvOPfIW3C034a5u4syq1lua1Cb1AQ+bsxGa2ESu3H0cWM680A/q2rV+pFtMcWN/8nppGQSzmk2ysi+GqQc2QPd91ngOJ6rdaGhL6GdCsYS6xIQ==","691f8ca61c6b4dcbb0aeb5f4","691fbd7668eae1cd9472735b","index1","<span style='color:red'>Fail,<span style='color:red'>Fail,<span style='color:green'>Lift,<span style='color:green'>Lift,<span style='color:red'>Fail,<span style='color:red'>Fail,<span style='color:red'>Fail,<span style='color:red'>Fail,<span style='color:red'>Fail,<span style='color:green'>Lift,<span style='color:green'>Lift,<span style='color:red'>Fail","<span style='color:red'>Fail,<span style='color:red'>Fail,<span style='color:green'>Lift,<span style='color:green'>Lift,<span style='color:green'>Lift,<span style='color:green'>Lift,<span style='color:green'>Lift,<span style='color:red'>Fail,<span style='color:green'>Lift,<span style='color:green'>Lift,<span style='color:green'>Lift,<span style='color:red'>Fail","<span style='color:red'>Fail,<span style='color:green'>Lift,<span style='color:green'>Lift,<span style='color:red'>Fail,<span style='color:green'>Lift,<span style='color:green'>Lift","0,0,1,1,0,0,0,0,0,1,1,0","0,0,1,1,1,1,1,0,1,1,1,0","0,1,1,0,1,1",10,20,20,"","","<p style='font-size:30px'><b> New Contest! </b></p>","null","","",1,"",NA,NA,NA,NA,NA,NA,NA,NA,NA,NA,NA,NA,NA,NA,NA,NA,NA,NA,NA,NA,NA,NA,NA,NA,NA,NA,NA,NA,NA,NA,NA,NA,NA,NA,NA,NA,NA,NA,NA,"",NA,NA,NA,NA,NA,NA,NA,NA,NA,2025-11-21 01:35:08
"31674.19999998808","https://psyc-201.github.io/xiang2023/exp/index1.html?PROLIFIC_PID=REDACTED&STUDY_ID=691f8ca61c6b4dcbb0aeb5f4&SESSION_ID=691fbd7668eae1cd9472735b","survey-html-form",8,320024,"0.0-308.0","XMYO/OyQKtZwULJCetirOv/TiVdRhZBdly1IRQR3HIrt0szdolT8rdMHiPkYPP5YUf2Ib6FXMmZdPoOYAktnstRPRGl6eb/FGimftf43aNeAeuaFgGhO3KLXBhhLrKosjhol2L86FaiGZdej1hBdAioDUqB0pV1Ys5JvZZNz+mZTGgPA9TyXu6Bu6eijp/RqpiaEQGcAwWCECJk7UpOIlaiD+qtqDqdbcz5O8l+fcvOPfIW3C034a5u4syq1lua1Cb1AQ+bsxGa2ESu3H0cWM680A/q2rV+pFtMcWN/8nppGQSzmk2ysi+GqQc2QPd91ngOJ6rdaGhL6GdCsYS6xIQ==","691f8ca61c6b4dcbb0aeb5f4","691fbd7668eae1cd9472735b","index1","<span style='color:red'>Fail,<span style='color:red'>Fail,<span style='color:green'>Lift,<span style='color:green'>Lift,<span style='color:red'>Fail,<span style='color:red'>Fail,<span style='color:red'>Fail,<span style='color:red'>Fail,<span style='color:red'>Fail,<span style='color:green'>Lift,<span style='color:green'>Lift,<span style='color:red'>Fail","<span style='color:red'>Fail,<span style='color:red'>Fail,<span style='color:green'>Lift,<span style='color:green'>Lift,<span style='color:green'>Lift,<span style='color:green'>Lift,<span style='color:green'>Lift,<span style='color:red'>Fail,<span style='color:green'>Lift,<span style='color:green'>Lift,<span style='color:green'>Lift,<span style='color:red'>Fail","<span style='color:red'>Fail,<span style='color:green'>Lift,<span style='color:green'>Lift,<span style='color:red'>Fail,<span style='color:green'>Lift,<span style='color:green'>Lift","0,0,1,1,0,0,0,0,0,1,1,0","0,0,1,1,1,1,1,0,1,1,1,0","0,1,1,0,1,1",10,20,20,"","","","","{""box1"":""7"",""box2"":""5""}","",1,"round1_outcome",1,1,1,7,5,NA,NA,0,0,10,7,5,NA,NA,0,0,10,NA,NA,NA,NA,NA,NA,NA,NA,NA,NA,NA,NA,NA,NA,NA,NA,NA,NA,NA,NA,NA,NA,"",NA,NA,NA,NA,NA,NA,NA,NA,NA,2025-11-21 01:35:08
"21981.30000001192","https://psyc-201.github.io/xiang2023/exp/index1.html?PROLIFIC_PID=REDACTED&STUDY_ID=691f8ca61c6b4dcbb0aeb5f4&SESSION_ID=691fbd7668eae1cd9472735b","survey-html-form",9,342007,"0.0-309.0","XMYO/OyQKtZwULJCetirOv/TiVdRhZBdly1IRQR3HIrt0szdolT8rdMHiPkYPP5YUf2Ib6FXMmZdPoOYAktnstRPRGl6eb/FGimftf43aNeAeuaFgGhO3KLXBhhLrKosjhol2L86FaiGZdej1hBdAioDUqB0pV1Ys5JvZZNz+mZTGgPA9TyXu6Bu6eijp/RqpiaEQGcAwWCECJk7UpOIlaiD+qtqDqdbcz5O8l+fcvOPfIW3C034a5u4syq1lua1Cb1AQ+bsxGa2ESu3H0cWM680A/q2rV+pFtMcWN/8nppGQSzmk2ysi+GqQc2QPd91ngOJ6rdaGhL6GdCsYS6xIQ==","691f8ca61c6b4dcbb0aeb5f4","691fbd7668eae1cd9472735b","index1","<span style='color:red'>Fail,<span style='color:red'>Fail,<span style='color:green'>Lift,<span style='color:green'>Lift,<span style='color:red'>Fail,<span style='color:red'>Fail,<span style='color:red'>Fail,<span style='color:red'>Fail,<span style='color:red'>Fail,<span style='color:green'>Lift,<span style='color:green'>Lift,<span style='color:red'>Fail","<span style='color:red'>Fail,<span style='color:red'>Fail,<span style='color:green'>Lift,<span style='color:green'>Lift,<span style='color:green'>Lift,<span style='color:green'>Lift,<span style='color:green'>Lift,<span style='color:red'>Fail,<span style='color:green'>Lift,<span style='color:green'>Lift,<span style='color:green'>Lift,<span style='color:red'>Fail","<span style='color:red'>Fail,<span style='color:green'>Lift,<span style='color:green'>Lift,<span style='color:red'>Fail,<span style='color:green'>Lift,<span style='color:green'>Lift","0,0,1,1,0,0,0,0,0,1,1,0","0,0,1,1,1,1,1,0,1,1,1,0","0,1,1,0,1,1",10,20,20,"","","","","{""box1"":""70"",""box2"":""70""}","",1,"round2_ready",2,1,2,NA,NA,NA,NA,NA,NA,NA,NA,NA,NA,NA,NA,NA,NA,70,70,70,70,NA,NA,NA,NA,NA,NA,NA,NA,NA,NA,NA,NA,NA,NA,NA,NA,NA,NA,"",NA,NA,NA,NA,NA,NA,NA,NA,NA,2025-11-21 01:35:08
"44981","https://psyc-201.github.io/xiang2023/exp/index1.html?PROLIFIC_PID=REDACTED&STUDY_ID=691f8ca61c6b4dcbb0aeb5f4&SESSION_ID=691fbd7668eae1cd9472735b","survey-html-form",10,386991,"0.0-310.0","XMYO/OyQKtZwULJCetirOv/TiVdRhZBdly1IRQR3HIrt0szdolT8rdMHiPkYPP5YUf2Ib6FXMmZdPoOYAktnstRPRGl6eb/FGimftf43aNeAeuaFgGhO3KLXBhhLrKosjhol2L86FaiGZdej1hBdAioDUqB0pV1Ys5JvZZNz+mZTGgPA9TyXu6Bu6eijp/RqpiaEQGcAwWCECJk7UpOIlaiD+qtqDqdbcz5O8l+fcvOPfIW3C034a5u4syq1lua1Cb1AQ+bsxGa2ESu3H0cWM680A/q2rV+pFtMcWN/8nppGQSzmk2ysi+GqQc2QPd91ngOJ6rdaGhL6GdCsYS6xIQ==","691f8ca61c6b4dcbb0aeb5f4","691fbd7668eae1cd9472735b","index1","<span style='color:red'>Fail,<span style='color:red'>Fail,<span style='color:green'>Lift,<span style='color:green'>Lift,<span style='color:red'>Fail,<span style='color:red'>Fail,<span style='color:red'>Fail,<span style='color:red'>Fail,<span style='color:red'>Fail,<span style='color:green'>Lift,<span style='color:green'>Lift,<span style='color:red'>Fail","<span style='color:red'>Fail,<span style='color:red'>Fail,<span style='color:green'>Lift,<span style='color:green'>Lift,<span style='color:green'>Lift,<span style='color:green'>Lift,<span style='color:green'>Lift,<span style='color:red'>Fail,<span style='color:green'>Lift,<span style='color:green'>Lift,<span style='color:green'>Lift,<span style='color:red'>Fail","<span style='color:red'>Fail,<span style='color:green'>Lift,<span style='color:green'>Lift,<span style='color:red'>Fail,<span style='color:green'>Lift,<span style='color:green'>Lift","0,0,1,1,0,0,0,0,0,1,1,0","0,0,1,1,1,1,1,0,1,1,1,0","0,1,1,0,1,1",10,20,20,"","","","","{""box1"":""7"",""box2"":""7"",""box3"":""10"",""box4"":""10""}","",1,"round2_outcome",3,1,2,7,7,10,10,1,1,20,NA,NA,NA,NA,NA,NA,NA,NA,NA,NA,NA,7,7,10,10,1,1,20,NA,NA,NA,NA,NA,NA,NA,NA,NA,NA,NA,"",NA,NA,NA,NA,NA,NA,NA,NA,NA,2025-11-21 01:35:08
"18396.5","https://psyc-201.github.io/xiang2023/exp/index1.html?PROLIFIC_PID=REDACTED&STUDY_ID=691f8ca61c6b4dcbb0aeb5f4&SESSION_ID=691fbd7668eae1cd9472735b","survey-html-form",11,405389,"0.0-311.0","XMYO/OyQKtZwULJCetirOv/TiVdRhZBdly1IRQR3HIrt0szdolT8rdMHiPkYPP5YUf2Ib6FXMmZdPoOYAktnstRPRGl6eb/FGimftf43aNeAeuaFgGhO3KLXBhhLrKosjhol2L86FaiGZdej1hBdAioDUqB0pV1Ys5JvZZNz+mZTGgPA9TyXu6Bu6eijp/RqpiaEQGcAwWCECJk7UpOIlaiD+qtqDqdbcz5O8l+fcvOPfIW3C034a5u4syq1lua1Cb1AQ+bsxGa2ESu3H0cWM680A/q2rV+pFtMcWN/8nppGQSzmk2ysi+GqQc2QPd91ngOJ6rdaGhL6GdCsYS6xIQ==","691f8ca61c6b4dcbb0aeb5f4","691fbd7668eae1cd9472735b","index1","<span style='color:red'>Fail,<span style='color:red'>Fail,<span style='color:green'>Lift,<span style='color:green'>Lift,<span style='color:red'>Fail,<span style='color:red'>Fail,<span style='color:red'>Fail,<span style='color:red'>Fail,<span style='color:red'>Fail,<span style='color:green'>Lift,<span style='color:green'>Lift,<span style='color:red'>Fail","<span style='color:red'>Fail,<span style='color:red'>Fail,<span style='color:green'>Lift,<span style='color:green'>Lift,<span style='color:green'>Lift,<span style='color:green'>Lift,<span style='color:green'>Lift,<span style='color:red'>Fail,<span style='color:green'>Lift,<span style='color:green'>Lift,<span style='color:green'>Lift,<span style='color:red'>Fail","<span style='color:red'>Fail,<span style='color:green'>Lift,<span style='color:green'>Lift,<span style='color:red'>Fail,<span style='color:green'>Lift,<span style='color:green'>Lift","0,0,1,1,0,0,0,0,0,1,1,0","0,0,1,1,1,1,1,0,1,1,1,0","0,1,1,0,1,1",10,20,20,"","","","","{""box1"":""50""}","",1,"round3_ready",4,1,3,NA,NA,NA,NA,NA,NA,NA,NA,NA,NA,NA,NA,NA,NA,50,50,NA,NA,NA,NA,NA,NA,NA,NA,NA,50,50,NA,NA,NA,NA,NA,NA,NA,NA,NA,"",NA,NA,NA,NA,NA,NA,NA,NA,NA,2025-11-21 01:35:08
"37881.69999998808","https://psyc-201.github.io/xiang2023/exp/index1.html?PROLIFIC_PID=REDACTED&STUDY_ID=691f8ca61c6b4dcbb0aeb5f4&SESSION_ID=691fbd7668eae1cd9472735b","survey-html-form",12,443273,"0.0-312.0-0.0","XMYO/OyQKtZwULJCetirOv/TiVdRhZBdly1IRQR3HIrt0szdolT8rdMHiPkYPP5YUf2Ib6FXMmZdPoOYAktnstRPRGl6eb/FGimftf43aNeAeuaFgGhO3KLXBhhLrKosjhol2L86FaiGZdej1hBdAioDUqB0pV1Ys5JvZZNz+mZTGgPA9TyXu6Bu6eijp/RqpiaEQGcAwWCECJk7UpOIlaiD+qtqDqdbcz5O8l+fcvOPfIW3C034a5u4syq1lua1Cb1AQ+bsxGa2ESu3H0cWM680A/q2rV+pFtMcWN/8nppGQSzmk2ysi+GqQc2QPd91ngOJ6rdaGhL6GdCsYS6xIQ==","691f8ca61c6b4dcbb0aeb5f4","691fbd7668eae1cd9472735b","index1","<span style='color:red'>Fail,<span style='color:red'>Fail,<span style='color:green'>Lift,<span style='color:green'>Lift,<span style='color:red'>Fail,<span style='color:red'>Fail,<span style='color:red'>Fail,<span style='color:red'>Fail,<span style='color:red'>Fail,<span style='color:green'>Lift,<span style='color:green'>Lift,<span style='color:red'>Fail","<span style='color:red'>Fail,<span style='color:red'>Fail,<span style='color:green'>Lift,<span style='color:green'>Lift,<span style='color:green'>Lift,<span style='color:green'>Lift,<span style='color:green'>Lift,<span style='color:red'>Fail,<span style='color:green'>Lift,<span style='color:green'>Lift,<span style='color:green'>Lift,<span style='color:red'>Fail","<span style='color:red'>Fail,<span style='color:green'>Lift,<span style='color:green'>Lift,<span style='color:red'>Fail,<span style='color:green'>Lift,<span style='color:green'>Lift","0,0,1,1,0,0,0,0,0,1,1,0","0,0,1,1,1,1,1,0,1,1,1,0","0,1,1,0,1,1",10,20,20,"","","","","{""box1"":""7"",""box2"":""7"",""box3"":""10"",""box4"":""10""}","",2,"round3_lift",5,1,3,7,7,10,10,1,1,20,NA,NA,NA,NA,NA,NA,NA,NA,NA,NA,NA,NA,NA,NA,NA,NA,NA,NA,NA,NA,7,7,10,10,1,1,20,NA,NA,"",NA,NA,NA,NA,NA,NA,NA,NA,NA,2025-11-21 01:35:08
"null","https://psyc-201.github.io/xiang2023/exp/index1.html?PROLIFIC_PID=REDACTED&STUDY_ID=691f8ca61c6b4dcbb0aeb5f4&SESSION_ID=691fbd7668eae1cd9472735b","html-keyboard-response",13,446277,"0.0-316.0","XMYO/OyQKtZwULJCetirOv/TiVdRhZBdly1IRQR3HIrt0szdolT8rdMHiPkYPP5YUf2Ib6FXMmZdPoOYAktnstRPRGl6eb/FGimftf43aNeAeuaFgGhO3KLXBhhLrKosjhol2L86FaiGZdej1hBdAioDUqB0pV1Ys5JvZZNz+mZTGgPA9TyXu6Bu6eijp/RqpiaEQGcAwWCECJk7UpOIlaiD+qtqDqdbcz5O8l+fcvOPfIW3C034a5u4syq1lua1Cb1AQ+bsxGa2ESu3H0cWM680A/q2rV+pFtMcWN/8nppGQSzmk2ysi+GqQc2QPd91ngOJ6rdaGhL6GdCsYS6xIQ==","691f8ca61c6b4dcbb0aeb5f4","691fbd7668eae1cd9472735b","index1","<span style='color:red'>Fail,<span style='color:red'>Fail,<span style='color:green'>Lift,<span style='color:green'>Lift,<span style='color:red'>Fail,<span style='color:red'>Fail,<span style='color:red'>Fail,<span style='color:red'>Fail,<span style='color:red'>Fail,<span style='color:green'>Lift,<span style='color:green'>Lift,<span style='color:red'>Fail","<span style='color:red'>Fail,<span style='color:red'>Fail,<span style='color:green'>Lift,<span style='color:green'>Lift,<span style='color:green'>Lift,<span style='color:green'>Lift,<span style='color:green'>Lift,<span style='color:red'>Fail,<span style='color:green'>Lift,<span style='color:green'>Lift,<span style='color:green'>Lift,<span style='color:red'>Fail","<span style='color:red'>Fail,<span style='color:green'>Lift,<span style='color:green'>Lift,<span style='color:red'>Fail,<span style='color:green'>Lift,<span style='color:green'>Lift","0,0,1,1,0,0,0,0,0,1,1,0","0,0,1,1,1,1,1,0,1,1,1,0","0,1,1,0,1,1",10,20,20,"","","<p style='font-size:30px'><b> New Contest! </b></p>","null","","",2,"",NA,NA,NA,NA,NA,NA,NA,NA,NA,NA,NA,NA,NA,NA,NA,NA,NA,NA,NA,NA,NA,NA,NA,NA,NA,NA,NA,NA,NA,NA,NA,NA,NA,NA,NA,NA,NA,NA,NA,"",NA,NA,NA,NA,NA,NA,NA,NA,NA,2025-11-21 01:35:08
"21843.80000001192","https://psyc-201.github.io/xiang2023/exp/index1.html?PROLIFIC_PID=REDACTED&STUDY_ID=691f8ca61c6b4dcbb0aeb5f4&SESSION_ID=691fbd7668eae1cd9472735b","survey-html-form",14,468123,"0.0-317.0","XMYO/OyQKtZwULJCetirOv/TiVdRhZBdly1IRQR3HIrt0szdolT8rdMHiPkYPP5YUf2Ib6FXMmZdPoOYAktnstRPRGl6eb/FGimftf43aNeAeuaFgGhO3KLXBhhLrKosjhol2L86FaiGZdej1hBdAioDUqB0pV1Ys5JvZZNz+mZTGgPA9TyXu6Bu6eijp/RqpiaEQGcAwWCECJk7UpOIlaiD+qtqDqdbcz5O8l+fcvOPfIW3C034a5u4syq1lua1Cb1AQ+bsxGa2ESu3H0cWM680A/q2rV+pFtMcWN/8nppGQSzmk2ysi+GqQc2QPd91ngOJ6rdaGhL6GdCsYS6xIQ==","691f8ca61c6b4dcbb0aeb5f4","691fbd7668eae1cd9472735b","index1","<span style='color:red'>Fail,<span style='color:red'>Fail,<span style='color:green'>Lift,<span style='color:green'>Lift,<span style='color:red'>Fail,<span style='color:red'>Fail,<span style='color:red'>Fail,<span style='color:red'>Fail,<span style='color:red'>Fail,<span style='color:green'>Lift,<span style='color:green'>Lift,<span style='color:red'>Fail","<span style='color:red'>Fail,<span style='color:red'>Fail,<span style='color:green'>Lift,<span style='color:green'>Lift,<span style='color:green'>Lift,<span style='color:green'>Lift,<span style='color:green'>Lift,<span style='color:red'>Fail,<span style='color:green'>Lift,<span style='color:green'>Lift,<span style='color:green'>Lift,<span style='color:red'>Fail","<span style='color:red'>Fail,<span style='color:green'>Lift,<span style='color:green'>Lift,<span style='color:red'>Fail,<span style='color:green'>Lift,<span style='color:green'>Lift","0,0,1,1,0,0,0,0,0,1,1,0","0,0,1,1,1,1,1,0,1,1,1,0","0,1,1,0,1,1",10,20,20,"","","","","{""box1"":""7"",""box2"":""6""}","",2,"round1_outcome",1,2,1,7,6,NA,NA,0,0,10,7,6,NA,NA,0,0,10,NA,NA,NA,NA,NA,NA,NA,NA,NA,NA,NA,NA,NA,NA,NA,NA,NA,NA,NA,NA,NA,NA,"",NA,NA,NA,NA,NA,NA,NA,NA,NA,2025-11-21 01:35:08
"15747","https://psyc-201.github.io/xiang2023/exp/index1.html?PROLIFIC_PID=REDACTED&STUDY_ID=691f8ca61c6b4dcbb0aeb5f4&SESSION_ID=691fbd7668eae1cd9472735b","survey-html-form",15,483873,"0.0-318.0","XMYO/OyQKtZwULJCetirOv/TiVdRhZBdly1IRQR3HIrt0szdolT8rdMHiPkYPP5YUf2Ib6FXMmZdPoOYAktnstRPRGl6eb/FGimftf43aNeAeuaFgGhO3KLXBhhLrKosjhol2L86FaiGZdej1hBdAioDUqB0pV1Ys5JvZZNz+mZTGgPA9TyXu6Bu6eijp/RqpiaEQGcAwWCECJk7UpOIlaiD+qtqDqdbcz5O8l+fcvOPfIW3C034a5u4syq1lua1Cb1AQ+bsxGa2ESu3H0cWM680A/q2rV+pFtMcWN/8nppGQSzmk2ysi+GqQc2QPd91ngOJ6rdaGhL6GdCsYS6xIQ==","691f8ca61c6b4dcbb0aeb5f4","691fbd7668eae1cd9472735b","index1","<span style='color:red'>Fail,<span style='color:red'>Fail,<span style='color:green'>Lift,<span style='color:green'>Lift,<span style='color:red'>Fail,<span style='color:red'>Fail,<span style='color:red'>Fail,<span style='color:red'>Fail,<span style='color:red'>Fail,<span style='color:green'>Lift,<span style='color:green'>Lift,<span style='color:red'>Fail","<span style='color:red'>Fail,<span style='color:red'>Fail,<span style='color:green'>Lift,<span style='color:green'>Lift,<span style='color:green'>Lift,<span style='color:green'>Lift,<span style='color:green'>Lift,<span style='color:red'>Fail,<span style='color:green'>Lift,<span style='color:green'>Lift,<span style='color:green'>Lift,<span style='color:red'>Fail","<span style='color:red'>Fail,<span style='color:green'>Lift,<span style='color:green'>Lift,<span style='color:red'>Fail,<span style='color:green'>Lift,<span style='color:green'>Lift","0,0,1,1,0,0,0,0,0,1,1,0","0,0,1,1,1,1,1,0,1,1,1,0","0,1,1,0,1,1",10,20,20,"","","","","{""box1"":""10"",""box2"":""10""}","",2,"round2_ready",2,2,2,NA,NA,NA,NA,NA,NA,NA,NA,NA,NA,NA,NA,NA,NA,10,10,10,10,NA,NA,NA,NA,NA,NA,NA,NA,NA,NA,NA,NA,NA,NA,NA,NA,NA,NA,"",NA,NA,NA,NA,NA,NA,NA,NA,NA,2025-11-21 01:35:08
"10698.40000000596","https://psyc-201.github.io/xiang2023/exp/index1.html?PROLIFIC_PID=REDACTED&STUDY_ID=691f8ca61c6b4dcbb0aeb5f4&SESSION_ID=691fbd7668eae1cd9472735b","survey-html-form",16,494573,"0.0-319.0","XMYO/OyQKtZwULJCetirOv/TiVdRhZBdly1IRQR3HIrt0szdolT8rdMHiPkYPP5YUf2Ib6FXMmZdPoOYAktnstRPRGl6eb/FGimftf43aNeAeuaFgGhO3KLXBhhLrKosjhol2L86FaiGZdej1hBdAioDUqB0pV1Ys5JvZZNz+mZTGgPA9TyXu6Bu6eijp/RqpiaEQGcAwWCECJk7UpOIlaiD+qtqDqdbcz5O8l+fcvOPfIW3C034a5u4syq1lua1Cb1AQ+bsxGa2ESu3H0cWM680A/q2rV+pFtMcWN/8nppGQSzmk2ysi+GqQc2QPd91ngOJ6rdaGhL6GdCsYS6xIQ==","691f8ca61c6b4dcbb0aeb5f4","691fbd7668eae1cd9472735b","index1","<span style='color:red'>Fail,<span style='color:red'>Fail,<span style='color:green'>Lift,<span style='color:green'>Lift,<span style='color:red'>Fail,<span style='color:red'>Fail,<span style='color:red'>Fail,<span style='color:red'>Fail,<span style='color:red'>Fail,<span style='color:green'>Lift,<span style='color:green'>Lift,<span style='color:red'>Fail","<span style='color:red'>Fail,<span style='color:red'>Fail,<span style='color:green'>Lift,<span style='color:green'>Lift,<span style='color:green'>Lift,<span style='color:green'>Lift,<span style='color:green'>Lift,<span style='color:red'>Fail,<span style='color:green'>Lift,<span style='color:green'>Lift,<span style='color:green'>Lift,<span style='color:red'>Fail","<span style='color:red'>Fail,<span style='color:green'>Lift,<span style='color:green'>Lift,<span style='color:red'>Fail,<span style='color:green'>Lift,<span style='color:green'>Lift","0,0,1,1,0,0,0,0,0,1,1,0","0,0,1,1,1,1,1,0,1,1,1,0","0,1,1,0,1,1",10,20,20,"","","","","{""box1"":""4"",""box2"":""4""}","",2,"round2_outcome",3,2,2,4,4,NA,NA,0,0,20,NA,NA,NA,NA,NA,NA,NA,NA,NA,NA,NA,4,4,NA,NA,0,0,20,NA,NA,NA,NA,NA,NA,NA,NA,NA,NA,NA,"",NA,NA,NA,NA,NA,NA,NA,NA,NA,2025-11-21 01:35:08
"8747.600000023842","https://psyc-201.github.io/xiang2023/exp/index1.html?PROLIFIC_PID=REDACTED&STUDY_ID=691f8ca61c6b4dcbb0aeb5f4&SESSION_ID=691fbd7668eae1cd9472735b","survey-html-form",17,503323,"0.0-320.0","XMYO/OyQKtZwULJCetirOv/TiVdRhZBdly1IRQR3HIrt0szdolT8rdMHiPkYPP5YUf2Ib6FXMmZdPoOYAktnstRPRGl6eb/FGimftf43aNeAeuaFgGhO3KLXBhhLrKosjhol2L86FaiGZdej1hBdAioDUqB0pV1Ys5JvZZNz+mZTGgPA9TyXu6Bu6eijp/RqpiaEQGcAwWCECJk7UpOIlaiD+qtqDqdbcz5O8l+fcvOPfIW3C034a5u4syq1lua1Cb1AQ+bsxGa2ESu3H0cWM680A/q2rV+pFtMcWN/8nppGQSzmk2ysi+GqQc2QPd91ngOJ6rdaGhL6GdCsYS6xIQ==","691f8ca61c6b4dcbb0aeb5f4","691fbd7668eae1cd9472735b","index1","<span style='color:red'>Fail,<span style='color:red'>Fail,<span style='color:green'>Lift,<span style='color:green'>Lift,<span style='color:red'>Fail,<span style='color:red'>Fail,<span style='color:red'>Fail,<span style='color:red'>Fail,<span style='color:red'>Fail,<span style='color:green'>Lift,<span style='color:green'>Lift,<span style='color:red'>Fail","<span style='color:red'>Fail,<span style='color:red'>Fail,<span style='color:green'>Lift,<span style='color:green'>Lift,<span style='color:green'>Lift,<span style='color:green'>Lift,<span style='color:green'>Lift,<span style='color:red'>Fail,<span style='color:green'>Lift,<span style='color:green'>Lift,<span style='color:green'>Lift,<span style='color:red'>Fail","<span style='color:red'>Fail,<span style='color:green'>Lift,<span style='color:green'>Lift,<span style='color:red'>Fail,<span style='color:green'>Lift,<span style='color:green'>Lift","0,0,1,1,0,0,0,0,0,1,1,0","0,0,1,1,1,1,1,0,1,1,1,0","0,1,1,0,1,1",10,20,20,"","","","","{""box1"":""10""}","",2,"round3_ready",4,2,3,NA,NA,NA,NA,NA,NA,NA,NA,NA,NA,NA,NA,NA,NA,10,10,NA,NA,NA,NA,NA,NA,NA,NA,NA,10,10,NA,NA,NA,NA,NA,NA,NA,NA,NA,"",NA,NA,NA,NA,NA,NA,NA,NA,NA,2025-11-21 01:35:08
"31448.70000001788","https://psyc-201.github.io/xiang2023/exp/index1.html?PROLIFIC_PID=REDACTED&STUDY_ID=691f8ca61c6b4dcbb0aeb5f4&SESSION_ID=691fbd7668eae1cd9472735b","survey-html-form",18,534774,"0.0-322.0-0.0","XMYO/OyQKtZwULJCetirOv/TiVdRhZBdly1IRQR3HIrt0szdolT8rdMHiPkYPP5YUf2Ib6FXMmZdPoOYAktnstRPRGl6eb/FGimftf43aNeAeuaFgGhO3KLXBhhLrKosjhol2L86FaiGZdej1hBdAioDUqB0pV1Ys5JvZZNz+mZTGgPA9TyXu6Bu6eijp/RqpiaEQGcAwWCECJk7UpOIlaiD+qtqDqdbcz5O8l+fcvOPfIW3C034a5u4syq1lua1Cb1AQ+bsxGa2ESu3H0cWM680A/q2rV+pFtMcWN/8nppGQSzmk2ysi+GqQc2QPd91ngOJ6rdaGhL6GdCsYS6xIQ==","691f8ca61c6b4dcbb0aeb5f4","691fbd7668eae1cd9472735b","index1","<span style='color:red'>Fail,<span style='color:red'>Fail,<span style='color:green'>Lift,<span style='color:green'>Lift,<span style='color:red'>Fail,<span style='color:red'>Fail,<span style='color:red'>Fail,<span style='color:red'>Fail,<span style='color:red'>Fail,<span style='color:green'>Lift,<span style='color:green'>Lift,<span style='color:red'>Fail","<span style='color:red'>Fail,<span style='color:red'>Fail,<span style='color:green'>Lift,<span style='color:green'>Lift,<span style='color:green'>Lift,<span style='color:green'>Lift,<span style='color:green'>Lift,<span style='color:red'>Fail,<span style='color:green'>Lift,<span style='color:green'>Lift,<span style='color:green'>Lift,<span style='color:red'>Fail","<span style='color:red'>Fail,<span style='color:green'>Lift,<span style='color:green'>Lift,<span style='color:red'>Fail,<span style='color:green'>Lift,<span style='color:green'>Lift","0,0,1,1,0,0,0,0,0,1,1,0","0,0,1,1,1,1,1,0,1,1,1,0","0,1,1,0,1,1",10,20,20,"","","","","{""box1"":""4"",""box2"":""4"",""box3"":""999"",""box4"":""999""}","",3,"round3_fail",5,2,3,4,4,NA,NA,0,0,20,NA,NA,NA,NA,NA,NA,NA,NA,NA,NA,NA,NA,NA,NA,NA,NA,NA,NA,NA,NA,4,4,NA,NA,0,0,20,1,1,"",NA,NA,NA,NA,NA,NA,NA,NA,NA,2025-11-21 01:35:08
"null","https://psyc-201.github.io/xiang2023/exp/index1.html?PROLIFIC_PID=REDACTED&STUDY_ID=691f8ca61c6b4dcbb0aeb5f4&SESSION_ID=691fbd7668eae1cd9472735b","html-keyboard-response",19,537778,"0.0-325.0","XMYO/OyQKtZwULJCetirOv/TiVdRhZBdly1IRQR3HIrt0szdolT8rdMHiPkYPP5YUf2Ib6FXMmZdPoOYAktnstRPRGl6eb/FGimftf43aNeAeuaFgGhO3KLXBhhLrKosjhol2L86FaiGZdej1hBdAioDUqB0pV1Ys5JvZZNz+mZTGgPA9TyXu6Bu6eijp/RqpiaEQGcAwWCECJk7UpOIlaiD+qtqDqdbcz5O8l+fcvOPfIW3C034a5u4syq1lua1Cb1AQ+bsxGa2ESu3H0cWM680A/q2rV+pFtMcWN/8nppGQSzmk2ysi+GqQc2QPd91ngOJ6rdaGhL6GdCsYS6xIQ==","691f8ca61c6b4dcbb0aeb5f4","691fbd7668eae1cd9472735b","index1","<span style='color:red'>Fail,<span style='color:red'>Fail,<span style='color:green'>Lift,<span style='color:green'>Lift,<span style='color:red'>Fail,<span style='color:red'>Fail,<span style='color:red'>Fail,<span style='color:red'>Fail,<span style='color:red'>Fail,<span style='color:green'>Lift,<span style='color:green'>Lift,<span style='color:red'>Fail","<span style='color:red'>Fail,<span style='color:red'>Fail,<span style='color:green'>Lift,<span style='color:green'>Lift,<span style='color:green'>Lift,<span style='color:green'>Lift,<span style='color:green'>Lift,<span style='color:red'>Fail,<span style='color:green'>Lift,<span style='color:green'>Lift,<span style='color:green'>Lift,<span style='color:red'>Fail","<span style='color:red'>Fail,<span style='color:green'>Lift,<span style='color:green'>Lift,<span style='color:red'>Fail,<span style='color:green'>Lift,<span style='color:green'>Lift","0,0,1,1,0,0,0,0,0,1,1,0","0,0,1,1,1,1,1,0,1,1,1,0","0,1,1,0,1,1",10,20,20,"","","<p style='font-size:30px'><b> New Contest! </b></p>","null","","",3,"",NA,NA,NA,NA,NA,NA,NA,NA,NA,NA,NA,NA,NA,NA,NA,NA,NA,NA,NA,NA,NA,NA,NA,NA,NA,NA,NA,NA,NA,NA,NA,NA,NA,NA,NA,NA,NA,NA,NA,"",NA,NA,NA,NA,NA,NA,NA,NA,NA,2025-11-21 01:35:08
"15375.59999999404","https://psyc-201.github.io/xiang2023/exp/index1.html?PROLIFIC_PID=REDACTED&STUDY_ID=691f8ca61c6b4dcbb0aeb5f4&SESSION_ID=691fbd7668eae1cd9472735b","survey-html-form",20,553156,"0.0-326.0","XMYO/OyQKtZwULJCetirOv/TiVdRhZBdly1IRQR3HIrt0szdolT8rdMHiPkYPP5YUf2Ib6FXMmZdPoOYAktnstRPRGl6eb/FGimftf43aNeAeuaFgGhO3KLXBhhLrKosjhol2L86FaiGZdej1hBdAioDUqB0pV1Ys5JvZZNz+mZTGgPA9TyXu6Bu6eijp/RqpiaEQGcAwWCECJk7UpOIlaiD+qtqDqdbcz5O8l+fcvOPfIW3C034a5u4syq1lua1Cb1AQ+bsxGa2ESu3H0cWM680A/q2rV+pFtMcWN/8nppGQSzmk2ysi+GqQc2QPd91ngOJ6rdaGhL6GdCsYS6xIQ==","691f8ca61c6b4dcbb0aeb5f4","691fbd7668eae1cd9472735b","index1","<span style='color:red'>Fail,<span style='color:red'>Fail,<span style='color:green'>Lift,<span style='color:green'>Lift,<span style='color:red'>Fail,<span style='color:red'>Fail,<span style='color:red'>Fail,<span style='color:red'>Fail,<span style='color:red'>Fail,<span style='color:green'>Lift,<span style='color:green'>Lift,<span style='color:red'>Fail","<span style='color:red'>Fail,<span style='color:red'>Fail,<span style='color:green'>Lift,<span style='color:green'>Lift,<span style='color:green'>Lift,<span style='color:green'>Lift,<span style='color:green'>Lift,<span style='color:red'>Fail,<span style='color:green'>Lift,<span style='color:green'>Lift,<span style='color:green'>Lift,<span style='color:red'>Fail","<span style='color:red'>Fail,<span style='color:green'>Lift,<span style='color:green'>Lift,<span style='color:red'>Fail,<span style='color:green'>Lift,<span style='color:green'>Lift","0,0,1,1,0,0,0,0,0,1,1,0","0,0,1,1,1,1,1,0,1,1,1,0","0,1,1,0,1,1",10,20,20,"","","","","{""box1"":""4"",""box2"":""4""}","",3,"round1_outcome",1,3,1,4,4,NA,NA,0,0,10,4,4,NA,NA,0,0,10,NA,NA,NA,NA,NA,NA,NA,NA,NA,NA,NA,NA,NA,NA,NA,NA,NA,NA,NA,NA,NA,NA,"",NA,NA,NA,NA,NA,NA,NA,NA,NA,2025-11-21 01:35:08
"12414.199999988079","https://psyc-201.github.io/xiang2023/exp/index1.html?PROLIFIC_PID=REDACTED&STUDY_ID=691f8ca61c6b4dcbb0aeb5f4&SESSION_ID=691fbd7668eae1cd9472735b","survey-html-form",21,565572,"0.0-327.0","XMYO/OyQKtZwULJCetirOv/TiVdRhZBdly1IRQR3HIrt0szdolT8rdMHiPkYPP5YUf2Ib6FXMmZdPoOYAktnstRPRGl6eb/FGimftf43aNeAeuaFgGhO3KLXBhhLrKosjhol2L86FaiGZdej1hBdAioDUqB0pV1Ys5JvZZNz+mZTGgPA9TyXu6Bu6eijp/RqpiaEQGcAwWCECJk7UpOIlaiD+qtqDqdbcz5O8l+fcvOPfIW3C034a5u4syq1lua1Cb1AQ+bsxGa2ESu3H0cWM680A/q2rV+pFtMcWN/8nppGQSzmk2ysi+GqQc2QPd91ngOJ6rdaGhL6GdCsYS6xIQ==","691f8ca61c6b4dcbb0aeb5f4","691fbd7668eae1cd9472735b","index1","<span style='color:red'>Fail,<span style='color:red'>Fail,<span style='color:green'>Lift,<span style='color:green'>Lift,<span style='color:red'>Fail,<span style='color:red'>Fail,<span style='color:red'>Fail,<span style='color:red'>Fail,<span style='color:red'>Fail,<span style='color:green'>Lift,<span style='color:green'>Lift,<span style='color:red'>Fail","<span style='color:red'>Fail,<span style='color:red'>Fail,<span style='color:green'>Lift,<span style='color:green'>Lift,<span style='color:green'>Lift,<span style='color:green'>Lift,<span style='color:green'>Lift,<span style='color:red'>Fail,<span style='color:green'>Lift,<span style='color:green'>Lift,<span style='color:green'>Lift,<span style='color:red'>Fail","<span style='color:red'>Fail,<span style='color:green'>Lift,<span style='color:green'>Lift,<span style='color:red'>Fail,<span style='color:green'>Lift,<span style='color:green'>Lift","0,0,1,1,0,0,0,0,0,1,1,0","0,0,1,1,1,1,1,0,1,1,1,0","0,1,1,0,1,1",10,20,20,"","","","","{""box1"":""5"",""box2"":""5""}","",3,"round2_ready",2,3,2,NA,NA,NA,NA,NA,NA,NA,NA,NA,NA,NA,NA,NA,NA,5,5,5,5,NA,NA,NA,NA,NA,NA,NA,NA,NA,NA,NA,NA,NA,NA,NA,NA,NA,NA,"",NA,NA,NA,NA,NA,NA,NA,NA,NA,2025-11-21 01:35:08
"22447.09999999404","https://psyc-201.github.io/xiang2023/exp/index1.html?PROLIFIC_PID=REDACTED&STUDY_ID=691f8ca61c6b4dcbb0aeb5f4&SESSION_ID=691fbd7668eae1cd9472735b","survey-html-form",22,588022,"0.0-328.0","XMYO/OyQKtZwULJCetirOv/TiVdRhZBdly1IRQR3HIrt0szdolT8rdMHiPkYPP5YUf2Ib6FXMmZdPoOYAktnstRPRGl6eb/FGimftf43aNeAeuaFgGhO3KLXBhhLrKosjhol2L86FaiGZdej1hBdAioDUqB0pV1Ys5JvZZNz+mZTGgPA9TyXu6Bu6eijp/RqpiaEQGcAwWCECJk7UpOIlaiD+qtqDqdbcz5O8l+fcvOPfIW3C034a5u4syq1lua1Cb1AQ+bsxGa2ESu3H0cWM680A/q2rV+pFtMcWN/8nppGQSzmk2ysi+GqQc2QPd91ngOJ6rdaGhL6GdCsYS6xIQ==","691f8ca61c6b4dcbb0aeb5f4","691fbd7668eae1cd9472735b","index1","<span style='color:red'>Fail,<span style='color:red'>Fail,<span style='color:green'>Lift,<span style='color:green'>Lift,<span style='color:red'>Fail,<span style='color:red'>Fail,<span style='color:red'>Fail,<span style='color:red'>Fail,<span style='color:red'>Fail,<span style='color:green'>Lift,<span style='color:green'>Lift,<span style='color:red'>Fail","<span style='color:red'>Fail,<span style='color:red'>Fail,<span style='color:green'>Lift,<span style='color:green'>Lift,<span style='color:green'>Lift,<span style='color:green'>Lift,<span style='color:green'>Lift,<span style='color:red'>Fail,<span style='color:green'>Lift,<span style='color:green'>Lift,<span style='color:green'>Lift,<span style='color:red'>Fail","<span style='color:red'>Fail,<span style='color:green'>Lift,<span style='color:green'>Lift,<span style='color:red'>Fail,<span style='color:green'>Lift,<span style='color:green'>Lift","0,0,1,1,0,0,0,0,0,1,1,0","0,0,1,1,1,1,1,0,1,1,1,0","0,1,1,0,1,1",10,20,20,"","","","","{""box1"":""7"",""box2"":""4"",""box3"":""5""}","",3,"round2_outcome",3,3,2,7,4,5,NA,1,0,20,NA,NA,NA,NA,NA,NA,NA,NA,NA,NA,NA,7,4,5,NA,1,0,20,NA,NA,NA,NA,NA,NA,NA,NA,NA,NA,NA,"",NA,NA,NA,NA,NA,NA,NA,NA,NA,2025-11-21 01:35:08
"8148.5","https://psyc-201.github.io/xiang2023/exp/index1.html?PROLIFIC_PID=REDACTED&STUDY_ID=691f8ca61c6b4dcbb0aeb5f4&SESSION_ID=691fbd7668eae1cd9472735b","survey-html-form",23,596172,"0.0-329.0","XMYO/OyQKtZwULJCetirOv/TiVdRhZBdly1IRQR3HIrt0szdolT8rdMHiPkYPP5YUf2Ib6FXMmZdPoOYAktnstRPRGl6eb/FGimftf43aNeAeuaFgGhO3KLXBhhLrKosjhol2L86FaiGZdej1hBdAioDUqB0pV1Ys5JvZZNz+mZTGgPA9TyXu6Bu6eijp/RqpiaEQGcAwWCECJk7UpOIlaiD+qtqDqdbcz5O8l+fcvOPfIW3C034a5u4syq1lua1Cb1AQ+bsxGa2ESu3H0cWM680A/q2rV+pFtMcWN/8nppGQSzmk2ysi+GqQc2QPd91ngOJ6rdaGhL6GdCsYS6xIQ==","691f8ca61c6b4dcbb0aeb5f4","691fbd7668eae1cd9472735b","index1","<span style='color:red'>Fail,<span style='color:red'>Fail,<span style='color:green'>Lift,<span style='color:green'>Lift,<span style='color:red'>Fail,<span style='color:red'>Fail,<span style='color:red'>Fail,<span style='color:red'>Fail,<span style='color:red'>Fail,<span style='color:green'>Lift,<span style='color:green'>Lift,<span style='color:red'>Fail","<span style='color:red'>Fail,<span style='color:red'>Fail,<span style='color:green'>Lift,<span style='color:green'>Lift,<span style='color:green'>Lift,<span style='color:green'>Lift,<span style='color:green'>Lift,<span style='color:red'>Fail,<span style='color:green'>Lift,<span style='color:green'>Lift,<span style='color:green'>Lift,<span style='color:red'>Fail","<span style='color:red'>Fail,<span style='color:green'>Lift,<span style='color:green'>Lift,<span style='color:red'>Fail,<span style='color:green'>Lift,<span style='color:green'>Lift","0,0,1,1,0,0,0,0,0,1,1,0","0,0,1,1,1,1,1,0,1,1,1,0","0,1,1,0,1,1",10,20,20,"","","","","{""box1"":""10""}","",3,"round3_ready",4,3,3,NA,NA,NA,NA,NA,NA,NA,NA,NA,NA,NA,NA,NA,NA,10,10,NA,NA,NA,NA,NA,NA,NA,NA,NA,10,10,NA,NA,NA,NA,NA,NA,NA,NA,NA,"",NA,NA,NA,NA,NA,NA,NA,NA,NA,2025-11-21 01:35:08
"24914.70000001788","https://psyc-201.github.io/xiang2023/exp/index1.html?PROLIFIC_PID=REDACTED&STUDY_ID=691f8ca61c6b4dcbb0aeb5f4&SESSION_ID=691fbd7668eae1cd9472735b","survey-html-form",24,621089,"0.0-331.0-0.0","XMYO/OyQKtZwULJCetirOv/TiVdRhZBdly1IRQR3HIrt0szdolT8rdMHiPkYPP5YUf2Ib6FXMmZdPoOYAktnstRPRGl6eb/FGimftf43aNeAeuaFgGhO3KLXBhhLrKosjhol2L86FaiGZdej1hBdAioDUqB0pV1Ys5JvZZNz+mZTGgPA9TyXu6Bu6eijp/RqpiaEQGcAwWCECJk7UpOIlaiD+qtqDqdbcz5O8l+fcvOPfIW3C034a5u4syq1lua1Cb1AQ+bsxGa2ESu3H0cWM680A/q2rV+pFtMcWN/8nppGQSzmk2ysi+GqQc2QPd91ngOJ6rdaGhL6GdCsYS6xIQ==","691f8ca61c6b4dcbb0aeb5f4","691fbd7668eae1cd9472735b","index1","<span style='color:red'>Fail,<span style='color:red'>Fail,<span style='color:green'>Lift,<span style='color:green'>Lift,<span style='color:red'>Fail,<span style='color:red'>Fail,<span style='color:red'>Fail,<span style='color:red'>Fail,<span style='color:red'>Fail,<span style='color:green'>Lift,<span style='color:green'>Lift,<span style='color:red'>Fail","<span style='color:red'>Fail,<span style='color:red'>Fail,<span style='color:green'>Lift,<span style='color:green'>Lift,<span style='color:green'>Lift,<span style='color:green'>Lift,<span style='color:green'>Lift,<span style='color:red'>Fail,<span style='color:green'>Lift,<span style='color:green'>Lift,<span style='color:green'>Lift,<span style='color:red'>Fail","<span style='color:red'>Fail,<span style='color:green'>Lift,<span style='color:green'>Lift,<span style='color:red'>Fail,<span style='color:green'>Lift,<span style='color:green'>Lift","0,0,1,1,0,0,0,0,0,1,1,0","0,0,1,1,1,1,1,0,1,1,1,0","0,1,1,0,1,1",10,20,20,"","","","","{""box1"":""7"",""box2"":""4"",""box3"":""999"",""box4"":""999""}","",4,"round3_fail",5,3,3,7,4,NA,NA,0,0,20,NA,NA,NA,NA,NA,NA,NA,NA,NA,NA,NA,NA,NA,NA,NA,NA,NA,NA,NA,NA,7,4,NA,NA,0,0,20,1,1,"",NA,NA,NA,NA,NA,NA,NA,NA,NA,2025-11-21 01:35:08
"null","https://psyc-201.github.io/xiang2023/exp/index1.html?PROLIFIC_PID=REDACTED&STUDY_ID=691f8ca61c6b4dcbb0aeb5f4&SESSION_ID=691fbd7668eae1cd9472735b","html-keyboard-response",25,624093,"0.0-334.0","XMYO/OyQKtZwULJCetirOv/TiVdRhZBdly1IRQR3HIrt0szdolT8rdMHiPkYPP5YUf2Ib6FXMmZdPoOYAktnstRPRGl6eb/FGimftf43aNeAeuaFgGhO3KLXBhhLrKosjhol2L86FaiGZdej1hBdAioDUqB0pV1Ys5JvZZNz+mZTGgPA9TyXu6Bu6eijp/RqpiaEQGcAwWCECJk7UpOIlaiD+qtqDqdbcz5O8l+fcvOPfIW3C034a5u4syq1lua1Cb1AQ+bsxGa2ESu3H0cWM680A/q2rV+pFtMcWN/8nppGQSzmk2ysi+GqQc2QPd91ngOJ6rdaGhL6GdCsYS6xIQ==","691f8ca61c6b4dcbb0aeb5f4","691fbd7668eae1cd9472735b","index1","<span style='color:red'>Fail,<span style='color:red'>Fail,<span style='color:green'>Lift,<span style='color:green'>Lift,<span style='color:red'>Fail,<span style='color:red'>Fail,<span style='color:red'>Fail,<span style='color:red'>Fail,<span style='color:red'>Fail,<span style='color:green'>Lift,<span style='color:green'>Lift,<span style='color:red'>Fail","<span style='color:red'>Fail,<span style='color:red'>Fail,<span style='color:green'>Lift,<span style='color:green'>Lift,<span style='color:green'>Lift,<span style='color:green'>Lift,<span style='color:green'>Lift,<span style='color:red'>Fail,<span style='color:green'>Lift,<span style='color:green'>Lift,<span style='color:green'>Lift,<span style='color:red'>Fail","<span style='color:red'>Fail,<span style='color:green'>Lift,<span style='color:green'>Lift,<span style='color:red'>Fail,<span style='color:green'>Lift,<span style='color:green'>Lift","0,0,1,1,0,0,0,0,0,1,1,0","0,0,1,1,1,1,1,0,1,1,1,0","0,1,1,0,1,1",10,20,20,"","","<p style='font-size:30px'><b> New Contest! </b></p>","null","","",4,"",NA,NA,NA,NA,NA,NA,NA,NA,NA,NA,NA,NA,NA,NA,NA,NA,NA,NA,NA,NA,NA,NA,NA,NA,NA,NA,NA,NA,NA,NA,NA,NA,NA,NA,NA,NA,NA,NA,NA,"",NA,NA,NA,NA,NA,NA,NA,NA,NA,2025-11-21 01:35:08
"19011","https://psyc-201.github.io/xiang2023/exp/index1.html?PROLIFIC_PID=REDACTED&STUDY_ID=691f8ca61c6b4dcbb0aeb5f4&SESSION_ID=691fbd7668eae1cd9472735b","survey-html-form",26,643106,"0.0-335.0","XMYO/OyQKtZwULJCetirOv/TiVdRhZBdly1IRQR3HIrt0szdolT8rdMHiPkYPP5YUf2Ib6FXMmZdPoOYAktnstRPRGl6eb/FGimftf43aNeAeuaFgGhO3KLXBhhLrKosjhol2L86FaiGZdej1hBdAioDUqB0pV1Ys5JvZZNz+mZTGgPA9TyXu6Bu6eijp/RqpiaEQGcAwWCECJk7UpOIlaiD+qtqDqdbcz5O8l+fcvOPfIW3C034a5u4syq1lua1Cb1AQ+bsxGa2ESu3H0cWM680A/q2rV+pFtMcWN/8nppGQSzmk2ysi+GqQc2QPd91ngOJ6rdaGhL6GdCsYS6xIQ==","691f8ca61c6b4dcbb0aeb5f4","691fbd7668eae1cd9472735b","index1","<span style='color:red'>Fail,<span style='color:red'>Fail,<span style='color:green'>Lift,<span style='color:green'>Lift,<span style='color:red'>Fail,<span style='color:red'>Fail,<span style='color:red'>Fail,<span style='color:red'>Fail,<span style='color:red'>Fail,<span style='color:green'>Lift,<span style='color:green'>Lift,<span style='color:red'>Fail","<span style='color:red'>Fail,<span style='color:red'>Fail,<span style='color:green'>Lift,<span style='color:green'>Lift,<span style='color:green'>Lift,<span style='color:green'>Lift,<span style='color:green'>Lift,<span style='color:red'>Fail,<span style='color:green'>Lift,<span style='color:green'>Lift,<span style='color:green'>Lift,<span style='color:red'>Fail","<span style='color:red'>Fail,<span style='color:green'>Lift,<span style='color:green'>Lift,<span style='color:red'>Fail,<span style='color:green'>Lift,<span style='color:green'>Lift","0,0,1,1,0,0,0,0,0,1,1,0","0,0,1,1,1,1,1,0,1,1,1,0","0,1,1,0,1,1",10,20,20,"","","","","{""box1"":""8"",""box2"":""8"",""box3"":""10"",""box4"":""10""}","",4,"round1_outcome",1,4,1,8,8,10,10,1,1,10,8,8,10,10,1,1,10,NA,NA,NA,NA,NA,NA,NA,NA,NA,NA,NA,NA,NA,NA,NA,NA,NA,NA,NA,NA,NA,NA,"",NA,NA,NA,NA,NA,NA,NA,NA,NA,2025-11-21 01:35:08
"10863.59999999404","https://psyc-201.github.io/xiang2023/exp/index1.html?PROLIFIC_PID=REDACTED&STUDY_ID=691f8ca61c6b4dcbb0aeb5f4&SESSION_ID=691fbd7668eae1cd9472735b","survey-html-form",27,653972,"0.0-336.0","XMYO/OyQKtZwULJCetirOv/TiVdRhZBdly1IRQR3HIrt0szdolT8rdMHiPkYPP5YUf2Ib6FXMmZdPoOYAktnstRPRGl6eb/FGimftf43aNeAeuaFgGhO3KLXBhhLrKosjhol2L86FaiGZdej1hBdAioDUqB0pV1Ys5JvZZNz+mZTGgPA9TyXu6Bu6eijp/RqpiaEQGcAwWCECJk7UpOIlaiD+qtqDqdbcz5O8l+fcvOPfIW3C034a5u4syq1lua1Cb1AQ+bsxGa2ESu3H0cWM680A/q2rV+pFtMcWN/8nppGQSzmk2ysi+GqQc2QPd91ngOJ6rdaGhL6GdCsYS6xIQ==","691f8ca61c6b4dcbb0aeb5f4","691fbd7668eae1cd9472735b","index1","<span style='color:red'>Fail,<span style='color:red'>Fail,<span style='color:green'>Lift,<span style='color:green'>Lift,<span style='color:red'>Fail,<span style='color:red'>Fail,<span style='color:red'>Fail,<span style='color:red'>Fail,<span style='color:red'>Fail,<span style='color:green'>Lift,<span style='color:green'>Lift,<span style='color:red'>Fail","<span style='color:red'>Fail,<span style='color:red'>Fail,<span style='color:green'>Lift,<span style='color:green'>Lift,<span style='color:green'>Lift,<span style='color:green'>Lift,<span style='color:green'>Lift,<span style='color:red'>Fail,<span style='color:green'>Lift,<span style='color:green'>Lift,<span style='color:green'>Lift,<span style='color:red'>Fail","<span style='color:red'>Fail,<span style='color:green'>Lift,<span style='color:green'>Lift,<span style='color:red'>Fail,<span style='color:green'>Lift,<span style='color:green'>Lift","0,0,1,1,0,0,0,0,0,1,1,0","0,0,1,1,1,1,1,0,1,1,1,0","0,1,1,0,1,1",10,20,20,"","","","","{""box1"":""10"",""box2"":""10""}","",4,"round2_ready",2,4,2,NA,NA,NA,NA,NA,NA,NA,NA,NA,NA,NA,NA,NA,NA,10,10,10,10,NA,NA,NA,NA,NA,NA,NA,NA,NA,NA,NA,NA,NA,NA,NA,NA,NA,NA,"",NA,NA,NA,NA,NA,NA,NA,NA,NA,2025-11-21 01:35:08
"21515.09999999404","https://psyc-201.github.io/xiang2023/exp/index1.html?PROLIFIC_PID=REDACTED&STUDY_ID=691f8ca61c6b4dcbb0aeb5f4&SESSION_ID=691fbd7668eae1cd9472735b","survey-html-form",28,675489,"0.0-337.0","XMYO/OyQKtZwULJCetirOv/TiVdRhZBdly1IRQR3HIrt0szdolT8rdMHiPkYPP5YUf2Ib6FXMmZdPoOYAktnstRPRGl6eb/FGimftf43aNeAeuaFgGhO3KLXBhhLrKosjhol2L86FaiGZdej1hBdAioDUqB0pV1Ys5JvZZNz+mZTGgPA9TyXu6Bu6eijp/RqpiaEQGcAwWCECJk7UpOIlaiD+qtqDqdbcz5O8l+fcvOPfIW3C034a5u4syq1lua1Cb1AQ+bsxGa2ESu3H0cWM680A/q2rV+pFtMcWN/8nppGQSzmk2ysi+GqQc2QPd91ngOJ6rdaGhL6GdCsYS6xIQ==","691f8ca61c6b4dcbb0aeb5f4","691fbd7668eae1cd9472735b","index1","<span style='color:red'>Fail,<span style='color:red'>Fail,<span style='color:green'>Lift,<span style='color:green'>Lift,<span style='color:red'>Fail,<span style='color:red'>Fail,<span style='color:red'>Fail,<span style='color:red'>Fail,<span style='color:red'>Fail,<span style='color:green'>Lift,<span style='color:green'>Lift,<span style='color:red'>Fail","<span style='color:red'>Fail,<span style='color:red'>Fail,<span style='color:green'>Lift,<span style='color:green'>Lift,<span style='color:green'>Lift,<span style='color:green'>Lift,<span style='color:green'>Lift,<span style='color:red'>Fail,<span style='color:green'>Lift,<span style='color:green'>Lift,<span style='color:green'>Lift,<span style='color:red'>Fail","<span style='color:red'>Fail,<span style='color:green'>Lift,<span style='color:green'>Lift,<span style='color:red'>Fail,<span style='color:green'>Lift,<span style='color:green'>Lift","0,0,1,1,0,0,0,0,0,1,1,0","0,0,1,1,1,1,1,0,1,1,1,0","0,1,1,0,1,1",10,20,20,"","","","","{""box1"":""8"",""box2"":""8"",""box3"":""10"",""box4"":""10""}","",4,"round2_outcome",3,4,2,8,8,10,10,1,1,20,NA,NA,NA,NA,NA,NA,NA,NA,NA,NA,NA,8,8,10,10,1,1,20,NA,NA,NA,NA,NA,NA,NA,NA,NA,NA,NA,"",NA,NA,NA,NA,NA,NA,NA,NA,NA,2025-11-21 01:35:08
"5697.5","https://psyc-201.github.io/xiang2023/exp/index1.html?PROLIFIC_PID=REDACTED&STUDY_ID=691f8ca61c6b4dcbb0aeb5f4&SESSION_ID=691fbd7668eae1cd9472735b","survey-html-form",29,681189,"0.0-338.0","XMYO/OyQKtZwULJCetirOv/TiVdRhZBdly1IRQR3HIrt0szdolT8rdMHiPkYPP5YUf2Ib6FXMmZdPoOYAktnstRPRGl6eb/FGimftf43aNeAeuaFgGhO3KLXBhhLrKosjhol2L86FaiGZdej1hBdAioDUqB0pV1Ys5JvZZNz+mZTGgPA9TyXu6Bu6eijp/RqpiaEQGcAwWCECJk7UpOIlaiD+qtqDqdbcz5O8l+fcvOPfIW3C034a5u4syq1lua1Cb1AQ+bsxGa2ESu3H0cWM680A/q2rV+pFtMcWN/8nppGQSzmk2ysi+GqQc2QPd91ngOJ6rdaGhL6GdCsYS6xIQ==","691f8ca61c6b4dcbb0aeb5f4","691fbd7668eae1cd9472735b","index1","<span style='color:red'>Fail,<span style='color:red'>Fail,<span style='color:green'>Lift,<span style='color:green'>Lift,<span style='color:red'>Fail,<span style='color:red'>Fail,<span style='color:red'>Fail,<span style='color:red'>Fail,<span style='color:red'>Fail,<span style='color:green'>Lift,<span style='color:green'>Lift,<span style='color:red'>Fail","<span style='color:red'>Fail,<span style='color:red'>Fail,<span style='color:green'>Lift,<span style='color:green'>Lift,<span style='color:green'>Lift,<span style='color:green'>Lift,<span style='color:green'>Lift,<span style='color:red'>Fail,<span style='color:green'>Lift,<span style='color:green'>Lift,<span style='color:green'>Lift,<span style='color:red'>Fail","<span style='color:red'>Fail,<span style='color:green'>Lift,<span style='color:green'>Lift,<span style='color:red'>Fail,<span style='color:green'>Lift,<span style='color:green'>Lift","0,0,1,1,0,0,0,0,0,1,1,0","0,0,1,1,1,1,1,0,1,1,1,0","0,1,1,0,1,1",10,20,20,"","","","","{""box1"":""0""}","",4,"round3_ready",4,4,3,NA,NA,NA,NA,NA,NA,NA,NA,NA,NA,NA,NA,NA,NA,0,0,NA,NA,NA,NA,NA,NA,NA,NA,NA,0,0,NA,NA,NA,NA,NA,NA,NA,NA,NA,"",NA,NA,NA,NA,NA,NA,NA,NA,NA,2025-11-21 01:35:08
"19998","https://psyc-201.github.io/xiang2023/exp/index1.html?PROLIFIC_PID=REDACTED&STUDY_ID=691f8ca61c6b4dcbb0aeb5f4&SESSION_ID=691fbd7668eae1cd9472735b","survey-html-form",30,701189,"0.0-339.0-0.0","XMYO/OyQKtZwULJCetirOv/TiVdRhZBdly1IRQR3HIrt0szdolT8rdMHiPkYPP5YUf2Ib6FXMmZdPoOYAktnstRPRGl6eb/FGimftf43aNeAeuaFgGhO3KLXBhhLrKosjhol2L86FaiGZdej1hBdAioDUqB0pV1Ys5JvZZNz+mZTGgPA9TyXu6Bu6eijp/RqpiaEQGcAwWCECJk7UpOIlaiD+qtqDqdbcz5O8l+fcvOPfIW3C034a5u4syq1lua1Cb1AQ+bsxGa2ESu3H0cWM680A/q2rV+pFtMcWN/8nppGQSzmk2ysi+GqQc2QPd91ngOJ6rdaGhL6GdCsYS6xIQ==","691f8ca61c6b4dcbb0aeb5f4","691fbd7668eae1cd9472735b","index1","<span style='color:red'>Fail,<span style='color:red'>Fail,<span style='color:green'>Lift,<span style='color:green'>Lift,<span style='color:red'>Fail,<span style='color:red'>Fail,<span style='color:red'>Fail,<span style='color:red'>Fail,<span style='color:red'>Fail,<span style='color:green'>Lift,<span style='color:green'>Lift,<span style='color:red'>Fail","<span style='color:red'>Fail,<span style='color:red'>Fail,<span style='color:green'>Lift,<span style='color:green'>Lift,<span style='color:green'>Lift,<span style='color:green'>Lift,<span style='color:green'>Lift,<span style='color:red'>Fail,<span style='color:green'>Lift,<span style='color:green'>Lift,<span style='color:green'>Lift,<span style='color:red'>Fail","<span style='color:red'>Fail,<span style='color:green'>Lift,<span style='color:green'>Lift,<span style='color:red'>Fail,<span style='color:green'>Lift,<span style='color:green'>Lift","0,0,1,1,0,0,0,0,0,1,1,0","0,0,1,1,1,1,1,0,1,1,1,0","0,1,1,0,1,1",10,20,20,"","","","","{""box1"":""8"",""box2"":""8"",""box3"":""10"",""box4"":""10""}","",5,"round3_lift",5,4,3,8,8,10,10,1,1,20,NA,NA,NA,NA,NA,NA,NA,NA,NA,NA,NA,NA,NA,NA,NA,NA,NA,NA,NA,NA,8,8,10,10,1,1,20,NA,NA,"",NA,NA,NA,NA,NA,NA,NA,NA,NA,2025-11-21 01:35:08
"null","https://psyc-201.github.io/xiang2023/exp/index1.html?PROLIFIC_PID=REDACTED&STUDY_ID=691f8ca61c6b4dcbb0aeb5f4&SESSION_ID=691fbd7668eae1cd9472735b","html-keyboard-response",31,704192,"0.0-343.0","XMYO/OyQKtZwULJCetirOv/TiVdRhZBdly1IRQR3HIrt0szdolT8rdMHiPkYPP5YUf2Ib6FXMmZdPoOYAktnstRPRGl6eb/FGimftf43aNeAeuaFgGhO3KLXBhhLrKosjhol2L86FaiGZdej1hBdAioDUqB0pV1Ys5JvZZNz+mZTGgPA9TyXu6Bu6eijp/RqpiaEQGcAwWCECJk7UpOIlaiD+qtqDqdbcz5O8l+fcvOPfIW3C034a5u4syq1lua1Cb1AQ+bsxGa2ESu3H0cWM680A/q2rV+pFtMcWN/8nppGQSzmk2ysi+GqQc2QPd91ngOJ6rdaGhL6GdCsYS6xIQ==","691f8ca61c6b4dcbb0aeb5f4","691fbd7668eae1cd9472735b","index1","<span style='color:red'>Fail,<span style='color:red'>Fail,<span style='color:green'>Lift,<span style='color:green'>Lift,<span style='color:red'>Fail,<span style='color:red'>Fail,<span style='color:red'>Fail,<span style='color:red'>Fail,<span style='color:red'>Fail,<span style='color:green'>Lift,<span style='color:green'>Lift,<span style='color:red'>Fail","<span style='color:red'>Fail,<span style='color:red'>Fail,<span style='color:green'>Lift,<span style='color:green'>Lift,<span style='color:green'>Lift,<span style='color:green'>Lift,<span style='color:green'>Lift,<span style='color:red'>Fail,<span style='color:green'>Lift,<span style='color:green'>Lift,<span style='color:green'>Lift,<span style='color:red'>Fail","<span style='color:red'>Fail,<span style='color:green'>Lift,<span style='color:green'>Lift,<span style='color:red'>Fail,<span style='color:green'>Lift,<span style='color:green'>Lift","0,0,1,1,0,0,0,0,0,1,1,0","0,0,1,1,1,1,1,0,1,1,1,0","0,1,1,0,1,1",10,20,20,"","","<p style='font-size:30px'><b> New Contest! </b></p>","null","","",5,"",NA,NA,NA,NA,NA,NA,NA,NA,NA,NA,NA,NA,NA,NA,NA,NA,NA,NA,NA,NA,NA,NA,NA,NA,NA,NA,NA,NA,NA,NA,NA,NA,NA,NA,NA,NA,NA,NA,NA,"",NA,NA,NA,NA,NA,NA,NA,NA,NA,2025-11-21 01:35:08
"25176","https://psyc-201.github.io/xiang2023/exp/index1.html?PROLIFIC_PID=REDACTED&STUDY_ID=691f8ca61c6b4dcbb0aeb5f4&SESSION_ID=691fbd7668eae1cd9472735b","survey-html-form",32,729371,"0.0-344.0","XMYO/OyQKtZwULJCetirOv/TiVdRhZBdly1IRQR3HIrt0szdolT8rdMHiPkYPP5YUf2Ib6FXMmZdPoOYAktnstRPRGl6eb/FGimftf43aNeAeuaFgGhO3KLXBhhLrKosjhol2L86FaiGZdej1hBdAioDUqB0pV1Ys5JvZZNz+mZTGgPA9TyXu6Bu6eijp/RqpiaEQGcAwWCECJk7UpOIlaiD+qtqDqdbcz5O8l+fcvOPfIW3C034a5u4syq1lua1Cb1AQ+bsxGa2ESu3H0cWM680A/q2rV+pFtMcWN/8nppGQSzmk2ysi+GqQc2QPd91ngOJ6rdaGhL6GdCsYS6xIQ==","691f8ca61c6b4dcbb0aeb5f4","691fbd7668eae1cd9472735b","index1","<span style='color:red'>Fail,<span style='color:red'>Fail,<span style='color:green'>Lift,<span style='color:green'>Lift,<span style='color:red'>Fail,<span style='color:red'>Fail,<span style='color:red'>Fail,<span style='color:red'>Fail,<span style='color:red'>Fail,<span style='color:green'>Lift,<span style='color:green'>Lift,<span style='color:red'>Fail","<span style='color:red'>Fail,<span style='color:red'>Fail,<span style='color:green'>Lift,<span style='color:green'>Lift,<span style='color:green'>Lift,<span style='color:green'>Lift,<span style='color:green'>Lift,<span style='color:red'>Fail,<span style='color:green'>Lift,<span style='color:green'>Lift,<span style='color:green'>Lift,<span style='color:red'>Fail","<span style='color:red'>Fail,<span style='color:green'>Lift,<span style='color:green'>Lift,<span style='color:red'>Fail,<span style='color:green'>Lift,<span style='color:green'>Lift","0,0,1,1,0,0,0,0,0,1,1,0","0,0,1,1,1,1,1,0,1,1,1,0","0,1,1,0,1,1",10,20,20,"","","","","{""box1"":""4"",""box2"":""8"",""box4"":""10""}","",5,"round1_outcome",1,5,1,4,8,NA,10,0,1,10,4,8,NA,10,0,1,10,NA,NA,NA,NA,NA,NA,NA,NA,NA,NA,NA,NA,NA,NA,NA,NA,NA,NA,NA,NA,NA,NA,"",NA,NA,NA,NA,NA,NA,NA,NA,NA,2025-11-21 01:35:08
"20964.80000001192","https://psyc-201.github.io/xiang2023/exp/index1.html?PROLIFIC_PID=REDACTED&STUDY_ID=691f8ca61c6b4dcbb0aeb5f4&SESSION_ID=691fbd7668eae1cd9472735b","survey-html-form",33,750337,"0.0-345.0","XMYO/OyQKtZwULJCetirOv/TiVdRhZBdly1IRQR3HIrt0szdolT8rdMHiPkYPP5YUf2Ib6FXMmZdPoOYAktnstRPRGl6eb/FGimftf43aNeAeuaFgGhO3KLXBhhLrKosjhol2L86FaiGZdej1hBdAioDUqB0pV1Ys5JvZZNz+mZTGgPA9TyXu6Bu6eijp/RqpiaEQGcAwWCECJk7UpOIlaiD+qtqDqdbcz5O8l+fcvOPfIW3C034a5u4syq1lua1Cb1AQ+bsxGa2ESu3H0cWM680A/q2rV+pFtMcWN/8nppGQSzmk2ysi+GqQc2QPd91ngOJ6rdaGhL6GdCsYS6xIQ==","691f8ca61c6b4dcbb0aeb5f4","691fbd7668eae1cd9472735b","index1","<span style='color:red'>Fail,<span style='color:red'>Fail,<span style='color:green'>Lift,<span style='color:green'>Lift,<span style='color:red'>Fail,<span style='color:red'>Fail,<span style='color:red'>Fail,<span style='color:red'>Fail,<span style='color:red'>Fail,<span style='color:green'>Lift,<span style='color:green'>Lift,<span style='color:red'>Fail","<span style='color:red'>Fail,<span style='color:red'>Fail,<span style='color:green'>Lift,<span style='color:green'>Lift,<span style='color:green'>Lift,<span style='color:green'>Lift,<span style='color:green'>Lift,<span style='color:red'>Fail,<span style='color:green'>Lift,<span style='color:green'>Lift,<span style='color:green'>Lift,<span style='color:red'>Fail","<span style='color:red'>Fail,<span style='color:green'>Lift,<span style='color:green'>Lift,<span style='color:red'>Fail,<span style='color:green'>Lift,<span style='color:green'>Lift","0,0,1,1,0,0,0,0,0,1,1,0","0,0,1,1,1,1,1,0,1,1,1,0","0,1,1,0,1,1",10,20,20,"","","","","{""box1"":""0"",""box2"":""10""}","",5,"round2_ready",2,5,2,NA,NA,NA,NA,NA,NA,NA,NA,NA,NA,NA,NA,NA,NA,0,10,0,10,NA,NA,NA,NA,NA,NA,NA,NA,NA,NA,NA,NA,NA,NA,NA,NA,NA,NA,"",NA,NA,NA,NA,NA,NA,NA,NA,NA,2025-11-21 01:35:08
"37315.20000001788","https://psyc-201.github.io/xiang2023/exp/index1.html?PROLIFIC_PID=REDACTED&STUDY_ID=691f8ca61c6b4dcbb0aeb5f4&SESSION_ID=691fbd7668eae1cd9472735b","survey-html-form",34,787655,"0.0-346.0","XMYO/OyQKtZwULJCetirOv/TiVdRhZBdly1IRQR3HIrt0szdolT8rdMHiPkYPP5YUf2Ib6FXMmZdPoOYAktnstRPRGl6eb/FGimftf43aNeAeuaFgGhO3KLXBhhLrKosjhol2L86FaiGZdej1hBdAioDUqB0pV1Ys5JvZZNz+mZTGgPA9TyXu6Bu6eijp/RqpiaEQGcAwWCECJk7UpOIlaiD+qtqDqdbcz5O8l+fcvOPfIW3C034a5u4syq1lua1Cb1AQ+bsxGa2ESu3H0cWM680A/q2rV+pFtMcWN/8nppGQSzmk2ysi+GqQc2QPd91ngOJ6rdaGhL6GdCsYS6xIQ==","691f8ca61c6b4dcbb0aeb5f4","691fbd7668eae1cd9472735b","index1","<span style='color:red'>Fail,<span style='color:red'>Fail,<span style='color:green'>Lift,<span style='color:green'>Lift,<span style='color:red'>Fail,<span style='color:red'>Fail,<span style='color:red'>Fail,<span style='color:red'>Fail,<span style='color:red'>Fail,<span style='color:green'>Lift,<span style='color:green'>Lift,<span style='color:red'>Fail","<span style='color:red'>Fail,<span style='color:red'>Fail,<span style='color:green'>Lift,<span style='color:green'>Lift,<span style='color:green'>Lift,<span style='color:green'>Lift,<span style='color:green'>Lift,<span style='color:red'>Fail,<span style='color:green'>Lift,<span style='color:green'>Lift,<span style='color:green'>Lift,<span style='color:red'>Fail","<span style='color:red'>Fail,<span style='color:green'>Lift,<span style='color:green'>Lift,<span style='color:red'>Fail,<span style='color:green'>Lift,<span style='color:green'>Lift","0,0,1,1,0,0,0,0,0,1,1,0","0,0,1,1,1,1,1,0,1,1,1,0","0,1,1,0,1,1",10,20,20,"","","","","{""box1"":""4"",""box2"":""10"",""box3"":""10"",""box4"":""10""}","",5,"round2_outcome",3,5,2,4,10,10,10,1,1,20,NA,NA,NA,NA,NA,NA,NA,NA,NA,NA,NA,4,10,10,10,1,1,20,NA,NA,NA,NA,NA,NA,NA,NA,NA,NA,NA,"",NA,NA,NA,NA,NA,NA,NA,NA,NA,2025-11-21 01:35:08
"8529.700000017881","https://psyc-201.github.io/xiang2023/exp/index1.html?PROLIFIC_PID=REDACTED&STUDY_ID=691f8ca61c6b4dcbb0aeb5f4&SESSION_ID=691fbd7668eae1cd9472735b","survey-html-form",35,796186,"0.0-347.0","XMYO/OyQKtZwULJCetirOv/TiVdRhZBdly1IRQR3HIrt0szdolT8rdMHiPkYPP5YUf2Ib6FXMmZdPoOYAktnstRPRGl6eb/FGimftf43aNeAeuaFgGhO3KLXBhhLrKosjhol2L86FaiGZdej1hBdAioDUqB0pV1Ys5JvZZNz+mZTGgPA9TyXu6Bu6eijp/RqpiaEQGcAwWCECJk7UpOIlaiD+qtqDqdbcz5O8l+fcvOPfIW3C034a5u4syq1lua1Cb1AQ+bsxGa2ESu3H0cWM680A/q2rV+pFtMcWN/8nppGQSzmk2ysi+GqQc2QPd91ngOJ6rdaGhL6GdCsYS6xIQ==","691f8ca61c6b4dcbb0aeb5f4","691fbd7668eae1cd9472735b","index1","<span style='color:red'>Fail,<span style='color:red'>Fail,<span style='color:green'>Lift,<span style='color:green'>Lift,<span style='color:red'>Fail,<span style='color:red'>Fail,<span style='color:red'>Fail,<span style='color:red'>Fail,<span style='color:red'>Fail,<span style='color:green'>Lift,<span style='color:green'>Lift,<span style='color:red'>Fail","<span style='color:red'>Fail,<span style='color:red'>Fail,<span style='color:green'>Lift,<span style='color:green'>Lift,<span style='color:green'>Lift,<span style='color:green'>Lift,<span style='color:green'>Lift,<span style='color:red'>Fail,<span style='color:green'>Lift,<span style='color:green'>Lift,<span style='color:green'>Lift,<span style='color:red'>Fail","<span style='color:red'>Fail,<span style='color:green'>Lift,<span style='color:green'>Lift,<span style='color:red'>Fail,<span style='color:green'>Lift,<span style='color:green'>Lift","0,0,1,1,0,0,0,0,0,1,1,0","0,0,1,1,1,1,1,0,1,1,1,0","0,1,1,0,1,1",10,20,20,"","","","","{""box1"":""10""}","",5,"round3_ready",4,5,3,NA,NA,NA,NA,NA,NA,NA,NA,NA,NA,NA,NA,NA,NA,10,10,NA,NA,NA,NA,NA,NA,NA,NA,NA,10,10,NA,NA,NA,NA,NA,NA,NA,NA,NA,"",NA,NA,NA,NA,NA,NA,NA,NA,NA,2025-11-21 01:35:08
"17484.09999999404","https://psyc-201.github.io/xiang2023/exp/index1.html?PROLIFIC_PID=REDACTED&STUDY_ID=691f8ca61c6b4dcbb0aeb5f4&SESSION_ID=691fbd7668eae1cd9472735b","survey-html-form",36,813671,"0.0-348.0-0.0","XMYO/OyQKtZwULJCetirOv/TiVdRhZBdly1IRQR3HIrt0szdolT8rdMHiPkYPP5YUf2Ib6FXMmZdPoOYAktnstRPRGl6eb/FGimftf43aNeAeuaFgGhO3KLXBhhLrKosjhol2L86FaiGZdej1hBdAioDUqB0pV1Ys5JvZZNz+mZTGgPA9TyXu6Bu6eijp/RqpiaEQGcAwWCECJk7UpOIlaiD+qtqDqdbcz5O8l+fcvOPfIW3C034a5u4syq1lua1Cb1AQ+bsxGa2ESu3H0cWM680A/q2rV+pFtMcWN/8nppGQSzmk2ysi+GqQc2QPd91ngOJ6rdaGhL6GdCsYS6xIQ==","691f8ca61c6b4dcbb0aeb5f4","691fbd7668eae1cd9472735b","index1","<span style='color:red'>Fail,<span style='color:red'>Fail,<span style='color:green'>Lift,<span style='color:green'>Lift,<span style='color:red'>Fail,<span style='color:red'>Fail,<span style='color:red'>Fail,<span style='color:red'>Fail,<span style='color:red'>Fail,<span style='color:green'>Lift,<span style='color:green'>Lift,<span style='color:red'>Fail","<span style='color:red'>Fail,<span style='color:red'>Fail,<span style='color:green'>Lift,<span style='color:green'>Lift,<span style='color:green'>Lift,<span style='color:green'>Lift,<span style='color:green'>Lift,<span style='color:red'>Fail,<span style='color:green'>Lift,<span style='color:green'>Lift,<span style='color:green'>Lift,<span style='color:red'>Fail","<span style='color:red'>Fail,<span style='color:green'>Lift,<span style='color:green'>Lift,<span style='color:red'>Fail,<span style='color:green'>Lift,<span style='color:green'>Lift","0,0,1,1,0,0,0,0,0,1,1,0","0,0,1,1,1,1,1,0,1,1,1,0","0,1,1,0,1,1",10,20,20,"","","","","{""box1"":""4"",""box2"":""10"",""box3"":""10"",""box4"":""10""}","",6,"round3_lift",5,5,3,4,10,10,10,1,1,20,NA,NA,NA,NA,NA,NA,NA,NA,NA,NA,NA,NA,NA,NA,NA,NA,NA,NA,NA,NA,4,10,10,10,1,1,20,NA,NA,"",NA,NA,NA,NA,NA,NA,NA,NA,NA,2025-11-21 01:35:08
"null","https://psyc-201.github.io/xiang2023/exp/index1.html?PROLIFIC_PID=REDACTED&STUDY_ID=691f8ca61c6b4dcbb0aeb5f4&SESSION_ID=691fbd7668eae1cd9472735b","html-keyboard-response",37,816675,"0.0-352.0","XMYO/OyQKtZwULJCetirOv/TiVdRhZBdly1IRQR3HIrt0szdolT8rdMHiPkYPP5YUf2Ib6FXMmZdPoOYAktnstRPRGl6eb/FGimftf43aNeAeuaFgGhO3KLXBhhLrKosjhol2L86FaiGZdej1hBdAioDUqB0pV1Ys5JvZZNz+mZTGgPA9TyXu6Bu6eijp/RqpiaEQGcAwWCECJk7UpOIlaiD+qtqDqdbcz5O8l+fcvOPfIW3C034a5u4syq1lua1Cb1AQ+bsxGa2ESu3H0cWM680A/q2rV+pFtMcWN/8nppGQSzmk2ysi+GqQc2QPd91ngOJ6rdaGhL6GdCsYS6xIQ==","691f8ca61c6b4dcbb0aeb5f4","691fbd7668eae1cd9472735b","index1","<span style='color:red'>Fail,<span style='color:red'>Fail,<span style='color:green'>Lift,<span style='color:green'>Lift,<span style='color:red'>Fail,<span style='color:red'>Fail,<span style='color:red'>Fail,<span style='color:red'>Fail,<span style='color:red'>Fail,<span style='color:green'>Lift,<span style='color:green'>Lift,<span style='color:red'>Fail","<span style='color:red'>Fail,<span style='color:red'>Fail,<span style='color:green'>Lift,<span style='color:green'>Lift,<span style='color:green'>Lift,<span style='color:green'>Lift,<span style='color:green'>Lift,<span style='color:red'>Fail,<span style='color:green'>Lift,<span style='color:green'>Lift,<span style='color:green'>Lift,<span style='color:red'>Fail","<span style='color:red'>Fail,<span style='color:green'>Lift,<span style='color:green'>Lift,<span style='color:red'>Fail,<span style='color:green'>Lift,<span style='color:green'>Lift","0,0,1,1,0,0,0,0,0,1,1,0","0,0,1,1,1,1,1,0,1,1,1,0","0,1,1,0,1,1",10,20,20,"","","<p style='font-size:30px'><b> New Contest! </b></p>","null","","",6,"",NA,NA,NA,NA,NA,NA,NA,NA,NA,NA,NA,NA,NA,NA,NA,NA,NA,NA,NA,NA,NA,NA,NA,NA,NA,NA,NA,NA,NA,NA,NA,NA,NA,NA,NA,NA,NA,NA,NA,"",NA,NA,NA,NA,NA,NA,NA,NA,NA,2025-11-21 01:35:08
"24243.5","https://psyc-201.github.io/xiang2023/exp/index1.html?PROLIFIC_PID=REDACTED&STUDY_ID=691f8ca61c6b4dcbb0aeb5f4&SESSION_ID=691fbd7668eae1cd9472735b","survey-html-form",38,840921,"0.0-353.0","XMYO/OyQKtZwULJCetirOv/TiVdRhZBdly1IRQR3HIrt0szdolT8rdMHiPkYPP5YUf2Ib6FXMmZdPoOYAktnstRPRGl6eb/FGimftf43aNeAeuaFgGhO3KLXBhhLrKosjhol2L86FaiGZdej1hBdAioDUqB0pV1Ys5JvZZNz+mZTGgPA9TyXu6Bu6eijp/RqpiaEQGcAwWCECJk7UpOIlaiD+qtqDqdbcz5O8l+fcvOPfIW3C034a5u4syq1lua1Cb1AQ+bsxGa2ESu3H0cWM680A/q2rV+pFtMcWN/8nppGQSzmk2ysi+GqQc2QPd91ngOJ6rdaGhL6GdCsYS6xIQ==","691f8ca61c6b4dcbb0aeb5f4","691fbd7668eae1cd9472735b","index1","<span style='color:red'>Fail,<span style='color:red'>Fail,<span style='color:green'>Lift,<span style='color:green'>Lift,<span style='color:red'>Fail,<span style='color:red'>Fail,<span style='color:red'>Fail,<span style='color:red'>Fail,<span style='color:red'>Fail,<span style='color:green'>Lift,<span style='color:green'>Lift,<span style='color:red'>Fail","<span style='color:red'>Fail,<span style='color:red'>Fail,<span style='color:green'>Lift,<span style='color:green'>Lift,<span style='color:green'>Lift,<span style='color:green'>Lift,<span style='color:green'>Lift,<span style='color:red'>Fail,<span style='color:green'>Lift,<span style='color:green'>Lift,<span style='color:green'>Lift,<span style='color:red'>Fail","<span style='color:red'>Fail,<span style='color:green'>Lift,<span style='color:green'>Lift,<span style='color:red'>Fail,<span style='color:green'>Lift,<span style='color:green'>Lift","0,0,1,1,0,0,0,0,0,1,1,0","0,0,1,1,1,1,1,0,1,1,1,0","0,1,1,0,1,1",10,20,20,"","","","","{""box1"":""5"",""box2"":""3"",""box3"":""10""}","",6,"round1_outcome",1,6,1,5,3,10,NA,1,0,10,5,3,10,NA,1,0,10,NA,NA,NA,NA,NA,NA,NA,NA,NA,NA,NA,NA,NA,NA,NA,NA,NA,NA,NA,NA,NA,NA,"",NA,NA,NA,NA,NA,NA,NA,NA,NA,2025-11-21 01:35:08
"27964.59999999404","https://psyc-201.github.io/xiang2023/exp/index1.html?PROLIFIC_PID=REDACTED&STUDY_ID=691f8ca61c6b4dcbb0aeb5f4&SESSION_ID=691fbd7668eae1cd9472735b","survey-html-form",39,868888,"0.0-354.0","XMYO/OyQKtZwULJCetirOv/TiVdRhZBdly1IRQR3HIrt0szdolT8rdMHiPkYPP5YUf2Ib6FXMmZdPoOYAktnstRPRGl6eb/FGimftf43aNeAeuaFgGhO3KLXBhhLrKosjhol2L86FaiGZdej1hBdAioDUqB0pV1Ys5JvZZNz+mZTGgPA9TyXu6Bu6eijp/RqpiaEQGcAwWCECJk7UpOIlaiD+qtqDqdbcz5O8l+fcvOPfIW3C034a5u4syq1lua1Cb1AQ+bsxGa2ESu3H0cWM680A/q2rV+pFtMcWN/8nppGQSzmk2ysi+GqQc2QPd91ngOJ6rdaGhL6GdCsYS6xIQ==","691f8ca61c6b4dcbb0aeb5f4","691fbd7668eae1cd9472735b","index1","<span style='color:red'>Fail,<span style='color:red'>Fail,<span style='color:green'>Lift,<span style='color:green'>Lift,<span style='color:red'>Fail,<span style='color:red'>Fail,<span style='color:red'>Fail,<span style='color:red'>Fail,<span style='color:red'>Fail,<span style='color:green'>Lift,<span style='color:green'>Lift,<span style='color:red'>Fail","<span style='color:red'>Fail,<span style='color:red'>Fail,<span style='color:green'>Lift,<span style='color:green'>Lift,<span style='color:green'>Lift,<span style='color:green'>Lift,<span style='color:green'>Lift,<span style='color:red'>Fail,<span style='color:green'>Lift,<span style='color:green'>Lift,<span style='color:green'>Lift,<span style='color:red'>Fail","<span style='color:red'>Fail,<span style='color:green'>Lift,<span style='color:green'>Lift,<span style='color:red'>Fail,<span style='color:green'>Lift,<span style='color:green'>Lift","0,0,1,1,0,0,0,0,0,1,1,0","0,0,1,1,1,1,1,0,1,1,1,0","0,1,1,0,1,1",10,20,20,"","","","","{""box1"":""10"",""box2"":""5""}","",6,"round2_ready",2,6,2,NA,NA,NA,NA,NA,NA,NA,NA,NA,NA,NA,NA,NA,NA,10,5,10,5,NA,NA,NA,NA,NA,NA,NA,NA,NA,NA,NA,NA,NA,NA,NA,NA,NA,NA,"",NA,NA,NA,NA,NA,NA,NA,NA,NA,2025-11-21 01:35:08
"20596.70000001788","https://psyc-201.github.io/xiang2023/exp/index1.html?PROLIFIC_PID=REDACTED&STUDY_ID=691f8ca61c6b4dcbb0aeb5f4&SESSION_ID=691fbd7668eae1cd9472735b","survey-html-form",40,889487,"0.0-355.0","XMYO/OyQKtZwULJCetirOv/TiVdRhZBdly1IRQR3HIrt0szdolT8rdMHiPkYPP5YUf2Ib6FXMmZdPoOYAktnstRPRGl6eb/FGimftf43aNeAeuaFgGhO3KLXBhhLrKosjhol2L86FaiGZdej1hBdAioDUqB0pV1Ys5JvZZNz+mZTGgPA9TyXu6Bu6eijp/RqpiaEQGcAwWCECJk7UpOIlaiD+qtqDqdbcz5O8l+fcvOPfIW3C034a5u4syq1lua1Cb1AQ+bsxGa2ESu3H0cWM680A/q2rV+pFtMcWN/8nppGQSzmk2ysi+GqQc2QPd91ngOJ6rdaGhL6GdCsYS6xIQ==","691f8ca61c6b4dcbb0aeb5f4","691fbd7668eae1cd9472735b","index1","<span style='color:red'>Fail,<span style='color:red'>Fail,<span style='color:green'>Lift,<span style='color:green'>Lift,<span style='color:red'>Fail,<span style='color:red'>Fail,<span style='color:red'>Fail,<span style='color:red'>Fail,<span style='color:red'>Fail,<span style='color:green'>Lift,<span style='color:green'>Lift,<span style='color:red'>Fail","<span style='color:red'>Fail,<span style='color:red'>Fail,<span style='color:green'>Lift,<span style='color:green'>Lift,<span style='color:green'>Lift,<span style='color:green'>Lift,<span style='color:green'>Lift,<span style='color:red'>Fail,<span style='color:green'>Lift,<span style='color:green'>Lift,<span style='color:green'>Lift,<span style='color:red'>Fail","<span style='color:red'>Fail,<span style='color:green'>Lift,<span style='color:green'>Lift,<span style='color:red'>Fail,<span style='color:green'>Lift,<span style='color:green'>Lift","0,0,1,1,0,0,0,0,0,1,1,0","0,0,1,1,1,1,1,0,1,1,1,0","0,1,1,0,1,1",10,20,20,"","","","","{""box1"":""8"",""box2"":""4"",""box3"":""10""}","",6,"round2_outcome",3,6,2,8,4,10,NA,1,0,20,NA,NA,NA,NA,NA,NA,NA,NA,NA,NA,NA,8,4,10,NA,1,0,20,NA,NA,NA,NA,NA,NA,NA,NA,NA,NA,NA,"",NA,NA,NA,NA,NA,NA,NA,NA,NA,2025-11-21 01:35:08
"7848.0999999940395","https://psyc-201.github.io/xiang2023/exp/index1.html?PROLIFIC_PID=REDACTED&STUDY_ID=691f8ca61c6b4dcbb0aeb5f4&SESSION_ID=691fbd7668eae1cd9472735b","survey-html-form",41,897337,"0.0-356.0","XMYO/OyQKtZwULJCetirOv/TiVdRhZBdly1IRQR3HIrt0szdolT8rdMHiPkYPP5YUf2Ib6FXMmZdPoOYAktnstRPRGl6eb/FGimftf43aNeAeuaFgGhO3KLXBhhLrKosjhol2L86FaiGZdej1hBdAioDUqB0pV1Ys5JvZZNz+mZTGgPA9TyXu6Bu6eijp/RqpiaEQGcAwWCECJk7UpOIlaiD+qtqDqdbcz5O8l+fcvOPfIW3C034a5u4syq1lua1Cb1AQ+bsxGa2ESu3H0cWM680A/q2rV+pFtMcWN/8nppGQSzmk2ysi+GqQc2QPd91ngOJ6rdaGhL6GdCsYS6xIQ==","691f8ca61c6b4dcbb0aeb5f4","691fbd7668eae1cd9472735b","index1","<span style='color:red'>Fail,<span style='color:red'>Fail,<span style='color:green'>Lift,<span style='color:green'>Lift,<span style='color:red'>Fail,<span style='color:red'>Fail,<span style='color:red'>Fail,<span style='color:red'>Fail,<span style='color:red'>Fail,<span style='color:green'>Lift,<span style='color:green'>Lift,<span style='color:red'>Fail","<span style='color:red'>Fail,<span style='color:red'>Fail,<span style='color:green'>Lift,<span style='color:green'>Lift,<span style='color:green'>Lift,<span style='color:green'>Lift,<span style='color:green'>Lift,<span style='color:red'>Fail,<span style='color:green'>Lift,<span style='color:green'>Lift,<span style='color:green'>Lift,<span style='color:red'>Fail","<span style='color:red'>Fail,<span style='color:green'>Lift,<span style='color:green'>Lift,<span style='color:red'>Fail,<span style='color:green'>Lift,<span style='color:green'>Lift","0,0,1,1,0,0,0,0,0,1,1,0","0,0,1,1,1,1,1,0,1,1,1,0","0,1,1,0,1,1",10,20,20,"","","","","{""box1"":""10""}","",6,"round3_ready",4,6,3,NA,NA,NA,NA,NA,NA,NA,NA,NA,NA,NA,NA,NA,NA,10,10,NA,NA,NA,NA,NA,NA,NA,NA,NA,10,10,NA,NA,NA,NA,NA,NA,NA,NA,NA,"",NA,NA,NA,NA,NA,NA,NA,NA,NA,2025-11-21 01:35:08
"28682","https://psyc-201.github.io/xiang2023/exp/index1.html?PROLIFIC_PID=REDACTED&STUDY_ID=691f8ca61c6b4dcbb0aeb5f4&SESSION_ID=691fbd7668eae1cd9472735b","survey-html-form",42,926021,"0.0-357.0-0.0","XMYO/OyQKtZwULJCetirOv/TiVdRhZBdly1IRQR3HIrt0szdolT8rdMHiPkYPP5YUf2Ib6FXMmZdPoOYAktnstRPRGl6eb/FGimftf43aNeAeuaFgGhO3KLXBhhLrKosjhol2L86FaiGZdej1hBdAioDUqB0pV1Ys5JvZZNz+mZTGgPA9TyXu6Bu6eijp/RqpiaEQGcAwWCECJk7UpOIlaiD+qtqDqdbcz5O8l+fcvOPfIW3C034a5u4syq1lua1Cb1AQ+bsxGa2ESu3H0cWM680A/q2rV+pFtMcWN/8nppGQSzmk2ysi+GqQc2QPd91ngOJ6rdaGhL6GdCsYS6xIQ==","691f8ca61c6b4dcbb0aeb5f4","691fbd7668eae1cd9472735b","index1","<span style='color:red'>Fail,<span style='color:red'>Fail,<span style='color:green'>Lift,<span style='color:green'>Lift,<span style='color:red'>Fail,<span style='color:red'>Fail,<span style='color:red'>Fail,<span style='color:red'>Fail,<span style='color:red'>Fail,<span style='color:green'>Lift,<span style='color:green'>Lift,<span style='color:red'>Fail","<span style='color:red'>Fail,<span style='color:red'>Fail,<span style='color:green'>Lift,<span style='color:green'>Lift,<span style='color:green'>Lift,<span style='color:green'>Lift,<span style='color:green'>Lift,<span style='color:red'>Fail,<span style='color:green'>Lift,<span style='color:green'>Lift,<span style='color:green'>Lift,<span style='color:red'>Fail","<span style='color:red'>Fail,<span style='color:green'>Lift,<span style='color:green'>Lift,<span style='color:red'>Fail,<span style='color:green'>Lift,<span style='color:green'>Lift","0,0,1,1,0,0,0,0,0,1,1,0","0,0,1,1,1,1,1,0,1,1,1,0","0,1,1,0,1,1",10,20,20,"","","","","{""box1"":""6"",""box2"":""4"",""box3"":""10"",""box4"":""10""}","",6,"round3_lift",5,6,3,6,4,10,10,1,1,20,NA,NA,NA,NA,NA,NA,NA,NA,NA,NA,NA,NA,NA,NA,NA,NA,NA,NA,NA,NA,6,4,10,10,1,1,20,NA,NA,"",NA,NA,NA,NA,NA,NA,NA,NA,NA,2025-11-21 01:35:08
"140948.10000002384","https://psyc-201.github.io/xiang2023/exp/index1.html?PROLIFIC_PID=REDACTED&STUDY_ID=691f8ca61c6b4dcbb0aeb5f4&SESSION_ID=691fbd7668eae1cd9472735b","survey-text",43,1066970,"0.0-361.0","XMYO/OyQKtZwULJCetirOv/TiVdRhZBdly1IRQR3HIrt0szdolT8rdMHiPkYPP5YUf2Ib6FXMmZdPoOYAktnstRPRGl6eb/FGimftf43aNeAeuaFgGhO3KLXBhhLrKosjhol2L86FaiGZdej1hBdAioDUqB0pV1Ys5JvZZNz+mZTGgPA9TyXu6Bu6eijp/RqpiaEQGcAwWCECJk7UpOIlaiD+qtqDqdbcz5O8l+fcvOPfIW3C034a5u4syq1lua1Cb1AQ+bsxGa2ESu3H0cWM680A/q2rV+pFtMcWN/8nppGQSzmk2ysi+GqQc2QPd91ngOJ6rdaGhL6GdCsYS6xIQ==","691f8ca61c6b4dcbb0aeb5f4","691fbd7668eae1cd9472735b","index1","<span style='color:red'>Fail,<span style='color:red'>Fail,<span style='color:green'>Lift,<span style='color:green'>Lift,<span style='color:red'>Fail,<span style='color:red'>Fail,<span style='color:red'>Fail,<span style='color:red'>Fail,<span style='color:red'>Fail,<span style='color:green'>Lift,<span style='color:green'>Lift,<span style='color:red'>Fail","<span style='color:red'>Fail,<span style='color:red'>Fail,<span style='color:green'>Lift,<span style='color:green'>Lift,<span style='color:green'>Lift,<span style='color:green'>Lift,<span style='color:green'>Lift,<span style='color:red'>Fail,<span style='color:green'>Lift,<span style='color:green'>Lift,<span style='color:green'>Lift,<span style='color:red'>Fail","<span style='color:red'>Fail,<span style='color:green'>Lift,<span style='color:green'>Lift,<span style='color:red'>Fail,<span style='color:green'>Lift,<span style='color:green'>Lift","0,0,1,1,0,0,0,0,0,1,1,0","0,0,1,1,1,1,1,0,1,1,1,0","0,1,1,0,1,1",10,20,20,"","","","","{""Q0"":""I have been guessing  how strong the two figures  are and if they will be able and want to lift the box. I also had to guess that, in the last round, if they will lift the box together.""}","",NA,"",NA,NA,NA,NA,NA,NA,NA,NA,NA,NA,NA,NA,NA,NA,NA,NA,NA,NA,NA,NA,NA,NA,NA,NA,NA,NA,NA,NA,NA,NA,NA,NA,NA,NA,NA,NA,NA,NA,NA,"",NA,NA,NA,NA,NA,NA,NA,NA,NA,2025-11-21 01:35:08
"13197","https://psyc-201.github.io/xiang2023/exp/index1.html?PROLIFIC_PID=REDACTED&STUDY_ID=691f8ca61c6b4dcbb0aeb5f4&SESSION_ID=691fbd7668eae1cd9472735b","survey-text",44,1080170,"0.0-362.0","XMYO/OyQKtZwULJCetirOv/TiVdRhZBdly1IRQR3HIrt0szdolT8rdMHiPkYPP5YUf2Ib6FXMmZdPoOYAktnstRPRGl6eb/FGimftf43aNeAeuaFgGhO3KLXBhhLrKosjhol2L86FaiGZdej1hBdAioDUqB0pV1Ys5JvZZNz+mZTGgPA9TyXu6Bu6eijp/RqpiaEQGcAwWCECJk7UpOIlaiD+qtqDqdbcz5O8l+fcvOPfIW3C034a5u4syq1lua1Cb1AQ+bsxGa2ESu3H0cWM680A/q2rV+pFtMcWN/8nppGQSzmk2ysi+GqQc2QPd91ngOJ6rdaGhL6GdCsYS6xIQ==","691f8ca61c6b4dcbb0aeb5f4","691fbd7668eae1cd9472735b","index1","<span style='color:red'>Fail,<span style='color:red'>Fail,<span style='color:green'>Lift,<span style='color:green'>Lift,<span style='color:red'>Fail,<span style='color:red'>Fail,<span style='color:red'>Fail,<span style='color:red'>Fail,<span style='color:red'>Fail,<span style='color:green'>Lift,<span style='color:green'>Lift,<span style='color:red'>Fail","<span style='color:red'>Fail,<span style='color:red'>Fail,<span style='color:green'>Lift,<span style='color:green'>Lift,<span style='color:green'>Lift,<span style='color:green'>Lift,<span style='color:green'>Lift,<span style='color:red'>Fail,<span style='color:green'>Lift,<span style='color:green'>Lift,<span style='color:green'>Lift,<span style='color:red'>Fail","<span style='color:red'>Fail,<span style='color:green'>Lift,<span style='color:green'>Lift,<span style='color:red'>Fail,<span style='color:green'>Lift,<span style='color:green'>Lift","0,0,1,1,0,0,0,0,0,1,1,0","0,0,1,1,1,1,1,0,1,1,1,0","0,1,1,0,1,1",10,20,20,"","","","","{""Q0"":""""}","",NA,"",NA,NA,NA,NA,NA,NA,NA,NA,NA,NA,NA,NA,NA,NA,NA,NA,NA,NA,NA,NA,NA,NA,NA,NA,NA,NA,NA,NA,NA,NA,NA,NA,NA,NA,NA,NA,NA,NA,NA,"[{""event"":""blur"",""trial"":0,""time"":21477},{""event"":""focus"",""trial"":0,""time"":21650},{""event"":""fullscreenenter"",""trial"":1,""time"":30059}]",3,2,1,5,0,0.95,NA,NA,NA,2025-11-21 01:35:08
"14429.5","https://psyc-201.github.io/xiang2023/exp/index1.html?PROLIFIC_PID=REDACTED&STUDY_ID=691f8ca61c6b4dcbb0aeb5f4&SESSION_ID=691fbd7668eae1cd9472735b","html-button-response",45,1094603,"0.0-363.0","XMYO/OyQKtZwULJCetirOv/TiVdRhZBdly1IRQR3HIrt0szdolT8rdMHiPkYPP5YUf2Ib6FXMmZdPoOYAktnstRPRGl6eb/FGimftf43aNeAeuaFgGhO3KLXBhhLrKosjhol2L86FaiGZdej1hBdAioDUqB0pV1Ys5JvZZNz+mZTGgPA9TyXu6Bu6eijp/RqpiaEQGcAwWCECJk7UpOIlaiD+qtqDqdbcz5O8l+fcvOPfIW3C034a5u4syq1lua1Cb1AQ+bsxGa2ESu3H0cWM680A/q2rV+pFtMcWN/8nppGQSzmk2ysi+GqQc2QPd91ngOJ6rdaGhL6GdCsYS6xIQ==","691f8ca61c6b4dcbb0aeb5f4","691fbd7668eae1cd9472735b","index1","<span style='color:red'>Fail,<span style='color:red'>Fail,<span style='color:green'>Lift,<span style='color:green'>Lift,<span style='color:red'>Fail,<span style='color:red'>Fail,<span style='color:red'>Fail,<span style='color:red'>Fail,<span style='color:red'>Fail,<span style='color:green'>Lift,<span style='color:green'>Lift,<span style='color:red'>Fail","<span style='color:red'>Fail,<span style='color:red'>Fail,<span style='color:green'>Lift,<span style='color:green'>Lift,<span style='color:green'>Lift,<span style='color:green'>Lift,<span style='color:green'>Lift,<span style='color:red'>Fail,<span style='color:green'>Lift,<span style='color:green'>Lift,<span style='color:green'>Lift,<span style='color:red'>Fail","<span style='color:red'>Fail,<span style='color:green'>Lift,<span style='color:green'>Lift,<span style='color:red'>Fail,<span style='color:green'>Lift,<span style='color:green'>Lift","0,0,1,1,0,0,0,0,0,1,1,0","0,0,1,1,1,1,1,0,1,1,1,0","0,1,1,0,1,1",10,20,20,"","","<p> We randomly picked <b>Contest 3, Round 2</b> to calculate your bonus. </p><p> The outcome of Contestant F on that round is <span style='color:red'>Fail</span>. </p><p> The probability you entered was 5. </p><p><b> You won a bonus of $0.95!</b></p><p> IMPORTANT: Please click 'Next' to complete the game.</p>","","","",NA,"",NA,NA,NA,NA,NA,NA,NA,NA,NA,NA,NA,NA,NA,NA,NA,NA,NA,NA,NA,NA,NA,NA,NA,NA,NA,NA,NA,NA,NA,NA,NA,NA,NA,NA,NA,NA,NA,NA,NA,"",NA,NA,NA,NA,NA,NA,0,2,1,2025-11-21 01:35:08
