"rt","url","trial_type","trial_index","time_elapsed","internal_node_id","encryptedProlificId","studyId","sessionId","expIndex","round1_outcomes","round2_outcomes","round3_outcomes","round1_o","round2_o","round3_o","round1_reward","round2_reward","round3_reward","success","view_history","stimulus","key_press","responses","question_order","j","Stage","stage","contest","round","strength_a","strength_b","effort_a","effort_b","outcome_a","outcome_b","reward","r1_strength_a","r1_strength_b","r1_effort_a","r1_effort_b","r1_outcome_a","r1_outcome_b","r1_reward","probability_a","probability_b","r2_prob_a","r2_prob_b","r2_strength_a","r2_strength_b","r2_effort_a","r2_effort_b","r2_outcome_a","r2_outcome_b","r2_reward","r3_prob_a","r3_prob_b","attention_check","count","r3_strength_a","r3_strength_b","r3_outcome_a","r3_outcome_b","r3_reward","r3_effort_a","r3_effort_b","screen","pick_contest","pick_round","pick_side","trial_probability","trial_outcome","bonus","button_pressed","attention_sum","attention","datapipe_meta.attributes.date_modified"
"5710.4000000059605","https://psyc-201.github.io/xiang2023/exp/index1.html?PROLIFIC_PID=REDACTED&STUDY_ID=691f8ca61c6b4dcbb0aeb5f4&SESSION_ID=691fb5a2979be4775b0b15f4","external-html",0,5802,"0.0-0.0","dFoKsFIT33mCiq7ZihZGdQWNVOAlbf7X/dPYrMGD0A0+/VmzxRLFt+dSjR7bjbB3q8OXIr9WTyWCxkRtBX5BX2nTAEtqv/44aSn8gNxU+rW5vqYxajALPje/FUVll5OKLf53Jn41mRWBYjOIBTJEF39hAoA7eaGNp/jqBI2T1FzxFlFoX1lvpDpjzigd3/K8ShLWxzy8oN63ZE4xxY0wxDvLny8EPDxfqNePHfSqOMXa2JbZbrRwIkS67n8TW4dEtc7vH8McUGM26G2f7Lp+DuAAtwjJEc91bsCPmcxoFR4ar5W56Y0V+WWtVZg9VJoKdK516EZAQp2OtTrHU/oF7w==","691f8ca61c6b4dcbb0aeb5f4","691fb5a2979be4775b0b15f4","index1","<span style='color:red'>Fail,<span style='color:red'>Fail,<span style='color:green'>Lift,<span style='color:green'>Lift,<span style='color:red'>Fail,<span style='color:red'>Fail,<span style='color:red'>Fail,<span style='color:red'>Fail,<span style='color:green'>Lift,<span style='color:red'>Fail,<span style='color:red'>Fail,<span style='color:green'>Lift","<span style='color:red'>Fail,<span style='color:red'>Fail,<span style='color:green'>Lift,<span style='color:green'>Lift,<span style='color:green'>Lift,<span style='color:green'>Lift,<span style='color:green'>Lift,<span style='color:red'>Fail,<span style='color:green'>Lift,<span style='color:green'>Lift,<span style='color:red'>Fail,<span style='color:green'>Lift","<span style='color:red'>Fail,<span style='color:green'>Lift,<span style='color:green'>Lift,<span style='color:red'>Fail,<span style='color:green'>Lift,<span style='color:green'>Lift","0,0,1,1,0,0,0,0,1,0,0,1","0,0,1,1,1,1,1,0,1,1,0,1","0,1,1,0,1,1",10,20,20,"","","","","","",NA,"",NA,NA,NA,NA,NA,NA,NA,NA,NA,NA,NA,NA,NA,NA,NA,NA,NA,NA,NA,NA,NA,NA,NA,NA,NA,NA,NA,NA,NA,NA,NA,NA,NA,NA,NA,NA,NA,NA,NA,"",NA,NA,NA,NA,NA,NA,NA,NA,NA,2025-11-21 01:29:02
"","https://psyc-201.github.io/xiang2023/exp/index1.html?PROLIFIC_PID=REDACTED&STUDY_ID=691f8ca61c6b4dcbb0aeb5f4&SESSION_ID=691fb5a2979be4775b0b15f4","fullscreen",1,35603,"0.0-1.0","dFoKsFIT33mCiq7ZihZGdQWNVOAlbf7X/dPYrMGD0A0+/VmzxRLFt+dSjR7bjbB3q8OXIr9WTyWCxkRtBX5BX2nTAEtqv/44aSn8gNxU+rW5vqYxajALPje/FUVll5OKLf53Jn41mRWBYjOIBTJEF39hAoA7eaGNp/jqBI2T1FzxFlFoX1lvpDpjzigd3/K8ShLWxzy8oN63ZE4xxY0wxDvLny8EPDxfqNePHfSqOMXa2JbZbrRwIkS67n8TW4dEtc7vH8McUGM26G2f7Lp+DuAAtwjJEc91bsCPmcxoFR4ar5W56Y0V+WWtVZg9VJoKdK516EZAQp2OtTrHU/oF7w==","691f8ca61c6b4dcbb0aeb5f4","691fb5a2979be4775b0b15f4","index1","<span style='color:red'>Fail,<span style='color:red'>Fail,<span style='color:green'>Lift,<span style='color:green'>Lift,<span style='color:red'>Fail,<span style='color:red'>Fail,<span style='color:red'>Fail,<span style='color:red'>Fail,<span style='color:green'>Lift,<span style='color:red'>Fail,<span style='color:red'>Fail,<span style='color:green'>Lift","<span style='color:red'>Fail,<span style='color:red'>Fail,<span style='color:green'>Lift,<span style='color:green'>Lift,<span style='color:green'>Lift,<span style='color:green'>Lift,<span style='color:green'>Lift,<span style='color:red'>Fail,<span style='color:green'>Lift,<span style='color:green'>Lift,<span style='color:red'>Fail,<span style='color:green'>Lift","<span style='color:red'>Fail,<span style='color:green'>Lift,<span style='color:green'>Lift,<span style='color:red'>Fail,<span style='color:green'>Lift,<span style='color:green'>Lift","0,0,1,1,0,0,0,0,1,0,0,1","0,0,1,1,1,1,1,0,1,1,0,1","0,1,1,0,1,1",10,20,20,"true","","","","","",NA,"",NA,NA,NA,NA,NA,NA,NA,NA,NA,NA,NA,NA,NA,NA,NA,NA,NA,NA,NA,NA,NA,NA,NA,NA,NA,NA,NA,NA,NA,NA,NA,NA,NA,NA,NA,NA,NA,NA,NA,"",NA,NA,NA,NA,NA,NA,NA,NA,NA,2025-11-21 01:29:02
"362274.90000000596","https://psyc-201.github.io/xiang2023/exp/index1.html?PROLIFIC_PID=REDACTED&STUDY_ID=691f8ca61c6b4dcbb0aeb5f4&SESSION_ID=691fb5a2979be4775b0b15f4","instructions",2,397881,"0.0-2.0","dFoKsFIT33mCiq7ZihZGdQWNVOAlbf7X/dPYrMGD0A0+/VmzxRLFt+dSjR7bjbB3q8OXIr9WTyWCxkRtBX5BX2nTAEtqv/44aSn8gNxU+rW5vqYxajALPje/FUVll5OKLf53Jn41mRWBYjOIBTJEF39hAoA7eaGNp/jqBI2T1FzxFlFoX1lvpDpjzigd3/K8ShLWxzy8oN63ZE4xxY0wxDvLny8EPDxfqNePHfSqOMXa2JbZbrRwIkS67n8TW4dEtc7vH8McUGM26G2f7Lp+DuAAtwjJEc91bsCPmcxoFR4ar5W56Y0V+WWtVZg9VJoKdK516EZAQp2OtTrHU/oF7w==","691f8ca61c6b4dcbb0aeb5f4","691fb5a2979be4775b0b15f4","index1","<span style='color:red'>Fail,<span style='color:red'>Fail,<span style='color:green'>Lift,<span style='color:green'>Lift,<span style='color:red'>Fail,<span style='color:red'>Fail,<span style='color:red'>Fail,<span style='color:red'>Fail,<span style='color:green'>Lift,<span style='color:red'>Fail,<span style='color:red'>Fail,<span style='color:green'>Lift","<span style='color:red'>Fail,<span style='color:red'>Fail,<span style='color:green'>Lift,<span style='color:green'>Lift,<span style='color:green'>Lift,<span style='color:green'>Lift,<span style='color:green'>Lift,<span style='color:red'>Fail,<span style='color:green'>Lift,<span style='color:green'>Lift,<span style='color:red'>Fail,<span style='color:green'>Lift","<span style='color:red'>Fail,<span style='color:green'>Lift,<span style='color:green'>Lift,<span style='color:red'>Fail,<span style='color:green'>Lift,<span style='color:green'>Lift","0,0,1,1,0,0,0,0,1,0,0,1","0,0,1,1,1,1,1,0,1,1,0,1","0,1,1,0,1,1",10,20,20,"","[{""page_index"":0,""viewing_time"":84498.80000001192},{""page_index"":1,""viewing_time"":92288.19999998808},{""page_index"":2,""viewing_time"":30071.30000001192},{""page_index"":3,""viewing_time"":66176.30000001192},{""page_index"":4,""viewing_time"":24143.09999999404},{""page_index"":5,""viewing_time"":46400.5},{""page_index"":6,""viewing_time"":18696.09999999404}]","","","","",NA,"",NA,NA,NA,NA,NA,NA,NA,NA,NA,NA,NA,NA,NA,NA,NA,NA,NA,NA,NA,NA,NA,NA,NA,NA,NA,NA,NA,NA,NA,NA,NA,NA,NA,NA,NA,NA,NA,NA,NA,"",NA,NA,NA,NA,NA,NA,NA,NA,NA,2025-11-21 01:29:02
"null","https://psyc-201.github.io/xiang2023/exp/index1.html?PROLIFIC_PID=REDACTED&STUDY_ID=691f8ca61c6b4dcbb0aeb5f4&SESSION_ID=691fb5a2979be4775b0b15f4","html-keyboard-response",3,398895,"0.0-3.0","dFoKsFIT33mCiq7ZihZGdQWNVOAlbf7X/dPYrMGD0A0+/VmzxRLFt+dSjR7bjbB3q8OXIr9WTyWCxkRtBX5BX2nTAEtqv/44aSn8gNxU+rW5vqYxajALPje/FUVll5OKLf53Jn41mRWBYjOIBTJEF39hAoA7eaGNp/jqBI2T1FzxFlFoX1lvpDpjzigd3/K8ShLWxzy8oN63ZE4xxY0wxDvLny8EPDxfqNePHfSqOMXa2JbZbrRwIkS67n8TW4dEtc7vH8McUGM26G2f7Lp+DuAAtwjJEc91bsCPmcxoFR4ar5W56Y0V+WWtVZg9VJoKdK516EZAQp2OtTrHU/oF7w==","691f8ca61c6b4dcbb0aeb5f4","691fb5a2979be4775b0b15f4","index1","<span style='color:red'>Fail,<span style='color:red'>Fail,<span style='color:green'>Lift,<span style='color:green'>Lift,<span style='color:red'>Fail,<span style='color:red'>Fail,<span style='color:red'>Fail,<span style='color:red'>Fail,<span style='color:green'>Lift,<span style='color:red'>Fail,<span style='color:red'>Fail,<span style='color:green'>Lift","<span style='color:red'>Fail,<span style='color:red'>Fail,<span style='color:green'>Lift,<span style='color:green'>Lift,<span style='color:green'>Lift,<span style='color:green'>Lift,<span style='color:green'>Lift,<span style='color:red'>Fail,<span style='color:green'>Lift,<span style='color:green'>Lift,<span style='color:red'>Fail,<span style='color:green'>Lift","<span style='color:red'>Fail,<span style='color:green'>Lift,<span style='color:green'>Lift,<span style='color:red'>Fail,<span style='color:green'>Lift,<span style='color:green'>Lift","0,0,1,1,0,0,0,0,1,0,0,1","0,0,1,1,1,1,1,0,1,1,0,1","0,1,1,0,1,1",10,20,20,"",""," ","null","","",NA,"",NA,NA,NA,NA,NA,NA,NA,NA,NA,NA,NA,NA,NA,NA,NA,NA,NA,NA,NA,NA,NA,NA,NA,NA,NA,NA,NA,NA,NA,NA,NA,NA,NA,NA,NA,NA,NA,NA,NA,"",NA,NA,NA,NA,NA,NA,NA,NA,NA,2025-11-21 01:29:02
"106440.90000000596","https://psyc-201.github.io/xiang2023/exp/index1.html?PROLIFIC_PID=REDACTED&STUDY_ID=691f8ca61c6b4dcbb0aeb5f4&SESSION_ID=691fb5a2979be4775b0b15f4","survey-multi-choice",4,505338,"0.0-4.0","dFoKsFIT33mCiq7ZihZGdQWNVOAlbf7X/dPYrMGD0A0+/VmzxRLFt+dSjR7bjbB3q8OXIr9WTyWCxkRtBX5BX2nTAEtqv/44aSn8gNxU+rW5vqYxajALPje/FUVll5OKLf53Jn41mRWBYjOIBTJEF39hAoA7eaGNp/jqBI2T1FzxFlFoX1lvpDpjzigd3/K8ShLWxzy8oN63ZE4xxY0wxDvLny8EPDxfqNePHfSqOMXa2JbZbrRwIkS67n8TW4dEtc7vH8McUGM26G2f7Lp+DuAAtwjJEc91bsCPmcxoFR4ar5W56Y0V+WWtVZg9VJoKdK516EZAQp2OtTrHU/oF7w==","691f8ca61c6b4dcbb0aeb5f4","691fb5a2979be4775b0b15f4","index1","<span style='color:red'>Fail,<span style='color:red'>Fail,<span style='color:green'>Lift,<span style='color:green'>Lift,<span style='color:red'>Fail,<span style='color:red'>Fail,<span style='color:red'>Fail,<span style='color:red'>Fail,<span style='color:green'>Lift,<span style='color:red'>Fail,<span style='color:red'>Fail,<span style='color:green'>Lift","<span style='color:red'>Fail,<span style='color:red'>Fail,<span style='color:green'>Lift,<span style='color:green'>Lift,<span style='color:green'>Lift,<span style='color:green'>Lift,<span style='color:green'>Lift,<span style='color:red'>Fail,<span style='color:green'>Lift,<span style='color:green'>Lift,<span style='color:red'>Fail,<span style='color:green'>Lift","<span style='color:red'>Fail,<span style='color:green'>Lift,<span style='color:green'>Lift,<span style='color:red'>Fail,<span style='color:green'>Lift,<span style='color:green'>Lift","0,0,1,1,0,0,0,0,1,0,0,1","0,0,1,1,1,1,1,0,1,1,0,1","0,1,1,0,1,1",10,20,20,"","","","","{""Q0"":""It consists of multiple contests, each contest with three rounds."",""Q1"":""When a new contest begins."",""Q2"":""The box weight always stays the same (equivalent to strength of 5)."",""Q3"":""Each will get $20."",""Q4"":""How close my guesses are to the actual outcome.""}","[0,1,2,3,4]",NA,"",NA,NA,NA,NA,NA,NA,NA,NA,NA,NA,NA,NA,NA,NA,NA,NA,NA,NA,NA,NA,NA,NA,NA,NA,NA,NA,NA,NA,NA,NA,NA,NA,NA,NA,NA,NA,NA,NA,NA,"",NA,NA,NA,NA,NA,NA,NA,NA,NA,2025-11-21 01:29:02
"33362.69999998808","https://psyc-201.github.io/xiang2023/exp/index1.html?PROLIFIC_PID=REDACTED&STUDY_ID=691f8ca61c6b4dcbb0aeb5f4&SESSION_ID=691fb5a2979be4775b0b15f4","instructions",5,538704,"0.0-305.0","dFoKsFIT33mCiq7ZihZGdQWNVOAlbf7X/dPYrMGD0A0+/VmzxRLFt+dSjR7bjbB3q8OXIr9WTyWCxkRtBX5BX2nTAEtqv/44aSn8gNxU+rW5vqYxajALPje/FUVll5OKLf53Jn41mRWBYjOIBTJEF39hAoA7eaGNp/jqBI2T1FzxFlFoX1lvpDpjzigd3/K8ShLWxzy8oN63ZE4xxY0wxDvLny8EPDxfqNePHfSqOMXa2JbZbrRwIkS67n8TW4dEtc7vH8McUGM26G2f7Lp+DuAAtwjJEc91bsCPmcxoFR4ar5W56Y0V+WWtVZg9VJoKdK516EZAQp2OtTrHU/oF7w==","691f8ca61c6b4dcbb0aeb5f4","691fb5a2979be4775b0b15f4","index1","<span style='color:red'>Fail,<span style='color:red'>Fail,<span style='color:green'>Lift,<span style='color:green'>Lift,<span style='color:red'>Fail,<span style='color:red'>Fail,<span style='color:red'>Fail,<span style='color:red'>Fail,<span style='color:green'>Lift,<span style='color:red'>Fail,<span style='color:red'>Fail,<span style='color:green'>Lift","<span style='color:red'>Fail,<span style='color:red'>Fail,<span style='color:green'>Lift,<span style='color:green'>Lift,<span style='color:green'>Lift,<span style='color:green'>Lift,<span style='color:green'>Lift,<span style='color:red'>Fail,<span style='color:green'>Lift,<span style='color:green'>Lift,<span style='color:red'>Fail,<span style='color:green'>Lift","<span style='color:red'>Fail,<span style='color:green'>Lift,<span style='color:green'>Lift,<span style='color:red'>Fail,<span style='color:green'>Lift,<span style='color:green'>Lift","0,0,1,1,0,0,0,0,1,0,0,1","0,0,1,1,1,1,1,0,1,1,0,1","0,1,1,0,1,1",10,20,20,"","[{""page_index"":0,""viewing_time"":23090.59999999404},{""page_index"":1,""viewing_time"":10271.90000000596}]","","","","",NA,"",NA,NA,NA,NA,NA,NA,NA,NA,NA,NA,NA,NA,NA,NA,NA,NA,NA,NA,NA,NA,NA,NA,NA,NA,NA,NA,NA,NA,NA,NA,NA,NA,NA,NA,NA,NA,NA,NA,NA,"",NA,NA,NA,NA,NA,NA,NA,NA,NA,2025-11-21 01:29:02
"null","https://psyc-201.github.io/xiang2023/exp/index1.html?PROLIFIC_PID=REDACTED&STUDY_ID=691f8ca61c6b4dcbb0aeb5f4&SESSION_ID=691fb5a2979be4775b0b15f4","html-keyboard-response",6,539713,"0.0-306.0","dFoKsFIT33mCiq7ZihZGdQWNVOAlbf7X/dPYrMGD0A0+/VmzxRLFt+dSjR7bjbB3q8OXIr9WTyWCxkRtBX5BX2nTAEtqv/44aSn8gNxU+rW5vqYxajALPje/FUVll5OKLf53Jn41mRWBYjOIBTJEF39hAoA7eaGNp/jqBI2T1FzxFlFoX1lvpDpjzigd3/K8ShLWxzy8oN63ZE4xxY0wxDvLny8EPDxfqNePHfSqOMXa2JbZbrRwIkS67n8TW4dEtc7vH8McUGM26G2f7Lp+DuAAtwjJEc91bsCPmcxoFR4ar5W56Y0V+WWtVZg9VJoKdK516EZAQp2OtTrHU/oF7w==","691f8ca61c6b4dcbb0aeb5f4","691fb5a2979be4775b0b15f4","index1","<span style='color:red'>Fail,<span style='color:red'>Fail,<span style='color:green'>Lift,<span style='color:green'>Lift,<span style='color:red'>Fail,<span style='color:red'>Fail,<span style='color:red'>Fail,<span style='color:red'>Fail,<span style='color:green'>Lift,<span style='color:red'>Fail,<span style='color:red'>Fail,<span style='color:green'>Lift","<span style='color:red'>Fail,<span style='color:red'>Fail,<span style='color:green'>Lift,<span style='color:green'>Lift,<span style='color:green'>Lift,<span style='color:green'>Lift,<span style='color:green'>Lift,<span style='color:red'>Fail,<span style='color:green'>Lift,<span style='color:green'>Lift,<span style='color:red'>Fail,<span style='color:green'>Lift","<span style='color:red'>Fail,<span style='color:green'>Lift,<span style='color:green'>Lift,<span style='color:red'>Fail,<span style='color:green'>Lift,<span style='color:green'>Lift","0,0,1,1,0,0,0,0,1,0,0,1","0,0,1,1,1,1,1,0,1,1,0,1","0,1,1,0,1,1",10,20,20,"",""," ","null","","",1,"",NA,NA,NA,NA,NA,NA,NA,NA,NA,NA,NA,NA,NA,NA,NA,NA,NA,NA,NA,NA,NA,NA,NA,NA,NA,NA,NA,NA,NA,NA,NA,NA,NA,NA,NA,NA,NA,NA,NA,"",NA,NA,NA,NA,NA,NA,NA,NA,NA,2025-11-21 01:29:02
"null","https://psyc-201.github.io/xiang2023/exp/index1.html?PROLIFIC_PID=REDACTED&STUDY_ID=691f8ca61c6b4dcbb0aeb5f4&SESSION_ID=691fb5a2979be4775b0b15f4","html-keyboard-response",7,542715,"0.0-307.0","dFoKsFIT33mCiq7ZihZGdQWNVOAlbf7X/dPYrMGD0A0+/VmzxRLFt+dSjR7bjbB3q8OXIr9WTyWCxkRtBX5BX2nTAEtqv/44aSn8gNxU+rW5vqYxajALPje/FUVll5OKLf53Jn41mRWBYjOIBTJEF39hAoA7eaGNp/jqBI2T1FzxFlFoX1lvpDpjzigd3/K8ShLWxzy8oN63ZE4xxY0wxDvLny8EPDxfqNePHfSqOMXa2JbZbrRwIkS67n8TW4dEtc7vH8McUGM26G2f7Lp+DuAAtwjJEc91bsCPmcxoFR4ar5W56Y0V+WWtVZg9VJoKdK516EZAQp2OtTrHU/oF7w==","691f8ca61c6b4dcbb0aeb5f4","691fb5a2979be4775b0b15f4","index1","<span style='color:red'>Fail,<span style='color:red'>Fail,<span style='color:green'>Lift,<span style='color:green'>Lift,<span style='color:red'>Fail,<span style='color:red'>Fail,<span style='color:red'>Fail,<span style='color:red'>Fail,<span style='color:green'>Lift,<span style='color:red'>Fail,<span style='color:red'>Fail,<span style='color:green'>Lift","<span style='color:red'>Fail,<span style='color:red'>Fail,<span style='color:green'>Lift,<span style='color:green'>Lift,<span style='color:green'>Lift,<span style='color:green'>Lift,<span style='color:green'>Lift,<span style='color:red'>Fail,<span style='color:green'>Lift,<span style='color:green'>Lift,<span style='color:red'>Fail,<span style='color:green'>Lift","<span style='color:red'>Fail,<span style='color:green'>Lift,<span style='color:green'>Lift,<span style='color:red'>Fail,<span style='color:green'>Lift,<span style='color:green'>Lift","0,0,1,1,0,0,0,0,1,0,0,1","0,0,1,1,1,1,1,0,1,1,0,1","0,1,1,0,1,1",10,20,20,"","","<p style='font-size:30px'><b> New Contest! </b></p>","null","","",1,"",NA,NA,NA,NA,NA,NA,NA,NA,NA,NA,NA,NA,NA,NA,NA,NA,NA,NA,NA,NA,NA,NA,NA,NA,NA,NA,NA,NA,NA,NA,NA,NA,NA,NA,NA,NA,NA,NA,NA,"",NA,NA,NA,NA,NA,NA,NA,NA,NA,2025-11-21 01:29:02
"51059.90000000596","https://psyc-201.github.io/xiang2023/exp/index1.html?PROLIFIC_PID=REDACTED&STUDY_ID=691f8ca61c6b4dcbb0aeb5f4&SESSION_ID=691fb5a2979be4775b0b15f4","survey-html-form",8,593777,"0.0-308.0","dFoKsFIT33mCiq7ZihZGdQWNVOAlbf7X/dPYrMGD0A0+/VmzxRLFt+dSjR7bjbB3q8OXIr9WTyWCxkRtBX5BX2nTAEtqv/44aSn8gNxU+rW5vqYxajALPje/FUVll5OKLf53Jn41mRWBYjOIBTJEF39hAoA7eaGNp/jqBI2T1FzxFlFoX1lvpDpjzigd3/K8ShLWxzy8oN63ZE4xxY0wxDvLny8EPDxfqNePHfSqOMXa2JbZbrRwIkS67n8TW4dEtc7vH8McUGM26G2f7Lp+DuAAtwjJEc91bsCPmcxoFR4ar5W56Y0V+WWtVZg9VJoKdK516EZAQp2OtTrHU/oF7w==","691f8ca61c6b4dcbb0aeb5f4","691fb5a2979be4775b0b15f4","index1","<span style='color:red'>Fail,<span style='color:red'>Fail,<span style='color:green'>Lift,<span style='color:green'>Lift,<span style='color:red'>Fail,<span style='color:red'>Fail,<span style='color:red'>Fail,<span style='color:red'>Fail,<span style='color:green'>Lift,<span style='color:red'>Fail,<span style='color:red'>Fail,<span style='color:green'>Lift","<span style='color:red'>Fail,<span style='color:red'>Fail,<span style='color:green'>Lift,<span style='color:green'>Lift,<span style='color:green'>Lift,<span style='color:green'>Lift,<span style='color:green'>Lift,<span style='color:red'>Fail,<span style='color:green'>Lift,<span style='color:green'>Lift,<span style='color:red'>Fail,<span style='color:green'>Lift","<span style='color:red'>Fail,<span style='color:green'>Lift,<span style='color:green'>Lift,<span style='color:red'>Fail,<span style='color:green'>Lift,<span style='color:green'>Lift","0,0,1,1,0,0,0,0,1,0,0,1","0,0,1,1,1,1,1,0,1,1,0,1","0,1,1,0,1,1",10,20,20,"","","","","{""box1"":""4"",""box2"":""4""}","",1,"round1_outcome",1,1,1,4,4,NA,NA,0,0,10,4,4,NA,NA,0,0,10,NA,NA,NA,NA,NA,NA,NA,NA,NA,NA,NA,NA,NA,NA,NA,NA,NA,NA,NA,NA,NA,NA,"",NA,NA,NA,NA,NA,NA,NA,NA,NA,2025-11-21 01:29:02
"55614.40000000596","https://psyc-201.github.io/xiang2023/exp/index1.html?PROLIFIC_PID=REDACTED&STUDY_ID=691f8ca61c6b4dcbb0aeb5f4&SESSION_ID=691fb5a2979be4775b0b15f4","survey-html-form",9,649393,"0.0-309.0","dFoKsFIT33mCiq7ZihZGdQWNVOAlbf7X/dPYrMGD0A0+/VmzxRLFt+dSjR7bjbB3q8OXIr9WTyWCxkRtBX5BX2nTAEtqv/44aSn8gNxU+rW5vqYxajALPje/FUVll5OKLf53Jn41mRWBYjOIBTJEF39hAoA7eaGNp/jqBI2T1FzxFlFoX1lvpDpjzigd3/K8ShLWxzy8oN63ZE4xxY0wxDvLny8EPDxfqNePHfSqOMXa2JbZbrRwIkS67n8TW4dEtc7vH8McUGM26G2f7Lp+DuAAtwjJEc91bsCPmcxoFR4ar5W56Y0V+WWtVZg9VJoKdK516EZAQp2OtTrHU/oF7w==","691f8ca61c6b4dcbb0aeb5f4","691fb5a2979be4775b0b15f4","index1","<span style='color:red'>Fail,<span style='color:red'>Fail,<span style='color:green'>Lift,<span style='color:green'>Lift,<span style='color:red'>Fail,<span style='color:red'>Fail,<span style='color:red'>Fail,<span style='color:red'>Fail,<span style='color:green'>Lift,<span style='color:red'>Fail,<span style='color:red'>Fail,<span style='color:green'>Lift","<span style='color:red'>Fail,<span style='color:red'>Fail,<span style='color:green'>Lift,<span style='color:green'>Lift,<span style='color:green'>Lift,<span style='color:green'>Lift,<span style='color:green'>Lift,<span style='color:red'>Fail,<span style='color:green'>Lift,<span style='color:green'>Lift,<span style='color:red'>Fail,<span style='color:green'>Lift","<span style='color:red'>Fail,<span style='color:green'>Lift,<span style='color:green'>Lift,<span style='color:red'>Fail,<span style='color:green'>Lift,<span style='color:green'>Lift","0,0,1,1,0,0,0,0,1,0,0,1","0,0,1,1,1,1,1,0,1,1,0,1","0,1,1,0,1,1",10,20,20,"","","","","{""box1"":""75"",""box2"":""75""}","",1,"round2_ready",2,1,2,NA,NA,NA,NA,NA,NA,NA,NA,NA,NA,NA,NA,NA,NA,75,75,75,75,NA,NA,NA,NA,NA,NA,NA,NA,NA,NA,NA,NA,NA,NA,NA,NA,NA,NA,"",NA,NA,NA,NA,NA,NA,NA,NA,NA,2025-11-21 01:29:02
"27229.90000000596","https://psyc-201.github.io/xiang2023/exp/index1.html?PROLIFIC_PID=REDACTED&STUDY_ID=691f8ca61c6b4dcbb0aeb5f4&SESSION_ID=691fb5a2979be4775b0b15f4","survey-html-form",10,676625,"0.0-310.0","dFoKsFIT33mCiq7ZihZGdQWNVOAlbf7X/dPYrMGD0A0+/VmzxRLFt+dSjR7bjbB3q8OXIr9WTyWCxkRtBX5BX2nTAEtqv/44aSn8gNxU+rW5vqYxajALPje/FUVll5OKLf53Jn41mRWBYjOIBTJEF39hAoA7eaGNp/jqBI2T1FzxFlFoX1lvpDpjzigd3/K8ShLWxzy8oN63ZE4xxY0wxDvLny8EPDxfqNePHfSqOMXa2JbZbrRwIkS67n8TW4dEtc7vH8McUGM26G2f7Lp+DuAAtwjJEc91bsCPmcxoFR4ar5W56Y0V+WWtVZg9VJoKdK516EZAQp2OtTrHU/oF7w==","691f8ca61c6b4dcbb0aeb5f4","691fb5a2979be4775b0b15f4","index1","<span style='color:red'>Fail,<span style='color:red'>Fail,<span style='color:green'>Lift,<span style='color:green'>Lift,<span style='color:red'>Fail,<span style='color:red'>Fail,<span style='color:red'>Fail,<span style='color:red'>Fail,<span style='color:green'>Lift,<span style='color:red'>Fail,<span style='color:red'>Fail,<span style='color:green'>Lift","<span style='color:red'>Fail,<span style='color:red'>Fail,<span style='color:green'>Lift,<span style='color:green'>Lift,<span style='color:green'>Lift,<span style='color:green'>Lift,<span style='color:green'>Lift,<span style='color:red'>Fail,<span style='color:green'>Lift,<span style='color:green'>Lift,<span style='color:red'>Fail,<span style='color:green'>Lift","<span style='color:red'>Fail,<span style='color:green'>Lift,<span style='color:green'>Lift,<span style='color:red'>Fail,<span style='color:green'>Lift,<span style='color:green'>Lift","0,0,1,1,0,0,0,0,1,0,0,1","0,0,1,1,1,1,1,0,1,1,0,1","0,1,1,0,1,1",10,20,20,"","","","","{""box1"":""3"",""box2"":""3""}","",1,"round2_outcome",3,1,2,3,3,NA,NA,0,0,20,NA,NA,NA,NA,NA,NA,NA,NA,NA,NA,NA,3,3,NA,NA,0,0,20,NA,NA,NA,NA,NA,NA,NA,NA,NA,NA,NA,"",NA,NA,NA,NA,NA,NA,NA,NA,NA,2025-11-21 01:29:02
"45445.70000001788","https://psyc-201.github.io/xiang2023/exp/index1.html?PROLIFIC_PID=REDACTED&STUDY_ID=691f8ca61c6b4dcbb0aeb5f4&SESSION_ID=691fb5a2979be4775b0b15f4","survey-html-form",11,722072,"0.0-311.0","dFoKsFIT33mCiq7ZihZGdQWNVOAlbf7X/dPYrMGD0A0+/VmzxRLFt+dSjR7bjbB3q8OXIr9WTyWCxkRtBX5BX2nTAEtqv/44aSn8gNxU+rW5vqYxajALPje/FUVll5OKLf53Jn41mRWBYjOIBTJEF39hAoA7eaGNp/jqBI2T1FzxFlFoX1lvpDpjzigd3/K8ShLWxzy8oN63ZE4xxY0wxDvLny8EPDxfqNePHfSqOMXa2JbZbrRwIkS67n8TW4dEtc7vH8McUGM26G2f7Lp+DuAAtwjJEc91bsCPmcxoFR4ar5W56Y0V+WWtVZg9VJoKdK516EZAQp2OtTrHU/oF7w==","691f8ca61c6b4dcbb0aeb5f4","691fb5a2979be4775b0b15f4","index1","<span style='color:red'>Fail,<span style='color:red'>Fail,<span style='color:green'>Lift,<span style='color:green'>Lift,<span style='color:red'>Fail,<span style='color:red'>Fail,<span style='color:red'>Fail,<span style='color:red'>Fail,<span style='color:green'>Lift,<span style='color:red'>Fail,<span style='color:red'>Fail,<span style='color:green'>Lift","<span style='color:red'>Fail,<span style='color:red'>Fail,<span style='color:green'>Lift,<span style='color:green'>Lift,<span style='color:green'>Lift,<span style='color:green'>Lift,<span style='color:green'>Lift,<span style='color:red'>Fail,<span style='color:green'>Lift,<span style='color:green'>Lift,<span style='color:red'>Fail,<span style='color:green'>Lift","<span style='color:red'>Fail,<span style='color:green'>Lift,<span style='color:green'>Lift,<span style='color:red'>Fail,<span style='color:green'>Lift,<span style='color:green'>Lift","0,0,1,1,0,0,0,0,1,0,0,1","0,0,1,1,1,1,1,0,1,1,0,1","0,1,1,0,1,1",10,20,20,"","","","","{""box1"":""100""}","",1,"round3_ready",4,1,3,NA,NA,NA,NA,NA,NA,NA,NA,NA,NA,NA,NA,NA,NA,100,100,NA,NA,NA,NA,NA,NA,NA,NA,NA,100,100,NA,NA,NA,NA,NA,NA,NA,NA,NA,"",NA,NA,NA,NA,NA,NA,NA,NA,NA,2025-11-21 01:29:02
"58574.30000001192","https://psyc-201.github.io/xiang2023/exp/index1.html?PROLIFIC_PID=REDACTED&STUDY_ID=691f8ca61c6b4dcbb0aeb5f4&SESSION_ID=691fb5a2979be4775b0b15f4","survey-html-form",12,780649,"0.0-313.0-0.0","dFoKsFIT33mCiq7ZihZGdQWNVOAlbf7X/dPYrMGD0A0+/VmzxRLFt+dSjR7bjbB3q8OXIr9WTyWCxkRtBX5BX2nTAEtqv/44aSn8gNxU+rW5vqYxajALPje/FUVll5OKLf53Jn41mRWBYjOIBTJEF39hAoA7eaGNp/jqBI2T1FzxFlFoX1lvpDpjzigd3/K8ShLWxzy8oN63ZE4xxY0wxDvLny8EPDxfqNePHfSqOMXa2JbZbrRwIkS67n8TW4dEtc7vH8McUGM26G2f7Lp+DuAAtwjJEc91bsCPmcxoFR4ar5W56Y0V+WWtVZg9VJoKdK516EZAQp2OtTrHU/oF7w==","691f8ca61c6b4dcbb0aeb5f4","691fb5a2979be4775b0b15f4","index1","<span style='color:red'>Fail,<span style='color:red'>Fail,<span style='color:green'>Lift,<span style='color:green'>Lift,<span style='color:red'>Fail,<span style='color:red'>Fail,<span style='color:red'>Fail,<span style='color:red'>Fail,<span style='color:green'>Lift,<span style='color:red'>Fail,<span style='color:red'>Fail,<span style='color:green'>Lift","<span style='color:red'>Fail,<span style='color:red'>Fail,<span style='color:green'>Lift,<span style='color:green'>Lift,<span style='color:green'>Lift,<span style='color:green'>Lift,<span style='color:green'>Lift,<span style='color:red'>Fail,<span style='color:green'>Lift,<span style='color:green'>Lift,<span style='color:red'>Fail,<span style='color:green'>Lift","<span style='color:red'>Fail,<span style='color:green'>Lift,<span style='color:green'>Lift,<span style='color:red'>Fail,<span style='color:green'>Lift,<span style='color:green'>Lift","0,0,1,1,0,0,0,0,1,0,0,1","0,0,1,1,1,1,1,0,1,1,0,1","0,1,1,0,1,1",10,20,20,"","","","","{""box1"":""1"",""box2"":""1"",""box3"":""999"",""box4"":""999""}","",2,"round3_fail",5,1,3,1,1,NA,NA,0,0,20,NA,NA,NA,NA,NA,NA,NA,NA,NA,NA,NA,NA,NA,NA,NA,NA,NA,NA,NA,NA,1,1,1,1,0,0,20,NA,NA,"",NA,NA,NA,NA,NA,NA,NA,NA,NA,2025-11-21 01:29:02
"null","https://psyc-201.github.io/xiang2023/exp/index1.html?PROLIFIC_PID=REDACTED&STUDY_ID=691f8ca61c6b4dcbb0aeb5f4&SESSION_ID=691fb5a2979be4775b0b15f4","html-keyboard-response",13,783651,"0.0-316.0","dFoKsFIT33mCiq7ZihZGdQWNVOAlbf7X/dPYrMGD0A0+/VmzxRLFt+dSjR7bjbB3q8OXIr9WTyWCxkRtBX5BX2nTAEtqv/44aSn8gNxU+rW5vqYxajALPje/FUVll5OKLf53Jn41mRWBYjOIBTJEF39hAoA7eaGNp/jqBI2T1FzxFlFoX1lvpDpjzigd3/K8ShLWxzy8oN63ZE4xxY0wxDvLny8EPDxfqNePHfSqOMXa2JbZbrRwIkS67n8TW4dEtc7vH8McUGM26G2f7Lp+DuAAtwjJEc91bsCPmcxoFR4ar5W56Y0V+WWtVZg9VJoKdK516EZAQp2OtTrHU/oF7w==","691f8ca61c6b4dcbb0aeb5f4","691fb5a2979be4775b0b15f4","index1","<span style='color:red'>Fail,<span style='color:red'>Fail,<span style='color:green'>Lift,<span style='color:green'>Lift,<span style='color:red'>Fail,<span style='color:red'>Fail,<span style='color:red'>Fail,<span style='color:red'>Fail,<span style='color:green'>Lift,<span style='color:red'>Fail,<span style='color:red'>Fail,<span style='color:green'>Lift","<span style='color:red'>Fail,<span style='color:red'>Fail,<span style='color:green'>Lift,<span style='color:green'>Lift,<span style='color:green'>Lift,<span style='color:green'>Lift,<span style='color:green'>Lift,<span style='color:red'>Fail,<span style='color:green'>Lift,<span style='color:green'>Lift,<span style='color:red'>Fail,<span style='color:green'>Lift","<span style='color:red'>Fail,<span style='color:green'>Lift,<span style='color:green'>Lift,<span style='color:red'>Fail,<span style='color:green'>Lift,<span style='color:green'>Lift","0,0,1,1,0,0,0,0,1,0,0,1","0,0,1,1,1,1,1,0,1,1,0,1","0,1,1,0,1,1",10,20,20,"","","<p style='font-size:30px'><b> New Contest! </b></p>","null","","",2,"",NA,NA,NA,NA,NA,NA,NA,NA,NA,NA,NA,NA,NA,NA,NA,NA,NA,NA,NA,NA,NA,NA,NA,NA,NA,NA,NA,NA,NA,NA,NA,NA,NA,NA,NA,NA,NA,NA,NA,"",NA,NA,NA,NA,NA,NA,NA,NA,NA,2025-11-21 01:29:02
"36467.90000000596","https://psyc-201.github.io/xiang2023/exp/index1.html?PROLIFIC_PID=REDACTED&STUDY_ID=691f8ca61c6b4dcbb0aeb5f4&SESSION_ID=691fb5a2979be4775b0b15f4","survey-html-form",14,820121,"0.0-317.0","dFoKsFIT33mCiq7ZihZGdQWNVOAlbf7X/dPYrMGD0A0+/VmzxRLFt+dSjR7bjbB3q8OXIr9WTyWCxkRtBX5BX2nTAEtqv/44aSn8gNxU+rW5vqYxajALPje/FUVll5OKLf53Jn41mRWBYjOIBTJEF39hAoA7eaGNp/jqBI2T1FzxFlFoX1lvpDpjzigd3/K8ShLWxzy8oN63ZE4xxY0wxDvLny8EPDxfqNePHfSqOMXa2JbZbrRwIkS67n8TW4dEtc7vH8McUGM26G2f7Lp+DuAAtwjJEc91bsCPmcxoFR4ar5W56Y0V+WWtVZg9VJoKdK516EZAQp2OtTrHU/oF7w==","691f8ca61c6b4dcbb0aeb5f4","691fb5a2979be4775b0b15f4","index1","<span style='color:red'>Fail,<span style='color:red'>Fail,<span style='color:green'>Lift,<span style='color:green'>Lift,<span style='color:red'>Fail,<span style='color:red'>Fail,<span style='color:red'>Fail,<span style='color:red'>Fail,<span style='color:green'>Lift,<span style='color:red'>Fail,<span style='color:red'>Fail,<span style='color:green'>Lift","<span style='color:red'>Fail,<span style='color:red'>Fail,<span style='color:green'>Lift,<span style='color:green'>Lift,<span style='color:green'>Lift,<span style='color:green'>Lift,<span style='color:green'>Lift,<span style='color:red'>Fail,<span style='color:green'>Lift,<span style='color:green'>Lift,<span style='color:red'>Fail,<span style='color:green'>Lift","<span style='color:red'>Fail,<span style='color:green'>Lift,<span style='color:green'>Lift,<span style='color:red'>Fail,<span style='color:green'>Lift,<span style='color:green'>Lift","0,0,1,1,0,0,0,0,1,0,0,1","0,0,1,1,1,1,1,0,1,1,0,1","0,1,1,0,1,1",10,20,20,"","","","","{""box1"":""3"",""box2"":""3""}","",2,"round1_outcome",1,2,1,3,3,NA,NA,0,0,10,3,3,NA,NA,0,0,10,NA,NA,NA,NA,NA,NA,NA,NA,NA,NA,NA,NA,NA,NA,NA,NA,NA,NA,NA,NA,NA,NA,"",NA,NA,NA,NA,NA,NA,NA,NA,NA,2025-11-21 01:29:02
"37871.09999999404","https://psyc-201.github.io/xiang2023/exp/index1.html?PROLIFIC_PID=REDACTED&STUDY_ID=691f8ca61c6b4dcbb0aeb5f4&SESSION_ID=691fb5a2979be4775b0b15f4","survey-html-form",15,857993,"0.0-318.0","dFoKsFIT33mCiq7ZihZGdQWNVOAlbf7X/dPYrMGD0A0+/VmzxRLFt+dSjR7bjbB3q8OXIr9WTyWCxkRtBX5BX2nTAEtqv/44aSn8gNxU+rW5vqYxajALPje/FUVll5OKLf53Jn41mRWBYjOIBTJEF39hAoA7eaGNp/jqBI2T1FzxFlFoX1lvpDpjzigd3/K8ShLWxzy8oN63ZE4xxY0wxDvLny8EPDxfqNePHfSqOMXa2JbZbrRwIkS67n8TW4dEtc7vH8McUGM26G2f7Lp+DuAAtwjJEc91bsCPmcxoFR4ar5W56Y0V+WWtVZg9VJoKdK516EZAQp2OtTrHU/oF7w==","691f8ca61c6b4dcbb0aeb5f4","691fb5a2979be4775b0b15f4","index1","<span style='color:red'>Fail,<span style='color:red'>Fail,<span style='color:green'>Lift,<span style='color:green'>Lift,<span style='color:red'>Fail,<span style='color:red'>Fail,<span style='color:red'>Fail,<span style='color:red'>Fail,<span style='color:green'>Lift,<span style='color:red'>Fail,<span style='color:red'>Fail,<span style='color:green'>Lift","<span style='color:red'>Fail,<span style='color:red'>Fail,<span style='color:green'>Lift,<span style='color:green'>Lift,<span style='color:green'>Lift,<span style='color:green'>Lift,<span style='color:green'>Lift,<span style='color:red'>Fail,<span style='color:green'>Lift,<span style='color:green'>Lift,<span style='color:red'>Fail,<span style='color:green'>Lift","<span style='color:red'>Fail,<span style='color:green'>Lift,<span style='color:green'>Lift,<span style='color:red'>Fail,<span style='color:green'>Lift,<span style='color:green'>Lift","0,0,1,1,0,0,0,0,1,0,0,1","0,0,1,1,1,1,1,0,1,1,0,1","0,1,1,0,1,1",10,20,20,"","","","","{""box1"":""50"",""box2"":""50""}","",2,"round2_ready",2,2,2,NA,NA,NA,NA,NA,NA,NA,NA,NA,NA,NA,NA,NA,NA,50,50,50,50,NA,NA,NA,NA,NA,NA,NA,NA,NA,NA,NA,NA,NA,NA,NA,NA,NA,NA,"",NA,NA,NA,NA,NA,NA,NA,NA,NA,2025-11-21 01:29:02
"88837.40000000596","https://psyc-201.github.io/xiang2023/exp/index1.html?PROLIFIC_PID=REDACTED&STUDY_ID=691f8ca61c6b4dcbb0aeb5f4&SESSION_ID=691fb5a2979be4775b0b15f4","survey-html-form",16,946832,"0.0-319.0","dFoKsFIT33mCiq7ZihZGdQWNVOAlbf7X/dPYrMGD0A0+/VmzxRLFt+dSjR7bjbB3q8OXIr9WTyWCxkRtBX5BX2nTAEtqv/44aSn8gNxU+rW5vqYxajALPje/FUVll5OKLf53Jn41mRWBYjOIBTJEF39hAoA7eaGNp/jqBI2T1FzxFlFoX1lvpDpjzigd3/K8ShLWxzy8oN63ZE4xxY0wxDvLny8EPDxfqNePHfSqOMXa2JbZbrRwIkS67n8TW4dEtc7vH8McUGM26G2f7Lp+DuAAtwjJEc91bsCPmcxoFR4ar5W56Y0V+WWtVZg9VJoKdK516EZAQp2OtTrHU/oF7w==","691f8ca61c6b4dcbb0aeb5f4","691fb5a2979be4775b0b15f4","index1","<span style='color:red'>Fail,<span style='color:red'>Fail,<span style='color:green'>Lift,<span style='color:green'>Lift,<span style='color:red'>Fail,<span style='color:red'>Fail,<span style='color:red'>Fail,<span style='color:red'>Fail,<span style='color:green'>Lift,<span style='color:red'>Fail,<span style='color:red'>Fail,<span style='color:green'>Lift","<span style='color:red'>Fail,<span style='color:red'>Fail,<span style='color:green'>Lift,<span style='color:green'>Lift,<span style='color:green'>Lift,<span style='color:green'>Lift,<span style='color:green'>Lift,<span style='color:red'>Fail,<span style='color:green'>Lift,<span style='color:green'>Lift,<span style='color:red'>Fail,<span style='color:green'>Lift","<span style='color:red'>Fail,<span style='color:green'>Lift,<span style='color:green'>Lift,<span style='color:red'>Fail,<span style='color:green'>Lift,<span style='color:green'>Lift","0,0,1,1,0,0,0,0,1,0,0,1","0,0,1,1,1,1,1,0,1,1,0,1","0,1,1,0,1,1",10,20,20,"","","","","{""box1"":""5"",""box2"":""5"",""box3"":""95"",""box4"":""95""}","",2,"round2_outcome",3,2,2,5,5,95,95,1,1,20,NA,NA,NA,NA,NA,NA,NA,NA,NA,NA,NA,5,5,95,95,1,1,20,NA,NA,NA,NA,NA,NA,NA,NA,NA,NA,NA,"",NA,NA,NA,NA,NA,NA,NA,NA,NA,2025-11-21 01:29:02
"13566.5","https://psyc-201.github.io/xiang2023/exp/index1.html?PROLIFIC_PID=REDACTED&STUDY_ID=691f8ca61c6b4dcbb0aeb5f4&SESSION_ID=691fb5a2979be4775b0b15f4","survey-html-form",17,960400,"0.0-320.0","dFoKsFIT33mCiq7ZihZGdQWNVOAlbf7X/dPYrMGD0A0+/VmzxRLFt+dSjR7bjbB3q8OXIr9WTyWCxkRtBX5BX2nTAEtqv/44aSn8gNxU+rW5vqYxajALPje/FUVll5OKLf53Jn41mRWBYjOIBTJEF39hAoA7eaGNp/jqBI2T1FzxFlFoX1lvpDpjzigd3/K8ShLWxzy8oN63ZE4xxY0wxDvLny8EPDxfqNePHfSqOMXa2JbZbrRwIkS67n8TW4dEtc7vH8McUGM26G2f7Lp+DuAAtwjJEc91bsCPmcxoFR4ar5W56Y0V+WWtVZg9VJoKdK516EZAQp2OtTrHU/oF7w==","691f8ca61c6b4dcbb0aeb5f4","691fb5a2979be4775b0b15f4","index1","<span style='color:red'>Fail,<span style='color:red'>Fail,<span style='color:green'>Lift,<span style='color:green'>Lift,<span style='color:red'>Fail,<span style='color:red'>Fail,<span style='color:red'>Fail,<span style='color:red'>Fail,<span style='color:green'>Lift,<span style='color:red'>Fail,<span style='color:red'>Fail,<span style='color:green'>Lift","<span style='color:red'>Fail,<span style='color:red'>Fail,<span style='color:green'>Lift,<span style='color:green'>Lift,<span style='color:green'>Lift,<span style='color:green'>Lift,<span style='color:green'>Lift,<span style='color:red'>Fail,<span style='color:green'>Lift,<span style='color:green'>Lift,<span style='color:red'>Fail,<span style='color:green'>Lift","<span style='color:red'>Fail,<span style='color:green'>Lift,<span style='color:green'>Lift,<span style='color:red'>Fail,<span style='color:green'>Lift,<span style='color:green'>Lift","0,0,1,1,0,0,0,0,1,0,0,1","0,0,1,1,1,1,1,0,1,1,0,1","0,1,1,0,1,1",10,20,20,"","","","","{""box1"":""100""}","",2,"round3_ready",4,2,3,NA,NA,NA,NA,NA,NA,NA,NA,NA,NA,NA,NA,NA,NA,100,100,NA,NA,NA,NA,NA,NA,NA,NA,NA,100,100,NA,NA,NA,NA,NA,NA,NA,NA,NA,"",NA,NA,NA,NA,NA,NA,NA,NA,NA,2025-11-21 01:29:02
"44199.20000001788","https://psyc-201.github.io/xiang2023/exp/index1.html?PROLIFIC_PID=REDACTED&STUDY_ID=691f8ca61c6b4dcbb0aeb5f4&SESSION_ID=691fb5a2979be4775b0b15f4","survey-html-form",18,1004601,"0.0-321.0-0.0","dFoKsFIT33mCiq7ZihZGdQWNVOAlbf7X/dPYrMGD0A0+/VmzxRLFt+dSjR7bjbB3q8OXIr9WTyWCxkRtBX5BX2nTAEtqv/44aSn8gNxU+rW5vqYxajALPje/FUVll5OKLf53Jn41mRWBYjOIBTJEF39hAoA7eaGNp/jqBI2T1FzxFlFoX1lvpDpjzigd3/K8ShLWxzy8oN63ZE4xxY0wxDvLny8EPDxfqNePHfSqOMXa2JbZbrRwIkS67n8TW4dEtc7vH8McUGM26G2f7Lp+DuAAtwjJEc91bsCPmcxoFR4ar5W56Y0V+WWtVZg9VJoKdK516EZAQp2OtTrHU/oF7w==","691f8ca61c6b4dcbb0aeb5f4","691fb5a2979be4775b0b15f4","index1","<span style='color:red'>Fail,<span style='color:red'>Fail,<span style='color:green'>Lift,<span style='color:green'>Lift,<span style='color:red'>Fail,<span style='color:red'>Fail,<span style='color:red'>Fail,<span style='color:red'>Fail,<span style='color:green'>Lift,<span style='color:red'>Fail,<span style='color:red'>Fail,<span style='color:green'>Lift","<span style='color:red'>Fail,<span style='color:red'>Fail,<span style='color:green'>Lift,<span style='color:green'>Lift,<span style='color:green'>Lift,<span style='color:green'>Lift,<span style='color:green'>Lift,<span style='color:red'>Fail,<span style='color:green'>Lift,<span style='color:green'>Lift,<span style='color:red'>Fail,<span style='color:green'>Lift","<span style='color:red'>Fail,<span style='color:green'>Lift,<span style='color:green'>Lift,<span style='color:red'>Fail,<span style='color:green'>Lift,<span style='color:green'>Lift","0,0,1,1,0,0,0,0,1,0,0,1","0,0,1,1,1,1,1,0,1,1,0,1","0,1,1,0,1,1",10,20,20,"","","","","{""box1"":""5"",""box2"":""5"",""box3"":""50"",""box4"":""50""}","",3,"round3_lift",5,2,3,5,5,50,50,1,1,20,NA,NA,NA,NA,NA,NA,NA,NA,NA,NA,NA,NA,NA,NA,NA,NA,NA,NA,NA,NA,NA,NA,5,5,1,1,20,50,50,"",NA,NA,NA,NA,NA,NA,NA,NA,NA,2025-11-21 01:29:02
"null","https://psyc-201.github.io/xiang2023/exp/index1.html?PROLIFIC_PID=REDACTED&STUDY_ID=691f8ca61c6b4dcbb0aeb5f4&SESSION_ID=691fb5a2979be4775b0b15f4","html-keyboard-response",19,1007603,"0.0-325.0","dFoKsFIT33mCiq7ZihZGdQWNVOAlbf7X/dPYrMGD0A0+/VmzxRLFt+dSjR7bjbB3q8OXIr9WTyWCxkRtBX5BX2nTAEtqv/44aSn8gNxU+rW5vqYxajALPje/FUVll5OKLf53Jn41mRWBYjOIBTJEF39hAoA7eaGNp/jqBI2T1FzxFlFoX1lvpDpjzigd3/K8ShLWxzy8oN63ZE4xxY0wxDvLny8EPDxfqNePHfSqOMXa2JbZbrRwIkS67n8TW4dEtc7vH8McUGM26G2f7Lp+DuAAtwjJEc91bsCPmcxoFR4ar5W56Y0V+WWtVZg9VJoKdK516EZAQp2OtTrHU/oF7w==","691f8ca61c6b4dcbb0aeb5f4","691fb5a2979be4775b0b15f4","index1","<span style='color:red'>Fail,<span style='color:red'>Fail,<span style='color:green'>Lift,<span style='color:green'>Lift,<span style='color:red'>Fail,<span style='color:red'>Fail,<span style='color:red'>Fail,<span style='color:red'>Fail,<span style='color:green'>Lift,<span style='color:red'>Fail,<span style='color:red'>Fail,<span style='color:green'>Lift","<span style='color:red'>Fail,<span style='color:red'>Fail,<span style='color:green'>Lift,<span style='color:green'>Lift,<span style='color:green'>Lift,<span style='color:green'>Lift,<span style='color:green'>Lift,<span style='color:red'>Fail,<span style='color:green'>Lift,<span style='color:green'>Lift,<span style='color:red'>Fail,<span style='color:green'>Lift","<span style='color:red'>Fail,<span style='color:green'>Lift,<span style='color:green'>Lift,<span style='color:red'>Fail,<span style='color:green'>Lift,<span style='color:green'>Lift","0,0,1,1,0,0,0,0,1,0,0,1","0,0,1,1,1,1,1,0,1,1,0,1","0,1,1,0,1,1",10,20,20,"","","<p style='font-size:30px'><b> New Contest! </b></p>","null","","",3,"",NA,NA,NA,NA,NA,NA,NA,NA,NA,NA,NA,NA,NA,NA,NA,NA,NA,NA,NA,NA,NA,NA,NA,NA,NA,NA,NA,NA,NA,NA,NA,NA,NA,NA,NA,NA,NA,NA,NA,"",NA,NA,NA,NA,NA,NA,NA,NA,NA,2025-11-21 01:29:02
"166147.69999998808","https://psyc-201.github.io/xiang2023/exp/index1.html?PROLIFIC_PID=REDACTED&STUDY_ID=691f8ca61c6b4dcbb0aeb5f4&SESSION_ID=691fb5a2979be4775b0b15f4","survey-html-form",20,1173753,"0.0-326.0","dFoKsFIT33mCiq7ZihZGdQWNVOAlbf7X/dPYrMGD0A0+/VmzxRLFt+dSjR7bjbB3q8OXIr9WTyWCxkRtBX5BX2nTAEtqv/44aSn8gNxU+rW5vqYxajALPje/FUVll5OKLf53Jn41mRWBYjOIBTJEF39hAoA7eaGNp/jqBI2T1FzxFlFoX1lvpDpjzigd3/K8ShLWxzy8oN63ZE4xxY0wxDvLny8EPDxfqNePHfSqOMXa2JbZbrRwIkS67n8TW4dEtc7vH8McUGM26G2f7Lp+DuAAtwjJEc91bsCPmcxoFR4ar5W56Y0V+WWtVZg9VJoKdK516EZAQp2OtTrHU/oF7w==","691f8ca61c6b4dcbb0aeb5f4","691fb5a2979be4775b0b15f4","index1","<span style='color:red'>Fail,<span style='color:red'>Fail,<span style='color:green'>Lift,<span style='color:green'>Lift,<span style='color:red'>Fail,<span style='color:red'>Fail,<span style='color:red'>Fail,<span style='color:red'>Fail,<span style='color:green'>Lift,<span style='color:red'>Fail,<span style='color:red'>Fail,<span style='color:green'>Lift","<span style='color:red'>Fail,<span style='color:red'>Fail,<span style='color:green'>Lift,<span style='color:green'>Lift,<span style='color:green'>Lift,<span style='color:green'>Lift,<span style='color:green'>Lift,<span style='color:red'>Fail,<span style='color:green'>Lift,<span style='color:green'>Lift,<span style='color:red'>Fail,<span style='color:green'>Lift","<span style='color:red'>Fail,<span style='color:green'>Lift,<span style='color:green'>Lift,<span style='color:red'>Fail,<span style='color:green'>Lift,<span style='color:green'>Lift","0,0,1,1,0,0,0,0,1,0,0,1","0,0,1,1,1,1,1,0,1,1,0,1","0,1,1,0,1,1",10,20,20,"","","","","{""box1"":""4"",""box2"":""6"",""box4"":""80""}","",3,"round1_outcome",1,3,1,4,6,NA,80,0,1,10,4,6,NA,80,0,1,10,NA,NA,NA,NA,NA,NA,NA,NA,NA,NA,NA,NA,NA,NA,NA,NA,NA,NA,NA,NA,NA,NA,"",NA,NA,NA,NA,NA,NA,NA,NA,NA,2025-11-21 01:29:02
"62110.30000001192","https://psyc-201.github.io/xiang2023/exp/index1.html?PROLIFIC_PID=REDACTED&STUDY_ID=691f8ca61c6b4dcbb0aeb5f4&SESSION_ID=691fb5a2979be4775b0b15f4","survey-html-form",21,1235865,"0.0-327.0","dFoKsFIT33mCiq7ZihZGdQWNVOAlbf7X/dPYrMGD0A0+/VmzxRLFt+dSjR7bjbB3q8OXIr9WTyWCxkRtBX5BX2nTAEtqv/44aSn8gNxU+rW5vqYxajALPje/FUVll5OKLf53Jn41mRWBYjOIBTJEF39hAoA7eaGNp/jqBI2T1FzxFlFoX1lvpDpjzigd3/K8ShLWxzy8oN63ZE4xxY0wxDvLny8EPDxfqNePHfSqOMXa2JbZbrRwIkS67n8TW4dEtc7vH8McUGM26G2f7Lp+DuAAtwjJEc91bsCPmcxoFR4ar5W56Y0V+WWtVZg9VJoKdK516EZAQp2OtTrHU/oF7w==","691f8ca61c6b4dcbb0aeb5f4","691fb5a2979be4775b0b15f4","index1","<span style='color:red'>Fail,<span style='color:red'>Fail,<span style='color:green'>Lift,<span style='color:green'>Lift,<span style='color:red'>Fail,<span style='color:red'>Fail,<span style='color:red'>Fail,<span style='color:red'>Fail,<span style='color:green'>Lift,<span style='color:red'>Fail,<span style='color:red'>Fail,<span style='color:green'>Lift","<span style='color:red'>Fail,<span style='color:red'>Fail,<span style='color:green'>Lift,<span style='color:green'>Lift,<span style='color:green'>Lift,<span style='color:green'>Lift,<span style='color:green'>Lift,<span style='color:red'>Fail,<span style='color:green'>Lift,<span style='color:green'>Lift,<span style='color:red'>Fail,<span style='color:green'>Lift","<span style='color:red'>Fail,<span style='color:green'>Lift,<span style='color:green'>Lift,<span style='color:red'>Fail,<span style='color:green'>Lift,<span style='color:green'>Lift","0,0,1,1,0,0,0,0,1,0,0,1","0,0,1,1,1,1,1,0,1,1,0,1","0,1,1,0,1,1",10,20,20,"","","","","{""box1"":""50"",""box2"":""95""}","",3,"round2_ready",2,3,2,NA,NA,NA,NA,NA,NA,NA,NA,NA,NA,NA,NA,NA,NA,50,95,50,95,NA,NA,NA,NA,NA,NA,NA,NA,NA,NA,NA,NA,NA,NA,NA,NA,NA,NA,"",NA,NA,NA,NA,NA,NA,NA,NA,NA,2025-11-21 01:29:02
"59685.40000000596","https://psyc-201.github.io/xiang2023/exp/index1.html?PROLIFIC_PID=REDACTED&STUDY_ID=691f8ca61c6b4dcbb0aeb5f4&SESSION_ID=691fb5a2979be4775b0b15f4","survey-html-form",22,1295552,"0.0-328.0","dFoKsFIT33mCiq7ZihZGdQWNVOAlbf7X/dPYrMGD0A0+/VmzxRLFt+dSjR7bjbB3q8OXIr9WTyWCxkRtBX5BX2nTAEtqv/44aSn8gNxU+rW5vqYxajALPje/FUVll5OKLf53Jn41mRWBYjOIBTJEF39hAoA7eaGNp/jqBI2T1FzxFlFoX1lvpDpjzigd3/K8ShLWxzy8oN63ZE4xxY0wxDvLny8EPDxfqNePHfSqOMXa2JbZbrRwIkS67n8TW4dEtc7vH8McUGM26G2f7Lp+DuAAtwjJEc91bsCPmcxoFR4ar5W56Y0V+WWtVZg9VJoKdK516EZAQp2OtTrHU/oF7w==","691f8ca61c6b4dcbb0aeb5f4","691fb5a2979be4775b0b15f4","index1","<span style='color:red'>Fail,<span style='color:red'>Fail,<span style='color:green'>Lift,<span style='color:green'>Lift,<span style='color:red'>Fail,<span style='color:red'>Fail,<span style='color:red'>Fail,<span style='color:red'>Fail,<span style='color:green'>Lift,<span style='color:red'>Fail,<span style='color:red'>Fail,<span style='color:green'>Lift","<span style='color:red'>Fail,<span style='color:red'>Fail,<span style='color:green'>Lift,<span style='color:green'>Lift,<span style='color:green'>Lift,<span style='color:green'>Lift,<span style='color:green'>Lift,<span style='color:red'>Fail,<span style='color:green'>Lift,<span style='color:green'>Lift,<span style='color:red'>Fail,<span style='color:green'>Lift","<span style='color:red'>Fail,<span style='color:green'>Lift,<span style='color:green'>Lift,<span style='color:red'>Fail,<span style='color:green'>Lift,<span style='color:green'>Lift","0,0,1,1,0,0,0,0,1,0,0,1","0,0,1,1,1,1,1,0,1,1,0,1","0,1,1,0,1,1",10,20,20,"","","","","{""box1"":""3"",""box2"":""6"",""box4"":""85""}","",3,"round2_outcome",3,3,2,3,6,NA,85,0,1,20,NA,NA,NA,NA,NA,NA,NA,NA,NA,NA,NA,3,6,NA,85,0,1,20,NA,NA,NA,NA,NA,NA,NA,NA,NA,NA,NA,"",NA,NA,NA,NA,NA,NA,NA,NA,NA,2025-11-21 01:29:02
"9175.300000011921","https://psyc-201.github.io/xiang2023/exp/index1.html?PROLIFIC_PID=REDACTED&STUDY_ID=691f8ca61c6b4dcbb0aeb5f4&SESSION_ID=691fb5a2979be4775b0b15f4","survey-html-form",23,1304729,"0.0-329.0","dFoKsFIT33mCiq7ZihZGdQWNVOAlbf7X/dPYrMGD0A0+/VmzxRLFt+dSjR7bjbB3q8OXIr9WTyWCxkRtBX5BX2nTAEtqv/44aSn8gNxU+rW5vqYxajALPje/FUVll5OKLf53Jn41mRWBYjOIBTJEF39hAoA7eaGNp/jqBI2T1FzxFlFoX1lvpDpjzigd3/K8ShLWxzy8oN63ZE4xxY0wxDvLny8EPDxfqNePHfSqOMXa2JbZbrRwIkS67n8TW4dEtc7vH8McUGM26G2f7Lp+DuAAtwjJEc91bsCPmcxoFR4ar5W56Y0V+WWtVZg9VJoKdK516EZAQp2OtTrHU/oF7w==","691f8ca61c6b4dcbb0aeb5f4","691fb5a2979be4775b0b15f4","index1","<span style='color:red'>Fail,<span style='color:red'>Fail,<span style='color:green'>Lift,<span style='color:green'>Lift,<span style='color:red'>Fail,<span style='color:red'>Fail,<span style='color:red'>Fail,<span style='color:red'>Fail,<span style='color:green'>Lift,<span style='color:red'>Fail,<span style='color:red'>Fail,<span style='color:green'>Lift","<span style='color:red'>Fail,<span style='color:red'>Fail,<span style='color:green'>Lift,<span style='color:green'>Lift,<span style='color:green'>Lift,<span style='color:green'>Lift,<span style='color:green'>Lift,<span style='color:red'>Fail,<span style='color:green'>Lift,<span style='color:green'>Lift,<span style='color:red'>Fail,<span style='color:green'>Lift","<span style='color:red'>Fail,<span style='color:green'>Lift,<span style='color:green'>Lift,<span style='color:red'>Fail,<span style='color:green'>Lift,<span style='color:green'>Lift","0,0,1,1,0,0,0,0,1,0,0,1","0,0,1,1,1,1,1,0,1,1,0,1","0,1,1,0,1,1",10,20,20,"","","","","{""box1"":""100""}","",3,"round3_ready",4,3,3,NA,NA,NA,NA,NA,NA,NA,NA,NA,NA,NA,NA,NA,NA,100,100,NA,NA,NA,NA,NA,NA,NA,NA,NA,100,100,NA,NA,NA,NA,NA,NA,NA,NA,NA,"",NA,NA,NA,NA,NA,NA,NA,NA,NA,2025-11-21 01:29:02
"43470.69999998808","https://psyc-201.github.io/xiang2023/exp/index1.html?PROLIFIC_PID=REDACTED&STUDY_ID=691f8ca61c6b4dcbb0aeb5f4&SESSION_ID=691fb5a2979be4775b0b15f4","survey-html-form",24,1348201,"0.0-330.0-0.0","dFoKsFIT33mCiq7ZihZGdQWNVOAlbf7X/dPYrMGD0A0+/VmzxRLFt+dSjR7bjbB3q8OXIr9WTyWCxkRtBX5BX2nTAEtqv/44aSn8gNxU+rW5vqYxajALPje/FUVll5OKLf53Jn41mRWBYjOIBTJEF39hAoA7eaGNp/jqBI2T1FzxFlFoX1lvpDpjzigd3/K8ShLWxzy8oN63ZE4xxY0wxDvLny8EPDxfqNePHfSqOMXa2JbZbrRwIkS67n8TW4dEtc7vH8McUGM26G2f7Lp+DuAAtwjJEc91bsCPmcxoFR4ar5W56Y0V+WWtVZg9VJoKdK516EZAQp2OtTrHU/oF7w==","691f8ca61c6b4dcbb0aeb5f4","691fb5a2979be4775b0b15f4","index1","<span style='color:red'>Fail,<span style='color:red'>Fail,<span style='color:green'>Lift,<span style='color:green'>Lift,<span style='color:red'>Fail,<span style='color:red'>Fail,<span style='color:red'>Fail,<span style='color:red'>Fail,<span style='color:green'>Lift,<span style='color:red'>Fail,<span style='color:red'>Fail,<span style='color:green'>Lift","<span style='color:red'>Fail,<span style='color:red'>Fail,<span style='color:green'>Lift,<span style='color:green'>Lift,<span style='color:green'>Lift,<span style='color:green'>Lift,<span style='color:green'>Lift,<span style='color:red'>Fail,<span style='color:green'>Lift,<span style='color:green'>Lift,<span style='color:red'>Fail,<span style='color:green'>Lift","<span style='color:red'>Fail,<span style='color:green'>Lift,<span style='color:green'>Lift,<span style='color:red'>Fail,<span style='color:green'>Lift,<span style='color:green'>Lift","0,0,1,1,0,0,0,0,1,0,0,1","0,0,1,1,1,1,1,0,1,1,0,1","0,1,1,0,1,1",10,20,20,"","","","","{""box1"":""3"",""box2"":""6"",""box3"":""50"",""box4"":""50""}","",4,"round3_lift",5,3,3,3,6,50,50,1,1,20,NA,NA,NA,NA,NA,NA,NA,NA,NA,NA,NA,NA,NA,NA,NA,NA,NA,NA,NA,NA,NA,NA,3,6,1,1,20,50,50,"",NA,NA,NA,NA,NA,NA,NA,NA,NA,2025-11-21 01:29:02
"null","https://psyc-201.github.io/xiang2023/exp/index1.html?PROLIFIC_PID=REDACTED&STUDY_ID=691f8ca61c6b4dcbb0aeb5f4&SESSION_ID=691fb5a2979be4775b0b15f4","html-keyboard-response",25,1351204,"0.0-334.0","dFoKsFIT33mCiq7ZihZGdQWNVOAlbf7X/dPYrMGD0A0+/VmzxRLFt+dSjR7bjbB3q8OXIr9WTyWCxkRtBX5BX2nTAEtqv/44aSn8gNxU+rW5vqYxajALPje/FUVll5OKLf53Jn41mRWBYjOIBTJEF39hAoA7eaGNp/jqBI2T1FzxFlFoX1lvpDpjzigd3/K8ShLWxzy8oN63ZE4xxY0wxDvLny8EPDxfqNePHfSqOMXa2JbZbrRwIkS67n8TW4dEtc7vH8McUGM26G2f7Lp+DuAAtwjJEc91bsCPmcxoFR4ar5W56Y0V+WWtVZg9VJoKdK516EZAQp2OtTrHU/oF7w==","691f8ca61c6b4dcbb0aeb5f4","691fb5a2979be4775b0b15f4","index1","<span style='color:red'>Fail,<span style='color:red'>Fail,<span style='color:green'>Lift,<span style='color:green'>Lift,<span style='color:red'>Fail,<span style='color:red'>Fail,<span style='color:red'>Fail,<span style='color:red'>Fail,<span style='color:green'>Lift,<span style='color:red'>Fail,<span style='color:red'>Fail,<span style='color:green'>Lift","<span style='color:red'>Fail,<span style='color:red'>Fail,<span style='color:green'>Lift,<span style='color:green'>Lift,<span style='color:green'>Lift,<span style='color:green'>Lift,<span style='color:green'>Lift,<span style='color:red'>Fail,<span style='color:green'>Lift,<span style='color:green'>Lift,<span style='color:red'>Fail,<span style='color:green'>Lift","<span style='color:red'>Fail,<span style='color:green'>Lift,<span style='color:green'>Lift,<span style='color:red'>Fail,<span style='color:green'>Lift,<span style='color:green'>Lift","0,0,1,1,0,0,0,0,1,0,0,1","0,0,1,1,1,1,1,0,1,1,0,1","0,1,1,0,1,1",10,20,20,"","","<p style='font-size:30px'><b> New Contest! </b></p>","null","","",4,"",NA,NA,NA,NA,NA,NA,NA,NA,NA,NA,NA,NA,NA,NA,NA,NA,NA,NA,NA,NA,NA,NA,NA,NA,NA,NA,NA,NA,NA,NA,NA,NA,NA,NA,NA,NA,NA,NA,NA,"",NA,NA,NA,NA,NA,NA,NA,NA,NA,2025-11-21 01:29:02
"48124.89999997616","https://psyc-201.github.io/xiang2023/exp/index1.html?PROLIFIC_PID=REDACTED&STUDY_ID=691f8ca61c6b4dcbb0aeb5f4&SESSION_ID=691fb5a2979be4775b0b15f4","survey-html-form",26,1399330,"0.0-335.0","dFoKsFIT33mCiq7ZihZGdQWNVOAlbf7X/dPYrMGD0A0+/VmzxRLFt+dSjR7bjbB3q8OXIr9WTyWCxkRtBX5BX2nTAEtqv/44aSn8gNxU+rW5vqYxajALPje/FUVll5OKLf53Jn41mRWBYjOIBTJEF39hAoA7eaGNp/jqBI2T1FzxFlFoX1lvpDpjzigd3/K8ShLWxzy8oN63ZE4xxY0wxDvLny8EPDxfqNePHfSqOMXa2JbZbrRwIkS67n8TW4dEtc7vH8McUGM26G2f7Lp+DuAAtwjJEc91bsCPmcxoFR4ar5W56Y0V+WWtVZg9VJoKdK516EZAQp2OtTrHU/oF7w==","691f8ca61c6b4dcbb0aeb5f4","691fb5a2979be4775b0b15f4","index1","<span style='color:red'>Fail,<span style='color:red'>Fail,<span style='color:green'>Lift,<span style='color:green'>Lift,<span style='color:red'>Fail,<span style='color:red'>Fail,<span style='color:red'>Fail,<span style='color:red'>Fail,<span style='color:green'>Lift,<span style='color:red'>Fail,<span style='color:red'>Fail,<span style='color:green'>Lift","<span style='color:red'>Fail,<span style='color:red'>Fail,<span style='color:green'>Lift,<span style='color:green'>Lift,<span style='color:green'>Lift,<span style='color:green'>Lift,<span style='color:green'>Lift,<span style='color:red'>Fail,<span style='color:green'>Lift,<span style='color:green'>Lift,<span style='color:red'>Fail,<span style='color:green'>Lift","<span style='color:red'>Fail,<span style='color:green'>Lift,<span style='color:green'>Lift,<span style='color:red'>Fail,<span style='color:green'>Lift,<span style='color:green'>Lift","0,0,1,1,0,0,0,0,1,0,0,1","0,0,1,1,1,1,1,0,1,1,0,1","0,1,1,0,1,1",10,20,20,"","","","","{""box1"":""6"",""box2"":""3"",""box3"":""80""}","",4,"round1_outcome",1,4,1,6,3,80,NA,1,0,10,6,3,80,NA,1,0,10,NA,NA,NA,NA,NA,NA,NA,NA,NA,NA,NA,NA,NA,NA,NA,NA,NA,NA,NA,NA,NA,NA,"",NA,NA,NA,NA,NA,NA,NA,NA,NA,2025-11-21 01:29:02
"31781.70000001788","https://psyc-201.github.io/xiang2023/exp/index1.html?PROLIFIC_PID=REDACTED&STUDY_ID=691f8ca61c6b4dcbb0aeb5f4&SESSION_ID=691fb5a2979be4775b0b15f4","survey-html-form",27,1431113,"0.0-336.0","dFoKsFIT33mCiq7ZihZGdQWNVOAlbf7X/dPYrMGD0A0+/VmzxRLFt+dSjR7bjbB3q8OXIr9WTyWCxkRtBX5BX2nTAEtqv/44aSn8gNxU+rW5vqYxajALPje/FUVll5OKLf53Jn41mRWBYjOIBTJEF39hAoA7eaGNp/jqBI2T1FzxFlFoX1lvpDpjzigd3/K8ShLWxzy8oN63ZE4xxY0wxDvLny8EPDxfqNePHfSqOMXa2JbZbrRwIkS67n8TW4dEtc7vH8McUGM26G2f7Lp+DuAAtwjJEc91bsCPmcxoFR4ar5W56Y0V+WWtVZg9VJoKdK516EZAQp2OtTrHU/oF7w==","691f8ca61c6b4dcbb0aeb5f4","691fb5a2979be4775b0b15f4","index1","<span style='color:red'>Fail,<span style='color:red'>Fail,<span style='color:green'>Lift,<span style='color:green'>Lift,<span style='color:red'>Fail,<span style='color:red'>Fail,<span style='color:red'>Fail,<span style='color:red'>Fail,<span style='color:green'>Lift,<span style='color:red'>Fail,<span style='color:red'>Fail,<span style='color:green'>Lift","<span style='color:red'>Fail,<span style='color:red'>Fail,<span style='color:green'>Lift,<span style='color:green'>Lift,<span style='color:green'>Lift,<span style='color:green'>Lift,<span style='color:green'>Lift,<span style='color:red'>Fail,<span style='color:green'>Lift,<span style='color:green'>Lift,<span style='color:red'>Fail,<span style='color:green'>Lift","<span style='color:red'>Fail,<span style='color:green'>Lift,<span style='color:green'>Lift,<span style='color:red'>Fail,<span style='color:green'>Lift,<span style='color:green'>Lift","0,0,1,1,0,0,0,0,1,0,0,1","0,0,1,1,1,1,1,0,1,1,0,1","0,1,1,0,1,1",10,20,20,"","","","","{""box1"":""95"",""box2"":""50""}","",4,"round2_ready",2,4,2,NA,NA,NA,NA,NA,NA,NA,NA,NA,NA,NA,NA,NA,NA,95,50,95,50,NA,NA,NA,NA,NA,NA,NA,NA,NA,NA,NA,NA,NA,NA,NA,NA,NA,NA,"",NA,NA,NA,NA,NA,NA,NA,NA,NA,2025-11-21 01:29:02
"71358.59999999404","https://psyc-201.github.io/xiang2023/exp/index1.html?PROLIFIC_PID=REDACTED&STUDY_ID=691f8ca61c6b4dcbb0aeb5f4&SESSION_ID=691fb5a2979be4775b0b15f4","survey-html-form",28,1502474,"0.0-337.0","dFoKsFIT33mCiq7ZihZGdQWNVOAlbf7X/dPYrMGD0A0+/VmzxRLFt+dSjR7bjbB3q8OXIr9WTyWCxkRtBX5BX2nTAEtqv/44aSn8gNxU+rW5vqYxajALPje/FUVll5OKLf53Jn41mRWBYjOIBTJEF39hAoA7eaGNp/jqBI2T1FzxFlFoX1lvpDpjzigd3/K8ShLWxzy8oN63ZE4xxY0wxDvLny8EPDxfqNePHfSqOMXa2JbZbrRwIkS67n8TW4dEtc7vH8McUGM26G2f7Lp+DuAAtwjJEc91bsCPmcxoFR4ar5W56Y0V+WWtVZg9VJoKdK516EZAQp2OtTrHU/oF7w==","691f8ca61c6b4dcbb0aeb5f4","691fb5a2979be4775b0b15f4","index1","<span style='color:red'>Fail,<span style='color:red'>Fail,<span style='color:green'>Lift,<span style='color:green'>Lift,<span style='color:red'>Fail,<span style='color:red'>Fail,<span style='color:red'>Fail,<span style='color:red'>Fail,<span style='color:green'>Lift,<span style='color:red'>Fail,<span style='color:red'>Fail,<span style='color:green'>Lift","<span style='color:red'>Fail,<span style='color:red'>Fail,<span style='color:green'>Lift,<span style='color:green'>Lift,<span style='color:green'>Lift,<span style='color:green'>Lift,<span style='color:green'>Lift,<span style='color:red'>Fail,<span style='color:green'>Lift,<span style='color:green'>Lift,<span style='color:red'>Fail,<span style='color:green'>Lift","<span style='color:red'>Fail,<span style='color:green'>Lift,<span style='color:green'>Lift,<span style='color:red'>Fail,<span style='color:green'>Lift,<span style='color:green'>Lift","0,0,1,1,0,0,0,0,1,0,0,1","0,0,1,1,1,1,1,0,1,1,0,1","0,1,1,0,1,1",10,20,20,"","","","","{""box1"":""6"",""box2"":""5"",""box3"":""85"",""box4"":""95""}","",4,"round2_outcome",3,4,2,6,5,85,95,1,1,20,NA,NA,NA,NA,NA,NA,NA,NA,NA,NA,NA,6,5,85,95,1,1,20,NA,NA,NA,NA,NA,NA,NA,NA,NA,NA,NA,"",NA,NA,NA,NA,NA,NA,NA,NA,NA,2025-11-21 01:29:02
"8454.40000000596","https://psyc-201.github.io/xiang2023/exp/index1.html?PROLIFIC_PID=REDACTED&STUDY_ID=691f8ca61c6b4dcbb0aeb5f4&SESSION_ID=691fb5a2979be4775b0b15f4","survey-html-form",29,1510930,"0.0-338.0","dFoKsFIT33mCiq7ZihZGdQWNVOAlbf7X/dPYrMGD0A0+/VmzxRLFt+dSjR7bjbB3q8OXIr9WTyWCxkRtBX5BX2nTAEtqv/44aSn8gNxU+rW5vqYxajALPje/FUVll5OKLf53Jn41mRWBYjOIBTJEF39hAoA7eaGNp/jqBI2T1FzxFlFoX1lvpDpjzigd3/K8ShLWxzy8oN63ZE4xxY0wxDvLny8EPDxfqNePHfSqOMXa2JbZbrRwIkS67n8TW4dEtc7vH8McUGM26G2f7Lp+DuAAtwjJEc91bsCPmcxoFR4ar5W56Y0V+WWtVZg9VJoKdK516EZAQp2OtTrHU/oF7w==","691f8ca61c6b4dcbb0aeb5f4","691fb5a2979be4775b0b15f4","index1","<span style='color:red'>Fail,<span style='color:red'>Fail,<span style='color:green'>Lift,<span style='color:green'>Lift,<span style='color:red'>Fail,<span style='color:red'>Fail,<span style='color:red'>Fail,<span style='color:red'>Fail,<span style='color:green'>Lift,<span style='color:red'>Fail,<span style='color:red'>Fail,<span style='color:green'>Lift","<span style='color:red'>Fail,<span style='color:red'>Fail,<span style='color:green'>Lift,<span style='color:green'>Lift,<span style='color:green'>Lift,<span style='color:green'>Lift,<span style='color:green'>Lift,<span style='color:red'>Fail,<span style='color:green'>Lift,<span style='color:green'>Lift,<span style='color:red'>Fail,<span style='color:green'>Lift","<span style='color:red'>Fail,<span style='color:green'>Lift,<span style='color:green'>Lift,<span style='color:red'>Fail,<span style='color:green'>Lift,<span style='color:green'>Lift","0,0,1,1,0,0,0,0,1,0,0,1","0,0,1,1,1,1,1,0,1,1,0,1","0,1,1,0,1,1",10,20,20,"","","","","{""box1"":""100""}","",4,"round3_ready",4,4,3,NA,NA,NA,NA,NA,NA,NA,NA,NA,NA,NA,NA,NA,NA,100,100,NA,NA,NA,NA,NA,NA,NA,NA,NA,100,100,NA,NA,NA,NA,NA,NA,NA,NA,NA,"",NA,NA,NA,NA,NA,NA,NA,NA,NA,2025-11-21 01:29:02
"20518.100000023842","https://psyc-201.github.io/xiang2023/exp/index1.html?PROLIFIC_PID=REDACTED&STUDY_ID=691f8ca61c6b4dcbb0aeb5f4&SESSION_ID=691fb5a2979be4775b0b15f4","survey-html-form",30,1531450,"0.0-339.0-0.0","dFoKsFIT33mCiq7ZihZGdQWNVOAlbf7X/dPYrMGD0A0+/VmzxRLFt+dSjR7bjbB3q8OXIr9WTyWCxkRtBX5BX2nTAEtqv/44aSn8gNxU+rW5vqYxajALPje/FUVll5OKLf53Jn41mRWBYjOIBTJEF39hAoA7eaGNp/jqBI2T1FzxFlFoX1lvpDpjzigd3/K8ShLWxzy8oN63ZE4xxY0wxDvLny8EPDxfqNePHfSqOMXa2JbZbrRwIkS67n8TW4dEtc7vH8McUGM26G2f7Lp+DuAAtwjJEc91bsCPmcxoFR4ar5W56Y0V+WWtVZg9VJoKdK516EZAQp2OtTrHU/oF7w==","691f8ca61c6b4dcbb0aeb5f4","691fb5a2979be4775b0b15f4","index1","<span style='color:red'>Fail,<span style='color:red'>Fail,<span style='color:green'>Lift,<span style='color:green'>Lift,<span style='color:red'>Fail,<span style='color:red'>Fail,<span style='color:red'>Fail,<span style='color:red'>Fail,<span style='color:green'>Lift,<span style='color:red'>Fail,<span style='color:red'>Fail,<span style='color:green'>Lift","<span style='color:red'>Fail,<span style='color:red'>Fail,<span style='color:green'>Lift,<span style='color:green'>Lift,<span style='color:green'>Lift,<span style='color:green'>Lift,<span style='color:green'>Lift,<span style='color:red'>Fail,<span style='color:green'>Lift,<span style='color:green'>Lift,<span style='color:red'>Fail,<span style='color:green'>Lift","<span style='color:red'>Fail,<span style='color:green'>Lift,<span style='color:green'>Lift,<span style='color:red'>Fail,<span style='color:green'>Lift,<span style='color:green'>Lift","0,0,1,1,0,0,0,0,1,0,0,1","0,0,1,1,1,1,1,0,1,1,0,1","0,1,1,0,1,1",10,20,20,"","","","","{""box1"":""6"",""box2"":""5"",""box3"":""50"",""box4"":""50""}","",5,"round3_lift",5,4,3,6,5,50,50,1,1,20,NA,NA,NA,NA,NA,NA,NA,NA,NA,NA,NA,NA,NA,NA,NA,NA,NA,NA,NA,NA,NA,NA,6,5,1,1,20,50,50,"",NA,NA,NA,NA,NA,NA,NA,NA,NA,2025-11-21 01:29:02
"null","https://psyc-201.github.io/xiang2023/exp/index1.html?PROLIFIC_PID=REDACTED&STUDY_ID=691f8ca61c6b4dcbb0aeb5f4&SESSION_ID=691fb5a2979be4775b0b15f4","html-keyboard-response",31,1534451,"0.0-343.0","dFoKsFIT33mCiq7ZihZGdQWNVOAlbf7X/dPYrMGD0A0+/VmzxRLFt+dSjR7bjbB3q8OXIr9WTyWCxkRtBX5BX2nTAEtqv/44aSn8gNxU+rW5vqYxajALPje/FUVll5OKLf53Jn41mRWBYjOIBTJEF39hAoA7eaGNp/jqBI2T1FzxFlFoX1lvpDpjzigd3/K8ShLWxzy8oN63ZE4xxY0wxDvLny8EPDxfqNePHfSqOMXa2JbZbrRwIkS67n8TW4dEtc7vH8McUGM26G2f7Lp+DuAAtwjJEc91bsCPmcxoFR4ar5W56Y0V+WWtVZg9VJoKdK516EZAQp2OtTrHU/oF7w==","691f8ca61c6b4dcbb0aeb5f4","691fb5a2979be4775b0b15f4","index1","<span style='color:red'>Fail,<span style='color:red'>Fail,<span style='color:green'>Lift,<span style='color:green'>Lift,<span style='color:red'>Fail,<span style='color:red'>Fail,<span style='color:red'>Fail,<span style='color:red'>Fail,<span style='color:green'>Lift,<span style='color:red'>Fail,<span style='color:red'>Fail,<span style='color:green'>Lift","<span style='color:red'>Fail,<span style='color:red'>Fail,<span style='color:green'>Lift,<span style='color:green'>Lift,<span style='color:green'>Lift,<span style='color:green'>Lift,<span style='color:green'>Lift,<span style='color:red'>Fail,<span style='color:green'>Lift,<span style='color:green'>Lift,<span style='color:red'>Fail,<span style='color:green'>Lift","<span style='color:red'>Fail,<span style='color:green'>Lift,<span style='color:green'>Lift,<span style='color:red'>Fail,<span style='color:green'>Lift,<span style='color:green'>Lift","0,0,1,1,0,0,0,0,1,0,0,1","0,0,1,1,1,1,1,0,1,1,0,1","0,1,1,0,1,1",10,20,20,"","","<p style='font-size:30px'><b> New Contest! </b></p>","null","","",5,"",NA,NA,NA,NA,NA,NA,NA,NA,NA,NA,NA,NA,NA,NA,NA,NA,NA,NA,NA,NA,NA,NA,NA,NA,NA,NA,NA,NA,NA,NA,NA,NA,NA,NA,NA,NA,NA,NA,NA,"",NA,NA,NA,NA,NA,NA,NA,NA,NA,2025-11-21 01:29:02
"12653.09999999404","https://psyc-201.github.io/xiang2023/exp/index1.html?PROLIFIC_PID=REDACTED&STUDY_ID=691f8ca61c6b4dcbb0aeb5f4&SESSION_ID=691fb5a2979be4775b0b15f4","survey-html-form",32,1547106,"0.0-344.0","dFoKsFIT33mCiq7ZihZGdQWNVOAlbf7X/dPYrMGD0A0+/VmzxRLFt+dSjR7bjbB3q8OXIr9WTyWCxkRtBX5BX2nTAEtqv/44aSn8gNxU+rW5vqYxajALPje/FUVll5OKLf53Jn41mRWBYjOIBTJEF39hAoA7eaGNp/jqBI2T1FzxFlFoX1lvpDpjzigd3/K8ShLWxzy8oN63ZE4xxY0wxDvLny8EPDxfqNePHfSqOMXa2JbZbrRwIkS67n8TW4dEtc7vH8McUGM26G2f7Lp+DuAAtwjJEc91bsCPmcxoFR4ar5W56Y0V+WWtVZg9VJoKdK516EZAQp2OtTrHU/oF7w==","691f8ca61c6b4dcbb0aeb5f4","691fb5a2979be4775b0b15f4","index1","<span style='color:red'>Fail,<span style='color:red'>Fail,<span style='color:green'>Lift,<span style='color:green'>Lift,<span style='color:red'>Fail,<span style='color:red'>Fail,<span style='color:red'>Fail,<span style='color:red'>Fail,<span style='color:green'>Lift,<span style='color:red'>Fail,<span style='color:red'>Fail,<span style='color:green'>Lift","<span style='color:red'>Fail,<span style='color:red'>Fail,<span style='color:green'>Lift,<span style='color:green'>Lift,<span style='color:green'>Lift,<span style='color:green'>Lift,<span style='color:green'>Lift,<span style='color:red'>Fail,<span style='color:green'>Lift,<span style='color:green'>Lift,<span style='color:red'>Fail,<span style='color:green'>Lift","<span style='color:red'>Fail,<span style='color:green'>Lift,<span style='color:green'>Lift,<span style='color:red'>Fail,<span style='color:green'>Lift,<span style='color:green'>Lift","0,0,1,1,0,0,0,0,1,0,0,1","0,0,1,1,1,1,1,0,1,1,0,1","0,1,1,0,1,1",10,20,20,"","","","","{""box1"":""4"",""box2"":""4""}","",5,"round1_outcome",1,5,1,4,4,NA,NA,0,0,10,4,4,NA,NA,0,0,10,NA,NA,NA,NA,NA,NA,NA,NA,NA,NA,NA,NA,NA,NA,NA,NA,NA,NA,NA,NA,NA,NA,"",NA,NA,NA,NA,NA,NA,NA,NA,NA,2025-11-21 01:29:02
"40966.29999998212","https://psyc-201.github.io/xiang2023/exp/index1.html?PROLIFIC_PID=REDACTED&STUDY_ID=691f8ca61c6b4dcbb0aeb5f4&SESSION_ID=691fb5a2979be4775b0b15f4","survey-html-form",33,1588074,"0.0-345.0","dFoKsFIT33mCiq7ZihZGdQWNVOAlbf7X/dPYrMGD0A0+/VmzxRLFt+dSjR7bjbB3q8OXIr9WTyWCxkRtBX5BX2nTAEtqv/44aSn8gNxU+rW5vqYxajALPje/FUVll5OKLf53Jn41mRWBYjOIBTJEF39hAoA7eaGNp/jqBI2T1FzxFlFoX1lvpDpjzigd3/K8ShLWxzy8oN63ZE4xxY0wxDvLny8EPDxfqNePHfSqOMXa2JbZbrRwIkS67n8TW4dEtc7vH8McUGM26G2f7Lp+DuAAtwjJEc91bsCPmcxoFR4ar5W56Y0V+WWtVZg9VJoKdK516EZAQp2OtTrHU/oF7w==","691f8ca61c6b4dcbb0aeb5f4","691fb5a2979be4775b0b15f4","index1","<span style='color:red'>Fail,<span style='color:red'>Fail,<span style='color:green'>Lift,<span style='color:green'>Lift,<span style='color:red'>Fail,<span style='color:red'>Fail,<span style='color:red'>Fail,<span style='color:red'>Fail,<span style='color:green'>Lift,<span style='color:red'>Fail,<span style='color:red'>Fail,<span style='color:green'>Lift","<span style='color:red'>Fail,<span style='color:red'>Fail,<span style='color:green'>Lift,<span style='color:green'>Lift,<span style='color:green'>Lift,<span style='color:green'>Lift,<span style='color:green'>Lift,<span style='color:red'>Fail,<span style='color:green'>Lift,<span style='color:green'>Lift,<span style='color:red'>Fail,<span style='color:green'>Lift","<span style='color:red'>Fail,<span style='color:green'>Lift,<span style='color:green'>Lift,<span style='color:red'>Fail,<span style='color:green'>Lift,<span style='color:green'>Lift","0,0,1,1,0,0,0,0,1,0,0,1","0,0,1,1,1,1,1,0,1,1,0,1","0,1,1,0,1,1",10,20,20,"","","","","{""box1"":""75"",""box2"":""75""}","",5,"round2_ready",2,5,2,NA,NA,NA,NA,NA,NA,NA,NA,NA,NA,NA,NA,NA,NA,75,75,75,75,NA,NA,NA,NA,NA,NA,NA,NA,NA,NA,NA,NA,NA,NA,NA,NA,NA,NA,"",NA,NA,NA,NA,NA,NA,NA,NA,NA,2025-11-21 01:29:02
"37303.5","https://psyc-201.github.io/xiang2023/exp/index1.html?PROLIFIC_PID=REDACTED&STUDY_ID=691f8ca61c6b4dcbb0aeb5f4&SESSION_ID=691fb5a2979be4775b0b15f4","survey-html-form",34,1625379,"0.0-346.0","dFoKsFIT33mCiq7ZihZGdQWNVOAlbf7X/dPYrMGD0A0+/VmzxRLFt+dSjR7bjbB3q8OXIr9WTyWCxkRtBX5BX2nTAEtqv/44aSn8gNxU+rW5vqYxajALPje/FUVll5OKLf53Jn41mRWBYjOIBTJEF39hAoA7eaGNp/jqBI2T1FzxFlFoX1lvpDpjzigd3/K8ShLWxzy8oN63ZE4xxY0wxDvLny8EPDxfqNePHfSqOMXa2JbZbrRwIkS67n8TW4dEtc7vH8McUGM26G2f7Lp+DuAAtwjJEc91bsCPmcxoFR4ar5W56Y0V+WWtVZg9VJoKdK516EZAQp2OtTrHU/oF7w==","691f8ca61c6b4dcbb0aeb5f4","691fb5a2979be4775b0b15f4","index1","<span style='color:red'>Fail,<span style='color:red'>Fail,<span style='color:green'>Lift,<span style='color:green'>Lift,<span style='color:red'>Fail,<span style='color:red'>Fail,<span style='color:red'>Fail,<span style='color:red'>Fail,<span style='color:green'>Lift,<span style='color:red'>Fail,<span style='color:red'>Fail,<span style='color:green'>Lift","<span style='color:red'>Fail,<span style='color:red'>Fail,<span style='color:green'>Lift,<span style='color:green'>Lift,<span style='color:green'>Lift,<span style='color:green'>Lift,<span style='color:green'>Lift,<span style='color:red'>Fail,<span style='color:green'>Lift,<span style='color:green'>Lift,<span style='color:red'>Fail,<span style='color:green'>Lift","<span style='color:red'>Fail,<span style='color:green'>Lift,<span style='color:green'>Lift,<span style='color:red'>Fail,<span style='color:green'>Lift,<span style='color:green'>Lift","0,0,1,1,0,0,0,0,1,0,0,1","0,0,1,1,1,1,1,0,1,1,0,1","0,1,1,0,1,1",10,20,20,"","","","","{""box1"":""5"",""box2"":""3"",""box3"":""95""}","",5,"round2_outcome",3,5,2,5,3,95,NA,1,0,20,NA,NA,NA,NA,NA,NA,NA,NA,NA,NA,NA,5,3,95,NA,1,0,20,NA,NA,NA,NA,NA,NA,NA,NA,NA,NA,NA,"",NA,NA,NA,NA,NA,NA,NA,NA,NA,2025-11-21 01:29:02
"22701.59999999404","https://psyc-201.github.io/xiang2023/exp/index1.html?PROLIFIC_PID=REDACTED&STUDY_ID=691f8ca61c6b4dcbb0aeb5f4&SESSION_ID=691fb5a2979be4775b0b15f4","survey-html-form",35,1648083,"0.0-347.0","dFoKsFIT33mCiq7ZihZGdQWNVOAlbf7X/dPYrMGD0A0+/VmzxRLFt+dSjR7bjbB3q8OXIr9WTyWCxkRtBX5BX2nTAEtqv/44aSn8gNxU+rW5vqYxajALPje/FUVll5OKLf53Jn41mRWBYjOIBTJEF39hAoA7eaGNp/jqBI2T1FzxFlFoX1lvpDpjzigd3/K8ShLWxzy8oN63ZE4xxY0wxDvLny8EPDxfqNePHfSqOMXa2JbZbrRwIkS67n8TW4dEtc7vH8McUGM26G2f7Lp+DuAAtwjJEc91bsCPmcxoFR4ar5W56Y0V+WWtVZg9VJoKdK516EZAQp2OtTrHU/oF7w==","691f8ca61c6b4dcbb0aeb5f4","691fb5a2979be4775b0b15f4","index1","<span style='color:red'>Fail,<span style='color:red'>Fail,<span style='color:green'>Lift,<span style='color:green'>Lift,<span style='color:red'>Fail,<span style='color:red'>Fail,<span style='color:red'>Fail,<span style='color:red'>Fail,<span style='color:green'>Lift,<span style='color:red'>Fail,<span style='color:red'>Fail,<span style='color:green'>Lift","<span style='color:red'>Fail,<span style='color:red'>Fail,<span style='color:green'>Lift,<span style='color:green'>Lift,<span style='color:green'>Lift,<span style='color:green'>Lift,<span style='color:green'>Lift,<span style='color:red'>Fail,<span style='color:green'>Lift,<span style='color:green'>Lift,<span style='color:red'>Fail,<span style='color:green'>Lift","<span style='color:red'>Fail,<span style='color:green'>Lift,<span style='color:green'>Lift,<span style='color:red'>Fail,<span style='color:green'>Lift,<span style='color:green'>Lift","0,0,1,1,0,0,0,0,1,0,0,1","0,0,1,1,1,1,1,0,1,1,0,1","0,1,1,0,1,1",10,20,20,"","","","","{""box1"":""95""}","",5,"round3_ready",4,5,3,NA,NA,NA,NA,NA,NA,NA,NA,NA,NA,NA,NA,NA,NA,95,95,NA,NA,NA,NA,NA,NA,NA,NA,NA,95,95,NA,NA,NA,NA,NA,NA,NA,NA,NA,"",NA,NA,NA,NA,NA,NA,NA,NA,NA,2025-11-21 01:29:02
"63718.90000000596","https://psyc-201.github.io/xiang2023/exp/index1.html?PROLIFIC_PID=REDACTED&STUDY_ID=691f8ca61c6b4dcbb0aeb5f4&SESSION_ID=691fb5a2979be4775b0b15f4","survey-html-form",36,1711804,"0.0-349.0-0.0","dFoKsFIT33mCiq7ZihZGdQWNVOAlbf7X/dPYrMGD0A0+/VmzxRLFt+dSjR7bjbB3q8OXIr9WTyWCxkRtBX5BX2nTAEtqv/44aSn8gNxU+rW5vqYxajALPje/FUVll5OKLf53Jn41mRWBYjOIBTJEF39hAoA7eaGNp/jqBI2T1FzxFlFoX1lvpDpjzigd3/K8ShLWxzy8oN63ZE4xxY0wxDvLny8EPDxfqNePHfSqOMXa2JbZbrRwIkS67n8TW4dEtc7vH8McUGM26G2f7Lp+DuAAtwjJEc91bsCPmcxoFR4ar5W56Y0V+WWtVZg9VJoKdK516EZAQp2OtTrHU/oF7w==","691f8ca61c6b4dcbb0aeb5f4","691fb5a2979be4775b0b15f4","index1","<span style='color:red'>Fail,<span style='color:red'>Fail,<span style='color:green'>Lift,<span style='color:green'>Lift,<span style='color:red'>Fail,<span style='color:red'>Fail,<span style='color:red'>Fail,<span style='color:red'>Fail,<span style='color:green'>Lift,<span style='color:red'>Fail,<span style='color:red'>Fail,<span style='color:green'>Lift","<span style='color:red'>Fail,<span style='color:red'>Fail,<span style='color:green'>Lift,<span style='color:green'>Lift,<span style='color:green'>Lift,<span style='color:green'>Lift,<span style='color:green'>Lift,<span style='color:red'>Fail,<span style='color:green'>Lift,<span style='color:green'>Lift,<span style='color:red'>Fail,<span style='color:green'>Lift","<span style='color:red'>Fail,<span style='color:green'>Lift,<span style='color:green'>Lift,<span style='color:red'>Fail,<span style='color:green'>Lift,<span style='color:green'>Lift","0,0,1,1,0,0,0,0,1,0,0,1","0,0,1,1,1,1,1,0,1,1,0,1","0,1,1,0,1,1",10,20,20,"","","","","{""box1"":""4"",""box2"":""1"",""box3"":""999"",""box4"":""999""}","",6,"round3_fail",5,5,3,4,1,NA,NA,0,0,20,NA,NA,NA,NA,NA,NA,NA,NA,NA,NA,NA,NA,NA,NA,NA,NA,NA,NA,NA,NA,1,1,4,1,0,0,20,NA,NA,"",NA,NA,NA,NA,NA,NA,NA,NA,NA,2025-11-21 01:29:02
"null","https://psyc-201.github.io/xiang2023/exp/index1.html?PROLIFIC_PID=REDACTED&STUDY_ID=691f8ca61c6b4dcbb0aeb5f4&SESSION_ID=691fb5a2979be4775b0b15f4","html-keyboard-response",37,1714818,"0.0-352.0","dFoKsFIT33mCiq7ZihZGdQWNVOAlbf7X/dPYrMGD0A0+/VmzxRLFt+dSjR7bjbB3q8OXIr9WTyWCxkRtBX5BX2nTAEtqv/44aSn8gNxU+rW5vqYxajALPje/FUVll5OKLf53Jn41mRWBYjOIBTJEF39hAoA7eaGNp/jqBI2T1FzxFlFoX1lvpDpjzigd3/K8ShLWxzy8oN63ZE4xxY0wxDvLny8EPDxfqNePHfSqOMXa2JbZbrRwIkS67n8TW4dEtc7vH8McUGM26G2f7Lp+DuAAtwjJEc91bsCPmcxoFR4ar5W56Y0V+WWtVZg9VJoKdK516EZAQp2OtTrHU/oF7w==","691f8ca61c6b4dcbb0aeb5f4","691fb5a2979be4775b0b15f4","index1","<span style='color:red'>Fail,<span style='color:red'>Fail,<span style='color:green'>Lift,<span style='color:green'>Lift,<span style='color:red'>Fail,<span style='color:red'>Fail,<span style='color:red'>Fail,<span style='color:red'>Fail,<span style='color:green'>Lift,<span style='color:red'>Fail,<span style='color:red'>Fail,<span style='color:green'>Lift","<span style='color:red'>Fail,<span style='color:red'>Fail,<span style='color:green'>Lift,<span style='color:green'>Lift,<span style='color:green'>Lift,<span style='color:green'>Lift,<span style='color:green'>Lift,<span style='color:red'>Fail,<span style='color:green'>Lift,<span style='color:green'>Lift,<span style='color:red'>Fail,<span style='color:green'>Lift","<span style='color:red'>Fail,<span style='color:green'>Lift,<span style='color:green'>Lift,<span style='color:red'>Fail,<span style='color:green'>Lift,<span style='color:green'>Lift","0,0,1,1,0,0,0,0,1,0,0,1","0,0,1,1,1,1,1,0,1,1,0,1","0,1,1,0,1,1",10,20,20,"","","<p style='font-size:30px'><b> New Contest! </b></p>","null","","",6,"",NA,NA,NA,NA,NA,NA,NA,NA,NA,NA,NA,NA,NA,NA,NA,NA,NA,NA,NA,NA,NA,NA,NA,NA,NA,NA,NA,NA,NA,NA,NA,NA,NA,NA,NA,NA,NA,NA,NA,"",NA,NA,NA,NA,NA,NA,NA,NA,NA,2025-11-21 01:29:02
"28560.29999998212","https://psyc-201.github.io/xiang2023/exp/index1.html?PROLIFIC_PID=REDACTED&STUDY_ID=691f8ca61c6b4dcbb0aeb5f4&SESSION_ID=691fb5a2979be4775b0b15f4","survey-html-form",38,1743380,"0.0-353.0","dFoKsFIT33mCiq7ZihZGdQWNVOAlbf7X/dPYrMGD0A0+/VmzxRLFt+dSjR7bjbB3q8OXIr9WTyWCxkRtBX5BX2nTAEtqv/44aSn8gNxU+rW5vqYxajALPje/FUVll5OKLf53Jn41mRWBYjOIBTJEF39hAoA7eaGNp/jqBI2T1FzxFlFoX1lvpDpjzigd3/K8ShLWxzy8oN63ZE4xxY0wxDvLny8EPDxfqNePHfSqOMXa2JbZbrRwIkS67n8TW4dEtc7vH8McUGM26G2f7Lp+DuAAtwjJEc91bsCPmcxoFR4ar5W56Y0V+WWtVZg9VJoKdK516EZAQp2OtTrHU/oF7w==","691f8ca61c6b4dcbb0aeb5f4","691fb5a2979be4775b0b15f4","index1","<span style='color:red'>Fail,<span style='color:red'>Fail,<span style='color:green'>Lift,<span style='color:green'>Lift,<span style='color:red'>Fail,<span style='color:red'>Fail,<span style='color:red'>Fail,<span style='color:red'>Fail,<span style='color:green'>Lift,<span style='color:red'>Fail,<span style='color:red'>Fail,<span style='color:green'>Lift","<span style='color:red'>Fail,<span style='color:red'>Fail,<span style='color:green'>Lift,<span style='color:green'>Lift,<span style='color:green'>Lift,<span style='color:green'>Lift,<span style='color:green'>Lift,<span style='color:red'>Fail,<span style='color:green'>Lift,<span style='color:green'>Lift,<span style='color:red'>Fail,<span style='color:green'>Lift","<span style='color:red'>Fail,<span style='color:green'>Lift,<span style='color:green'>Lift,<span style='color:red'>Fail,<span style='color:green'>Lift,<span style='color:green'>Lift","0,0,1,1,0,0,0,0,1,0,0,1","0,0,1,1,1,1,1,0,1,1,0,1","0,1,1,0,1,1",10,20,20,"","","","","{""box1"":""5"",""box2"":""5"",""box3"":""80"",""box4"":""80""}","",6,"round1_outcome",1,6,1,5,5,80,80,1,1,10,5,5,80,80,1,1,10,NA,NA,NA,NA,NA,NA,NA,NA,NA,NA,NA,NA,NA,NA,NA,NA,NA,NA,NA,NA,NA,NA,"",NA,NA,NA,NA,NA,NA,NA,NA,NA,2025-11-21 01:29:02
"13918","https://psyc-201.github.io/xiang2023/exp/index1.html?PROLIFIC_PID=REDACTED&STUDY_ID=691f8ca61c6b4dcbb0aeb5f4&SESSION_ID=691fb5a2979be4775b0b15f4","survey-html-form",39,1757300,"0.0-354.0","dFoKsFIT33mCiq7ZihZGdQWNVOAlbf7X/dPYrMGD0A0+/VmzxRLFt+dSjR7bjbB3q8OXIr9WTyWCxkRtBX5BX2nTAEtqv/44aSn8gNxU+rW5vqYxajALPje/FUVll5OKLf53Jn41mRWBYjOIBTJEF39hAoA7eaGNp/jqBI2T1FzxFlFoX1lvpDpjzigd3/K8ShLWxzy8oN63ZE4xxY0wxDvLny8EPDxfqNePHfSqOMXa2JbZbrRwIkS67n8TW4dEtc7vH8McUGM26G2f7Lp+DuAAtwjJEc91bsCPmcxoFR4ar5W56Y0V+WWtVZg9VJoKdK516EZAQp2OtTrHU/oF7w==","691f8ca61c6b4dcbb0aeb5f4","691fb5a2979be4775b0b15f4","index1","<span style='color:red'>Fail,<span style='color:red'>Fail,<span style='color:green'>Lift,<span style='color:green'>Lift,<span style='color:red'>Fail,<span style='color:red'>Fail,<span style='color:red'>Fail,<span style='color:red'>Fail,<span style='color:green'>Lift,<span style='color:red'>Fail,<span style='color:red'>Fail,<span style='color:green'>Lift","<span style='color:red'>Fail,<span style='color:red'>Fail,<span style='color:green'>Lift,<span style='color:green'>Lift,<span style='color:green'>Lift,<span style='color:green'>Lift,<span style='color:green'>Lift,<span style='color:red'>Fail,<span style='color:green'>Lift,<span style='color:green'>Lift,<span style='color:red'>Fail,<span style='color:green'>Lift","<span style='color:red'>Fail,<span style='color:green'>Lift,<span style='color:green'>Lift,<span style='color:red'>Fail,<span style='color:green'>Lift,<span style='color:green'>Lift","0,0,1,1,0,0,0,0,1,0,0,1","0,0,1,1,1,1,1,0,1,1,0,1","0,1,1,0,1,1",10,20,20,"","","","","{""box1"":""95"",""box2"":""95""}","",6,"round2_ready",2,6,2,NA,NA,NA,NA,NA,NA,NA,NA,NA,NA,NA,NA,NA,NA,95,95,95,95,NA,NA,NA,NA,NA,NA,NA,NA,NA,NA,NA,NA,NA,NA,NA,NA,NA,NA,"",NA,NA,NA,NA,NA,NA,NA,NA,NA,2025-11-21 01:29:02
"26821.79999998212","https://psyc-201.github.io/xiang2023/exp/index1.html?PROLIFIC_PID=REDACTED&STUDY_ID=691f8ca61c6b4dcbb0aeb5f4&SESSION_ID=691fb5a2979be4775b0b15f4","survey-html-form",40,1784124,"0.0-355.0","dFoKsFIT33mCiq7ZihZGdQWNVOAlbf7X/dPYrMGD0A0+/VmzxRLFt+dSjR7bjbB3q8OXIr9WTyWCxkRtBX5BX2nTAEtqv/44aSn8gNxU+rW5vqYxajALPje/FUVll5OKLf53Jn41mRWBYjOIBTJEF39hAoA7eaGNp/jqBI2T1FzxFlFoX1lvpDpjzigd3/K8ShLWxzy8oN63ZE4xxY0wxDvLny8EPDxfqNePHfSqOMXa2JbZbrRwIkS67n8TW4dEtc7vH8McUGM26G2f7Lp+DuAAtwjJEc91bsCPmcxoFR4ar5W56Y0V+WWtVZg9VJoKdK516EZAQp2OtTrHU/oF7w==","691f8ca61c6b4dcbb0aeb5f4","691fb5a2979be4775b0b15f4","index1","<span style='color:red'>Fail,<span style='color:red'>Fail,<span style='color:green'>Lift,<span style='color:green'>Lift,<span style='color:red'>Fail,<span style='color:red'>Fail,<span style='color:red'>Fail,<span style='color:red'>Fail,<span style='color:green'>Lift,<span style='color:red'>Fail,<span style='color:red'>Fail,<span style='color:green'>Lift","<span style='color:red'>Fail,<span style='color:red'>Fail,<span style='color:green'>Lift,<span style='color:green'>Lift,<span style='color:green'>Lift,<span style='color:green'>Lift,<span style='color:green'>Lift,<span style='color:red'>Fail,<span style='color:green'>Lift,<span style='color:green'>Lift,<span style='color:red'>Fail,<span style='color:green'>Lift","<span style='color:red'>Fail,<span style='color:green'>Lift,<span style='color:green'>Lift,<span style='color:red'>Fail,<span style='color:green'>Lift,<span style='color:green'>Lift","0,0,1,1,0,0,0,0,1,0,0,1","0,0,1,1,1,1,1,0,1,1,0,1","0,1,1,0,1,1",10,20,20,"","","","","{""box1"":""5"",""box2"":""5"",""box3"":""85"",""box4"":""85""}","",6,"round2_outcome",3,6,2,5,5,85,85,1,1,20,NA,NA,NA,NA,NA,NA,NA,NA,NA,NA,NA,5,5,85,85,1,1,20,NA,NA,NA,NA,NA,NA,NA,NA,NA,NA,NA,"",NA,NA,NA,NA,NA,NA,NA,NA,NA,2025-11-21 01:29:02
"6135.700000017881","https://psyc-201.github.io/xiang2023/exp/index1.html?PROLIFIC_PID=REDACTED&STUDY_ID=691f8ca61c6b4dcbb0aeb5f4&SESSION_ID=691fb5a2979be4775b0b15f4","survey-html-form",41,1790260,"0.0-356.0","dFoKsFIT33mCiq7ZihZGdQWNVOAlbf7X/dPYrMGD0A0+/VmzxRLFt+dSjR7bjbB3q8OXIr9WTyWCxkRtBX5BX2nTAEtqv/44aSn8gNxU+rW5vqYxajALPje/FUVll5OKLf53Jn41mRWBYjOIBTJEF39hAoA7eaGNp/jqBI2T1FzxFlFoX1lvpDpjzigd3/K8ShLWxzy8oN63ZE4xxY0wxDvLny8EPDxfqNePHfSqOMXa2JbZbrRwIkS67n8TW4dEtc7vH8McUGM26G2f7Lp+DuAAtwjJEc91bsCPmcxoFR4ar5W56Y0V+WWtVZg9VJoKdK516EZAQp2OtTrHU/oF7w==","691f8ca61c6b4dcbb0aeb5f4","691fb5a2979be4775b0b15f4","index1","<span style='color:red'>Fail,<span style='color:red'>Fail,<span style='color:green'>Lift,<span style='color:green'>Lift,<span style='color:red'>Fail,<span style='color:red'>Fail,<span style='color:red'>Fail,<span style='color:red'>Fail,<span style='color:green'>Lift,<span style='color:red'>Fail,<span style='color:red'>Fail,<span style='color:green'>Lift","<span style='color:red'>Fail,<span style='color:red'>Fail,<span style='color:green'>Lift,<span style='color:green'>Lift,<span style='color:green'>Lift,<span style='color:green'>Lift,<span style='color:green'>Lift,<span style='color:red'>Fail,<span style='color:green'>Lift,<span style='color:green'>Lift,<span style='color:red'>Fail,<span style='color:green'>Lift","<span style='color:red'>Fail,<span style='color:green'>Lift,<span style='color:green'>Lift,<span style='color:red'>Fail,<span style='color:green'>Lift,<span style='color:green'>Lift","0,0,1,1,0,0,0,0,1,0,0,1","0,0,1,1,1,1,1,0,1,1,0,1","0,1,1,0,1,1",10,20,20,"","","","","{""box1"":""100""}","",6,"round3_ready",4,6,3,NA,NA,NA,NA,NA,NA,NA,NA,NA,NA,NA,NA,NA,NA,100,100,NA,NA,NA,NA,NA,NA,NA,NA,NA,100,100,NA,NA,NA,NA,NA,NA,NA,NA,NA,"",NA,NA,NA,NA,NA,NA,NA,NA,NA,2025-11-21 01:29:02
"28062.19999998808","https://psyc-201.github.io/xiang2023/exp/index1.html?PROLIFIC_PID=REDACTED&STUDY_ID=691f8ca61c6b4dcbb0aeb5f4&SESSION_ID=691fb5a2979be4775b0b15f4","survey-html-form",42,1818325,"0.0-357.0-0.0","dFoKsFIT33mCiq7ZihZGdQWNVOAlbf7X/dPYrMGD0A0+/VmzxRLFt+dSjR7bjbB3q8OXIr9WTyWCxkRtBX5BX2nTAEtqv/44aSn8gNxU+rW5vqYxajALPje/FUVll5OKLf53Jn41mRWBYjOIBTJEF39hAoA7eaGNp/jqBI2T1FzxFlFoX1lvpDpjzigd3/K8ShLWxzy8oN63ZE4xxY0wxDvLny8EPDxfqNePHfSqOMXa2JbZbrRwIkS67n8TW4dEtc7vH8McUGM26G2f7Lp+DuAAtwjJEc91bsCPmcxoFR4ar5W56Y0V+WWtVZg9VJoKdK516EZAQp2OtTrHU/oF7w==","691f8ca61c6b4dcbb0aeb5f4","691fb5a2979be4775b0b15f4","index1","<span style='color:red'>Fail,<span style='color:red'>Fail,<span style='color:green'>Lift,<span style='color:green'>Lift,<span style='color:red'>Fail,<span style='color:red'>Fail,<span style='color:red'>Fail,<span style='color:red'>Fail,<span style='color:green'>Lift,<span style='color:red'>Fail,<span style='color:red'>Fail,<span style='color:green'>Lift","<span style='color:red'>Fail,<span style='color:red'>Fail,<span style='color:green'>Lift,<span style='color:green'>Lift,<span style='color:green'>Lift,<span style='color:green'>Lift,<span style='color:green'>Lift,<span style='color:red'>Fail,<span style='color:green'>Lift,<span style='color:green'>Lift,<span style='color:red'>Fail,<span style='color:green'>Lift","<span style='color:red'>Fail,<span style='color:green'>Lift,<span style='color:green'>Lift,<span style='color:red'>Fail,<span style='color:green'>Lift,<span style='color:green'>Lift","0,0,1,1,0,0,0,0,1,0,0,1","0,0,1,1,1,1,1,0,1,1,0,1","0,1,1,0,1,1",10,20,20,"","","","","{""box1"":""5"",""box2"":""5"",""box3"":""50"",""box4"":""50""}","",6,"round3_lift",5,6,3,5,5,50,50,1,1,20,NA,NA,NA,NA,NA,NA,NA,NA,NA,NA,NA,NA,NA,NA,NA,NA,NA,NA,NA,NA,NA,NA,5,5,1,1,20,50,50,"",NA,NA,NA,NA,NA,NA,NA,NA,NA,2025-11-21 01:29:02
"317075.90000000596","https://psyc-201.github.io/xiang2023/exp/index1.html?PROLIFIC_PID=REDACTED&STUDY_ID=691f8ca61c6b4dcbb0aeb5f4&SESSION_ID=691fb5a2979be4775b0b15f4","survey-text",43,2135408,"0.0-361.0","dFoKsFIT33mCiq7ZihZGdQWNVOAlbf7X/dPYrMGD0A0+/VmzxRLFt+dSjR7bjbB3q8OXIr9WTyWCxkRtBX5BX2nTAEtqv/44aSn8gNxU+rW5vqYxajALPje/FUVll5OKLf53Jn41mRWBYjOIBTJEF39hAoA7eaGNp/jqBI2T1FzxFlFoX1lvpDpjzigd3/K8ShLWxzy8oN63ZE4xxY0wxDvLny8EPDxfqNePHfSqOMXa2JbZbrRwIkS67n8TW4dEtc7vH8McUGM26G2f7Lp+DuAAtwjJEc91bsCPmcxoFR4ar5W56Y0V+WWtVZg9VJoKdK516EZAQp2OtTrHU/oF7w==","691f8ca61c6b4dcbb0aeb5f4","691fb5a2979be4775b0b15f4","index1","<span style='color:red'>Fail,<span style='color:red'>Fail,<span style='color:green'>Lift,<span style='color:green'>Lift,<span style='color:red'>Fail,<span style='color:red'>Fail,<span style='color:red'>Fail,<span style='color:red'>Fail,<span style='color:green'>Lift,<span style='color:red'>Fail,<span style='color:red'>Fail,<span style='color:green'>Lift","<span style='color:red'>Fail,<span style='color:red'>Fail,<span style='color:green'>Lift,<span style='color:green'>Lift,<span style='color:green'>Lift,<span style='color:green'>Lift,<span style='color:green'>Lift,<span style='color:red'>Fail,<span style='color:green'>Lift,<span style='color:green'>Lift,<span style='color:red'>Fail,<span style='color:green'>Lift","<span style='color:red'>Fail,<span style='color:green'>Lift,<span style='color:green'>Lift,<span style='color:red'>Fail,<span style='color:green'>Lift,<span style='color:green'>Lift","0,0,1,1,0,0,0,0,1,0,0,1","0,0,1,1,1,1,1,0,1,1,0,1","0,1,1,0,1,1",10,20,20,"","","","","{""Q0"":"" Judging the strength of each contestant on a 1-10 scale based on results after round 1. We also judge probabilities of success in round 2 and probability of success in round 3 when both contestants lifted the box at the same time. ""}","",NA,"",NA,NA,NA,NA,NA,NA,NA,NA,NA,NA,NA,NA,NA,NA,NA,NA,NA,NA,NA,NA,NA,NA,NA,NA,NA,NA,NA,NA,NA,NA,NA,NA,NA,NA,NA,NA,NA,NA,NA,"",NA,NA,NA,NA,NA,NA,NA,NA,NA,2025-11-21 01:29:02
"22117.29999998212","https://psyc-201.github.io/xiang2023/exp/index1.html?PROLIFIC_PID=REDACTED&STUDY_ID=691f8ca61c6b4dcbb0aeb5f4&SESSION_ID=691fb5a2979be4775b0b15f4","survey-text",44,2157527,"0.0-362.0","dFoKsFIT33mCiq7ZihZGdQWNVOAlbf7X/dPYrMGD0A0+/VmzxRLFt+dSjR7bjbB3q8OXIr9WTyWCxkRtBX5BX2nTAEtqv/44aSn8gNxU+rW5vqYxajALPje/FUVll5OKLf53Jn41mRWBYjOIBTJEF39hAoA7eaGNp/jqBI2T1FzxFlFoX1lvpDpjzigd3/K8ShLWxzy8oN63ZE4xxY0wxDvLny8EPDxfqNePHfSqOMXa2JbZbrRwIkS67n8TW4dEtc7vH8McUGM26G2f7Lp+DuAAtwjJEc91bsCPmcxoFR4ar5W56Y0V+WWtVZg9VJoKdK516EZAQp2OtTrHU/oF7w==","691f8ca61c6b4dcbb0aeb5f4","691fb5a2979be4775b0b15f4","index1","<span style='color:red'>Fail,<span style='color:red'>Fail,<span style='color:green'>Lift,<span style='color:green'>Lift,<span style='color:red'>Fail,<span style='color:red'>Fail,<span style='color:red'>Fail,<span style='color:red'>Fail,<span style='color:green'>Lift,<span style='color:red'>Fail,<span style='color:red'>Fail,<span style='color:green'>Lift","<span style='color:red'>Fail,<span style='color:red'>Fail,<span style='color:green'>Lift,<span style='color:green'>Lift,<span style='color:green'>Lift,<span style='color:green'>Lift,<span style='color:green'>Lift,<span style='color:red'>Fail,<span style='color:green'>Lift,<span style='color:green'>Lift,<span style='color:red'>Fail,<span style='color:green'>Lift","<span style='color:red'>Fail,<span style='color:green'>Lift,<span style='color:green'>Lift,<span style='color:red'>Fail,<span style='color:green'>Lift,<span style='color:green'>Lift","0,0,1,1,0,0,0,0,1,0,0,1","0,0,1,1,1,1,1,0,1,1,0,1","0,1,1,0,1,1",10,20,20,"","","","","{""Q0"":""no comments""}","",NA,"",NA,NA,NA,NA,NA,NA,NA,NA,NA,NA,NA,NA,NA,NA,NA,NA,NA,NA,NA,NA,NA,NA,NA,NA,NA,NA,NA,NA,NA,NA,NA,NA,NA,NA,NA,NA,NA,NA,NA,"[{""event"":""fullscreenenter"",""trial"":1,""time"":34610}]",1,3,NA,100,0,0,NA,NA,NA,2025-11-21 01:29:02
"24070.100000023842","https://psyc-201.github.io/xiang2023/exp/index1.html?PROLIFIC_PID=REDACTED&STUDY_ID=691f8ca61c6b4dcbb0aeb5f4&SESSION_ID=691fb5a2979be4775b0b15f4","html-button-response",45,2181599,"0.0-363.0","dFoKsFIT33mCiq7ZihZGdQWNVOAlbf7X/dPYrMGD0A0+/VmzxRLFt+dSjR7bjbB3q8OXIr9WTyWCxkRtBX5BX2nTAEtqv/44aSn8gNxU+rW5vqYxajALPje/FUVll5OKLf53Jn41mRWBYjOIBTJEF39hAoA7eaGNp/jqBI2T1FzxFlFoX1lvpDpjzigd3/K8ShLWxzy8oN63ZE4xxY0wxDvLny8EPDxfqNePHfSqOMXa2JbZbrRwIkS67n8TW4dEtc7vH8McUGM26G2f7Lp+DuAAtwjJEc91bsCPmcxoFR4ar5W56Y0V+WWtVZg9VJoKdK516EZAQp2OtTrHU/oF7w==","691f8ca61c6b4dcbb0aeb5f4","691fb5a2979be4775b0b15f4","index1","<span style='color:red'>Fail,<span style='color:red'>Fail,<span style='color:green'>Lift,<span style='color:green'>Lift,<span style='color:red'>Fail,<span style='color:red'>Fail,<span style='color:red'>Fail,<span style='color:red'>Fail,<span style='color:green'>Lift,<span style='color:red'>Fail,<span style='color:red'>Fail,<span style='color:green'>Lift","<span style='color:red'>Fail,<span style='color:red'>Fail,<span style='color:green'>Lift,<span style='color:green'>Lift,<span style='color:green'>Lift,<span style='color:green'>Lift,<span style='color:green'>Lift,<span style='color:red'>Fail,<span style='color:green'>Lift,<span style='color:green'>Lift,<span style='color:red'>Fail,<span style='color:green'>Lift","<span style='color:red'>Fail,<span style='color:green'>Lift,<span style='color:green'>Lift,<span style='color:red'>Fail,<span style='color:green'>Lift,<span style='color:green'>Lift","0,0,1,1,0,0,0,0,1,0,0,1","0,0,1,1,1,1,1,0,1,1,0,1","0,1,1,0,1,1",10,20,20,"","","<p> We randomly picked <b>Contest 1, Round 3</b> to calculate your bonus. </p><p> The outcome of Contestant A and B on that round is <span style='color:red'>Fail</span>. </p><p> The probability you entered was 100. </p><p><b> You won a bonus of $0.00!</b></p><p> IMPORTANT: Please click 'Next' to complete the game. </p>","","","",NA,"",NA,NA,NA,NA,NA,NA,NA,NA,NA,NA,NA,NA,NA,NA,NA,NA,NA,NA,NA,NA,NA,NA,NA,NA,NA,NA,NA,NA,NA,NA,NA,NA,NA,NA,NA,NA,NA,NA,NA,"",NA,NA,NA,NA,NA,NA,0,2,1,2025-11-21 01:29:02
