"rt","url","trial_type","trial_index","time_elapsed","internal_node_id","encryptedProlificId","studyId","sessionId","expIndex","round1_outcomes","round2_outcomes","round3_outcomes","round1_o","round2_o","round3_o","round1_reward","round2_reward","round3_reward","success","view_history","stimulus","key_press","responses","question_order","button_pressed","j","Stage","stage","contest","round","strength_a","strength_b","effort_a","effort_b","outcome_a","outcome_b","reward","r1_strength_a","r1_strength_b","r1_effort_a","r1_effort_b","r1_outcome_a","r1_outcome_b","r1_reward","probability_a","probability_b","r2_prob_a","r2_prob_b","r2_strength_a","r2_strength_b","r2_effort_a","r2_effort_b","r2_outcome_a","r2_outcome_b","r2_reward","r3_prob_a","r3_prob_b","r3_strength_a","r3_strength_b","r3_effort_a","r3_effort_b","r3_outcome_a","r3_outcome_b","r3_reward","attention_check","count","screen","pick_contest","pick_round","pick_side","trial_probability","trial_outcome","bonus","attention_sum","attention","datapipe_meta.attributes.date_modified"
"5168.29999999702","https://psyc-201.github.io/xiang2023/exp/index1.html?PROLIFIC_PID=REDACTED&STUDY_ID=691f8ca61c6b4dcbb0aeb5f4&SESSION_ID=691fae574df6394e97ce24fa","external-html",0,5600,"0.0-0.0","g/qitCDKTRC9tXC/CYWUl0ulr5nBZv00ofWtlm+wdjW/YQRuX+tdAFkpGTJDyIGxZx2dAs7UZev3TWF45ouKtjLjF7OP33oJNl9MJEjCrYik2qPp5s90jH/Tdh8oHUkNhR8u8iSTvT+U4JqKEl5KgvIks2Rc0Wdz7/gSWweMwS7lp7HB3HIQeUnevht6JafR1peBr2w9AA2WUc5Is4GT6trUv42pTK/pOTZXFlIUiIPsErs+0GK5wnzqIUe47ckFWMfpMkHok8hQsgAI5md1QyifY1yXxf/1YbdtaOCl/gyex62v2CMbWk/9KJivDoYgqrVZMBf0J7VRr8SdkGqp8g==","691f8ca61c6b4dcbb0aeb5f4","691fae574df6394e97ce24fa","index1","<span style='color:red'>Fail,<span style='color:red'>Fail,<span style='color:green'>Lift,<span style='color:green'>Lift,<span style='color:red'>Fail,<span style='color:red'>Fail,<span style='color:red'>Fail,<span style='color:red'>Fail,<span style='color:red'>Fail,<span style='color:green'>Lift,<span style='color:red'>Fail,<span style='color:green'>Lift","<span style='color:red'>Fail,<span style='color:red'>Fail,<span style='color:green'>Lift,<span style='color:green'>Lift,<span style='color:green'>Lift,<span style='color:green'>Lift,<span style='color:green'>Lift,<span style='color:red'>Fail,<span style='color:green'>Lift,<span style='color:green'>Lift,<span style='color:red'>Fail,<span style='color:green'>Lift","<span style='color:red'>Fail,<span style='color:green'>Lift,<span style='color:green'>Lift,<span style='color:red'>Fail,<span style='color:green'>Lift,<span style='color:green'>Lift","0,0,1,1,0,0,0,0,0,1,0,1","0,0,1,1,1,1,1,0,1,1,0,1","0,1,1,0,1,1",10,20,20,"","","","","","",NA,NA,"",NA,NA,NA,NA,NA,NA,NA,NA,NA,NA,NA,NA,NA,NA,NA,NA,NA,NA,NA,NA,NA,NA,NA,NA,NA,NA,NA,NA,NA,NA,NA,NA,NA,NA,NA,NA,NA,NA,NA,"",NA,NA,NA,NA,NA,NA,NA,NA,2025-11-21 00:24:44
"","https://psyc-201.github.io/xiang2023/exp/index1.html?PROLIFIC_PID=REDACTED&STUDY_ID=691f8ca61c6b4dcbb0aeb5f4&SESSION_ID=691fae574df6394e97ce24fa","fullscreen",1,14497,"0.0-1.0","g/qitCDKTRC9tXC/CYWUl0ulr5nBZv00ofWtlm+wdjW/YQRuX+tdAFkpGTJDyIGxZx2dAs7UZev3TWF45ouKtjLjF7OP33oJNl9MJEjCrYik2qPp5s90jH/Tdh8oHUkNhR8u8iSTvT+U4JqKEl5KgvIks2Rc0Wdz7/gSWweMwS7lp7HB3HIQeUnevht6JafR1peBr2w9AA2WUc5Is4GT6trUv42pTK/pOTZXFlIUiIPsErs+0GK5wnzqIUe47ckFWMfpMkHok8hQsgAI5md1QyifY1yXxf/1YbdtaOCl/gyex62v2CMbWk/9KJivDoYgqrVZMBf0J7VRr8SdkGqp8g==","691f8ca61c6b4dcbb0aeb5f4","691fae574df6394e97ce24fa","index1","<span style='color:red'>Fail,<span style='color:red'>Fail,<span style='color:green'>Lift,<span style='color:green'>Lift,<span style='color:red'>Fail,<span style='color:red'>Fail,<span style='color:red'>Fail,<span style='color:red'>Fail,<span style='color:red'>Fail,<span style='color:green'>Lift,<span style='color:red'>Fail,<span style='color:green'>Lift","<span style='color:red'>Fail,<span style='color:red'>Fail,<span style='color:green'>Lift,<span style='color:green'>Lift,<span style='color:green'>Lift,<span style='color:green'>Lift,<span style='color:green'>Lift,<span style='color:red'>Fail,<span style='color:green'>Lift,<span style='color:green'>Lift,<span style='color:red'>Fail,<span style='color:green'>Lift","<span style='color:red'>Fail,<span style='color:green'>Lift,<span style='color:green'>Lift,<span style='color:red'>Fail,<span style='color:green'>Lift,<span style='color:green'>Lift","0,0,1,1,0,0,0,0,0,1,0,1","0,0,1,1,1,1,1,0,1,1,0,1","0,1,1,0,1,1",10,20,20,"true","","","","","",NA,NA,"",NA,NA,NA,NA,NA,NA,NA,NA,NA,NA,NA,NA,NA,NA,NA,NA,NA,NA,NA,NA,NA,NA,NA,NA,NA,NA,NA,NA,NA,NA,NA,NA,NA,NA,NA,NA,NA,NA,NA,"",NA,NA,NA,NA,NA,NA,NA,NA,2025-11-21 00:24:44
"127369.59999999404","https://psyc-201.github.io/xiang2023/exp/index1.html?PROLIFIC_PID=REDACTED&STUDY_ID=691f8ca61c6b4dcbb0aeb5f4&SESSION_ID=691fae574df6394e97ce24fa","instructions",2,141869,"0.0-2.0","g/qitCDKTRC9tXC/CYWUl0ulr5nBZv00ofWtlm+wdjW/YQRuX+tdAFkpGTJDyIGxZx2dAs7UZev3TWF45ouKtjLjF7OP33oJNl9MJEjCrYik2qPp5s90jH/Tdh8oHUkNhR8u8iSTvT+U4JqKEl5KgvIks2Rc0Wdz7/gSWweMwS7lp7HB3HIQeUnevht6JafR1peBr2w9AA2WUc5Is4GT6trUv42pTK/pOTZXFlIUiIPsErs+0GK5wnzqIUe47ckFWMfpMkHok8hQsgAI5md1QyifY1yXxf/1YbdtaOCl/gyex62v2CMbWk/9KJivDoYgqrVZMBf0J7VRr8SdkGqp8g==","691f8ca61c6b4dcbb0aeb5f4","691fae574df6394e97ce24fa","index1","<span style='color:red'>Fail,<span style='color:red'>Fail,<span style='color:green'>Lift,<span style='color:green'>Lift,<span style='color:red'>Fail,<span style='color:red'>Fail,<span style='color:red'>Fail,<span style='color:red'>Fail,<span style='color:red'>Fail,<span style='color:green'>Lift,<span style='color:red'>Fail,<span style='color:green'>Lift","<span style='color:red'>Fail,<span style='color:red'>Fail,<span style='color:green'>Lift,<span style='color:green'>Lift,<span style='color:green'>Lift,<span style='color:green'>Lift,<span style='color:green'>Lift,<span style='color:red'>Fail,<span style='color:green'>Lift,<span style='color:green'>Lift,<span style='color:red'>Fail,<span style='color:green'>Lift","<span style='color:red'>Fail,<span style='color:green'>Lift,<span style='color:green'>Lift,<span style='color:red'>Fail,<span style='color:green'>Lift,<span style='color:green'>Lift","0,0,1,1,0,0,0,0,0,1,0,1","0,0,1,1,1,1,1,0,1,1,0,1","0,1,1,0,1,1",10,20,20,"","[{""page_index"":0,""viewing_time"":36643.59999999404},{""page_index"":1,""viewing_time"":16901.59999999404},{""page_index"":2,""viewing_time"":19084},{""page_index"":3,""viewing_time"":30948.10000000894},{""page_index"":4,""viewing_time"":7516.20000000298},{""page_index"":5,""viewing_time"":10533.199999988079},{""page_index"":6,""viewing_time"":5742.5}]","","","","",NA,NA,"",NA,NA,NA,NA,NA,NA,NA,NA,NA,NA,NA,NA,NA,NA,NA,NA,NA,NA,NA,NA,NA,NA,NA,NA,NA,NA,NA,NA,NA,NA,NA,NA,NA,NA,NA,NA,NA,NA,NA,"",NA,NA,NA,NA,NA,NA,NA,NA,2025-11-21 00:24:44
"null","https://psyc-201.github.io/xiang2023/exp/index1.html?PROLIFIC_PID=REDACTED&STUDY_ID=691f8ca61c6b4dcbb0aeb5f4&SESSION_ID=691fae574df6394e97ce24fa","html-keyboard-response",3,142872,"0.0-3.0","g/qitCDKTRC9tXC/CYWUl0ulr5nBZv00ofWtlm+wdjW/YQRuX+tdAFkpGTJDyIGxZx2dAs7UZev3TWF45ouKtjLjF7OP33oJNl9MJEjCrYik2qPp5s90jH/Tdh8oHUkNhR8u8iSTvT+U4JqKEl5KgvIks2Rc0Wdz7/gSWweMwS7lp7HB3HIQeUnevht6JafR1peBr2w9AA2WUc5Is4GT6trUv42pTK/pOTZXFlIUiIPsErs+0GK5wnzqIUe47ckFWMfpMkHok8hQsgAI5md1QyifY1yXxf/1YbdtaOCl/gyex62v2CMbWk/9KJivDoYgqrVZMBf0J7VRr8SdkGqp8g==","691f8ca61c6b4dcbb0aeb5f4","691fae574df6394e97ce24fa","index1","<span style='color:red'>Fail,<span style='color:red'>Fail,<span style='color:green'>Lift,<span style='color:green'>Lift,<span style='color:red'>Fail,<span style='color:red'>Fail,<span style='color:red'>Fail,<span style='color:red'>Fail,<span style='color:red'>Fail,<span style='color:green'>Lift,<span style='color:red'>Fail,<span style='color:green'>Lift","<span style='color:red'>Fail,<span style='color:red'>Fail,<span style='color:green'>Lift,<span style='color:green'>Lift,<span style='color:green'>Lift,<span style='color:green'>Lift,<span style='color:green'>Lift,<span style='color:red'>Fail,<span style='color:green'>Lift,<span style='color:green'>Lift,<span style='color:red'>Fail,<span style='color:green'>Lift","<span style='color:red'>Fail,<span style='color:green'>Lift,<span style='color:green'>Lift,<span style='color:red'>Fail,<span style='color:green'>Lift,<span style='color:green'>Lift","0,0,1,1,0,0,0,0,0,1,0,1","0,0,1,1,1,1,1,0,1,1,0,1","0,1,1,0,1,1",10,20,20,"",""," ","null","","",NA,NA,"",NA,NA,NA,NA,NA,NA,NA,NA,NA,NA,NA,NA,NA,NA,NA,NA,NA,NA,NA,NA,NA,NA,NA,NA,NA,NA,NA,NA,NA,NA,NA,NA,NA,NA,NA,NA,NA,NA,NA,"",NA,NA,NA,NA,NA,NA,NA,NA,2025-11-21 00:24:44
"37400.40000000596","https://psyc-201.github.io/xiang2023/exp/index1.html?PROLIFIC_PID=REDACTED&STUDY_ID=691f8ca61c6b4dcbb0aeb5f4&SESSION_ID=691fae574df6394e97ce24fa","survey-multi-choice",4,180277,"0.0-4.0","g/qitCDKTRC9tXC/CYWUl0ulr5nBZv00ofWtlm+wdjW/YQRuX+tdAFkpGTJDyIGxZx2dAs7UZev3TWF45ouKtjLjF7OP33oJNl9MJEjCrYik2qPp5s90jH/Tdh8oHUkNhR8u8iSTvT+U4JqKEl5KgvIks2Rc0Wdz7/gSWweMwS7lp7HB3HIQeUnevht6JafR1peBr2w9AA2WUc5Is4GT6trUv42pTK/pOTZXFlIUiIPsErs+0GK5wnzqIUe47ckFWMfpMkHok8hQsgAI5md1QyifY1yXxf/1YbdtaOCl/gyex62v2CMbWk/9KJivDoYgqrVZMBf0J7VRr8SdkGqp8g==","691f8ca61c6b4dcbb0aeb5f4","691fae574df6394e97ce24fa","index1","<span style='color:red'>Fail,<span style='color:red'>Fail,<span style='color:green'>Lift,<span style='color:green'>Lift,<span style='color:red'>Fail,<span style='color:red'>Fail,<span style='color:red'>Fail,<span style='color:red'>Fail,<span style='color:red'>Fail,<span style='color:green'>Lift,<span style='color:red'>Fail,<span style='color:green'>Lift","<span style='color:red'>Fail,<span style='color:red'>Fail,<span style='color:green'>Lift,<span style='color:green'>Lift,<span style='color:green'>Lift,<span style='color:green'>Lift,<span style='color:green'>Lift,<span style='color:red'>Fail,<span style='color:green'>Lift,<span style='color:green'>Lift,<span style='color:red'>Fail,<span style='color:green'>Lift","<span style='color:red'>Fail,<span style='color:green'>Lift,<span style='color:green'>Lift,<span style='color:red'>Fail,<span style='color:green'>Lift,<span style='color:green'>Lift","0,0,1,1,0,0,0,0,0,1,0,1","0,0,1,1,1,1,1,0,1,1,0,1","0,1,1,0,1,1",10,20,20,"","","","","{""Q0"":""It consists of multiple contests, each contest with three rounds."",""Q1"":""Contestants are always the same across contests."",""Q2"":""The box weight changes across contests, but not across rounds within each contest."",""Q3"":""Each will get $20."",""Q4"":""How close my guesses are to the actual outcome.""}","[0,1,2,3,4]",NA,NA,"",NA,NA,NA,NA,NA,NA,NA,NA,NA,NA,NA,NA,NA,NA,NA,NA,NA,NA,NA,NA,NA,NA,NA,NA,NA,NA,NA,NA,NA,NA,NA,NA,NA,NA,NA,NA,NA,NA,NA,"",NA,NA,NA,NA,NA,NA,NA,NA,2025-11-21 00:24:44
"2828.9000000059605","https://psyc-201.github.io/xiang2023/exp/index1.html?PROLIFIC_PID=REDACTED&STUDY_ID=691f8ca61c6b4dcbb0aeb5f4&SESSION_ID=691fae574df6394e97ce24fa","html-button-response",5,183109,"0.0-5.0-1.0","g/qitCDKTRC9tXC/CYWUl0ulr5nBZv00ofWtlm+wdjW/YQRuX+tdAFkpGTJDyIGxZx2dAs7UZev3TWF45ouKtjLjF7OP33oJNl9MJEjCrYik2qPp5s90jH/Tdh8oHUkNhR8u8iSTvT+U4JqKEl5KgvIks2Rc0Wdz7/gSWweMwS7lp7HB3HIQeUnevht6JafR1peBr2w9AA2WUc5Is4GT6trUv42pTK/pOTZXFlIUiIPsErs+0GK5wnzqIUe47ckFWMfpMkHok8hQsgAI5md1QyifY1yXxf/1YbdtaOCl/gyex62v2CMbWk/9KJivDoYgqrVZMBf0J7VRr8SdkGqp8g==","691f8ca61c6b4dcbb0aeb5f4","691fae574df6394e97ce24fa","index1","<span style='color:red'>Fail,<span style='color:red'>Fail,<span style='color:green'>Lift,<span style='color:green'>Lift,<span style='color:red'>Fail,<span style='color:red'>Fail,<span style='color:red'>Fail,<span style='color:red'>Fail,<span style='color:red'>Fail,<span style='color:green'>Lift,<span style='color:red'>Fail,<span style='color:green'>Lift","<span style='color:red'>Fail,<span style='color:red'>Fail,<span style='color:green'>Lift,<span style='color:green'>Lift,<span style='color:green'>Lift,<span style='color:green'>Lift,<span style='color:green'>Lift,<span style='color:red'>Fail,<span style='color:green'>Lift,<span style='color:green'>Lift,<span style='color:red'>Fail,<span style='color:green'>Lift","<span style='color:red'>Fail,<span style='color:green'>Lift,<span style='color:green'>Lift,<span style='color:red'>Fail,<span style='color:green'>Lift,<span style='color:green'>Lift","0,0,1,1,0,0,0,0,0,1,0,1","0,0,1,1,1,1,1,0,1,1,0,1","0,1,1,0,1,1",10,20,20,"","","<p> Oops! You did not pass the comprehension check. <b>Please note that you have only 1 attempt(s) left.</b> </p>","","","",1,NA,"",NA,NA,NA,NA,NA,NA,NA,NA,NA,NA,NA,NA,NA,NA,NA,NA,NA,NA,NA,NA,NA,NA,NA,NA,NA,NA,NA,NA,NA,NA,NA,NA,NA,NA,NA,NA,NA,NA,NA,"",NA,NA,NA,NA,NA,NA,NA,NA,2025-11-21 00:24:44
"39250.29999999702","https://psyc-201.github.io/xiang2023/exp/index1.html?PROLIFIC_PID=REDACTED&STUDY_ID=691f8ca61c6b4dcbb0aeb5f4&SESSION_ID=691fae574df6394e97ce24fa","instructions",6,222360,"0.0-6.0-0.0","g/qitCDKTRC9tXC/CYWUl0ulr5nBZv00ofWtlm+wdjW/YQRuX+tdAFkpGTJDyIGxZx2dAs7UZev3TWF45ouKtjLjF7OP33oJNl9MJEjCrYik2qPp5s90jH/Tdh8oHUkNhR8u8iSTvT+U4JqKEl5KgvIks2Rc0Wdz7/gSWweMwS7lp7HB3HIQeUnevht6JafR1peBr2w9AA2WUc5Is4GT6trUv42pTK/pOTZXFlIUiIPsErs+0GK5wnzqIUe47ckFWMfpMkHok8hQsgAI5md1QyifY1yXxf/1YbdtaOCl/gyex62v2CMbWk/9KJivDoYgqrVZMBf0J7VRr8SdkGqp8g==","691f8ca61c6b4dcbb0aeb5f4","691fae574df6394e97ce24fa","index1","<span style='color:red'>Fail,<span style='color:red'>Fail,<span style='color:green'>Lift,<span style='color:green'>Lift,<span style='color:red'>Fail,<span style='color:red'>Fail,<span style='color:red'>Fail,<span style='color:red'>Fail,<span style='color:red'>Fail,<span style='color:green'>Lift,<span style='color:red'>Fail,<span style='color:green'>Lift","<span style='color:red'>Fail,<span style='color:red'>Fail,<span style='color:green'>Lift,<span style='color:green'>Lift,<span style='color:green'>Lift,<span style='color:green'>Lift,<span style='color:green'>Lift,<span style='color:red'>Fail,<span style='color:green'>Lift,<span style='color:green'>Lift,<span style='color:red'>Fail,<span style='color:green'>Lift","<span style='color:red'>Fail,<span style='color:green'>Lift,<span style='color:green'>Lift,<span style='color:red'>Fail,<span style='color:green'>Lift,<span style='color:green'>Lift","0,0,1,1,0,0,0,0,0,1,0,1","0,0,1,1,1,1,1,0,1,1,0,1","0,1,1,0,1,1",10,20,20,"","[{""page_index"":0,""viewing_time"":18334},{""page_index"":1,""viewing_time"":16124.39999999106},{""page_index"":2,""viewing_time"":1059.4000000059605},{""page_index"":3,""viewing_time"":1496.0999999940395},{""page_index"":4,""viewing_time"":1095.9000000059605},{""page_index"":5,""viewing_time"":592.3999999910593},{""page_index"":6,""viewing_time"":547.8000000119209}]","","","","",NA,NA,"",NA,NA,NA,NA,NA,NA,NA,NA,NA,NA,NA,NA,NA,NA,NA,NA,NA,NA,NA,NA,NA,NA,NA,NA,NA,NA,NA,NA,NA,NA,NA,NA,NA,NA,NA,NA,NA,NA,NA,"",NA,NA,NA,NA,NA,NA,NA,NA,2025-11-21 00:24:44
"null","https://psyc-201.github.io/xiang2023/exp/index1.html?PROLIFIC_PID=REDACTED&STUDY_ID=691f8ca61c6b4dcbb0aeb5f4&SESSION_ID=691fae574df6394e97ce24fa","html-keyboard-response",7,223363,"0.0-6.0-1.0","g/qitCDKTRC9tXC/CYWUl0ulr5nBZv00ofWtlm+wdjW/YQRuX+tdAFkpGTJDyIGxZx2dAs7UZev3TWF45ouKtjLjF7OP33oJNl9MJEjCrYik2qPp5s90jH/Tdh8oHUkNhR8u8iSTvT+U4JqKEl5KgvIks2Rc0Wdz7/gSWweMwS7lp7HB3HIQeUnevht6JafR1peBr2w9AA2WUc5Is4GT6trUv42pTK/pOTZXFlIUiIPsErs+0GK5wnzqIUe47ckFWMfpMkHok8hQsgAI5md1QyifY1yXxf/1YbdtaOCl/gyex62v2CMbWk/9KJivDoYgqrVZMBf0J7VRr8SdkGqp8g==","691f8ca61c6b4dcbb0aeb5f4","691fae574df6394e97ce24fa","index1","<span style='color:red'>Fail,<span style='color:red'>Fail,<span style='color:green'>Lift,<span style='color:green'>Lift,<span style='color:red'>Fail,<span style='color:red'>Fail,<span style='color:red'>Fail,<span style='color:red'>Fail,<span style='color:red'>Fail,<span style='color:green'>Lift,<span style='color:red'>Fail,<span style='color:green'>Lift","<span style='color:red'>Fail,<span style='color:red'>Fail,<span style='color:green'>Lift,<span style='color:green'>Lift,<span style='color:green'>Lift,<span style='color:green'>Lift,<span style='color:green'>Lift,<span style='color:red'>Fail,<span style='color:green'>Lift,<span style='color:green'>Lift,<span style='color:red'>Fail,<span style='color:green'>Lift","<span style='color:red'>Fail,<span style='color:green'>Lift,<span style='color:green'>Lift,<span style='color:red'>Fail,<span style='color:green'>Lift,<span style='color:green'>Lift","0,0,1,1,0,0,0,0,0,1,0,1","0,0,1,1,1,1,1,0,1,1,0,1","0,1,1,0,1,1",10,20,20,"",""," ","null","","",NA,NA,"",NA,NA,NA,NA,NA,NA,NA,NA,NA,NA,NA,NA,NA,NA,NA,NA,NA,NA,NA,NA,NA,NA,NA,NA,NA,NA,NA,NA,NA,NA,NA,NA,NA,NA,NA,NA,NA,NA,NA,"",NA,NA,NA,NA,NA,NA,NA,NA,2025-11-21 00:24:44
"23706.70000000298","https://psyc-201.github.io/xiang2023/exp/index1.html?PROLIFIC_PID=REDACTED&STUDY_ID=691f8ca61c6b4dcbb0aeb5f4&SESSION_ID=691fae574df6394e97ce24fa","survey-multi-choice",8,247073,"0.0-7.0-0.0","g/qitCDKTRC9tXC/CYWUl0ulr5nBZv00ofWtlm+wdjW/YQRuX+tdAFkpGTJDyIGxZx2dAs7UZev3TWF45ouKtjLjF7OP33oJNl9MJEjCrYik2qPp5s90jH/Tdh8oHUkNhR8u8iSTvT+U4JqKEl5KgvIks2Rc0Wdz7/gSWweMwS7lp7HB3HIQeUnevht6JafR1peBr2w9AA2WUc5Is4GT6trUv42pTK/pOTZXFlIUiIPsErs+0GK5wnzqIUe47ckFWMfpMkHok8hQsgAI5md1QyifY1yXxf/1YbdtaOCl/gyex62v2CMbWk/9KJivDoYgqrVZMBf0J7VRr8SdkGqp8g==","691f8ca61c6b4dcbb0aeb5f4","691fae574df6394e97ce24fa","index1","<span style='color:red'>Fail,<span style='color:red'>Fail,<span style='color:green'>Lift,<span style='color:green'>Lift,<span style='color:red'>Fail,<span style='color:red'>Fail,<span style='color:red'>Fail,<span style='color:red'>Fail,<span style='color:red'>Fail,<span style='color:green'>Lift,<span style='color:red'>Fail,<span style='color:green'>Lift","<span style='color:red'>Fail,<span style='color:red'>Fail,<span style='color:green'>Lift,<span style='color:green'>Lift,<span style='color:green'>Lift,<span style='color:green'>Lift,<span style='color:green'>Lift,<span style='color:red'>Fail,<span style='color:green'>Lift,<span style='color:green'>Lift,<span style='color:red'>Fail,<span style='color:green'>Lift","<span style='color:red'>Fail,<span style='color:green'>Lift,<span style='color:green'>Lift,<span style='color:red'>Fail,<span style='color:green'>Lift,<span style='color:green'>Lift","0,0,1,1,0,0,0,0,0,1,0,1","0,0,1,1,1,1,1,0,1,1,0,1","0,1,1,0,1,1",10,20,20,"","","","","{""Q0"":""It consists of multiple contests, each contest with three rounds."",""Q1"":""When a new contest begins."",""Q2"":""The box weight always stays the same (equivalent to strength of 5)."",""Q3"":""Each will get $20."",""Q4"":""How close my guesses are to the actual outcome.""}","[0,1,2,3,4]",NA,NA,"",NA,NA,NA,NA,NA,NA,NA,NA,NA,NA,NA,NA,NA,NA,NA,NA,NA,NA,NA,NA,NA,NA,NA,NA,NA,NA,NA,NA,NA,NA,NA,NA,NA,NA,NA,NA,NA,NA,NA,"",NA,NA,NA,NA,NA,NA,NA,NA,2025-11-21 00:24:44
"10291.70000000298","https://psyc-201.github.io/xiang2023/exp/index1.html?PROLIFIC_PID=REDACTED&STUDY_ID=691f8ca61c6b4dcbb0aeb5f4&SESSION_ID=691fae574df6394e97ce24fa","instructions",9,257372,"0.0-305.0","g/qitCDKTRC9tXC/CYWUl0ulr5nBZv00ofWtlm+wdjW/YQRuX+tdAFkpGTJDyIGxZx2dAs7UZev3TWF45ouKtjLjF7OP33oJNl9MJEjCrYik2qPp5s90jH/Tdh8oHUkNhR8u8iSTvT+U4JqKEl5KgvIks2Rc0Wdz7/gSWweMwS7lp7HB3HIQeUnevht6JafR1peBr2w9AA2WUc5Is4GT6trUv42pTK/pOTZXFlIUiIPsErs+0GK5wnzqIUe47ckFWMfpMkHok8hQsgAI5md1QyifY1yXxf/1YbdtaOCl/gyex62v2CMbWk/9KJivDoYgqrVZMBf0J7VRr8SdkGqp8g==","691f8ca61c6b4dcbb0aeb5f4","691fae574df6394e97ce24fa","index1","<span style='color:red'>Fail,<span style='color:red'>Fail,<span style='color:green'>Lift,<span style='color:green'>Lift,<span style='color:red'>Fail,<span style='color:red'>Fail,<span style='color:red'>Fail,<span style='color:red'>Fail,<span style='color:red'>Fail,<span style='color:green'>Lift,<span style='color:red'>Fail,<span style='color:green'>Lift","<span style='color:red'>Fail,<span style='color:red'>Fail,<span style='color:green'>Lift,<span style='color:green'>Lift,<span style='color:green'>Lift,<span style='color:green'>Lift,<span style='color:green'>Lift,<span style='color:red'>Fail,<span style='color:green'>Lift,<span style='color:green'>Lift,<span style='color:red'>Fail,<span style='color:green'>Lift","<span style='color:red'>Fail,<span style='color:green'>Lift,<span style='color:green'>Lift,<span style='color:red'>Fail,<span style='color:green'>Lift,<span style='color:green'>Lift","0,0,1,1,0,0,0,0,0,1,0,1","0,0,1,1,1,1,1,0,1,1,0,1","0,1,1,0,1,1",10,20,20,"","[{""page_index"":0,""viewing_time"":7131.4000000059605},{""page_index"":1,""viewing_time"":3160}]","","","","",NA,NA,"",NA,NA,NA,NA,NA,NA,NA,NA,NA,NA,NA,NA,NA,NA,NA,NA,NA,NA,NA,NA,NA,NA,NA,NA,NA,NA,NA,NA,NA,NA,NA,NA,NA,NA,NA,NA,NA,NA,NA,"",NA,NA,NA,NA,NA,NA,NA,NA,2025-11-21 00:24:44
"null","https://psyc-201.github.io/xiang2023/exp/index1.html?PROLIFIC_PID=REDACTED&STUDY_ID=691f8ca61c6b4dcbb0aeb5f4&SESSION_ID=691fae574df6394e97ce24fa","html-keyboard-response",10,258380,"0.0-306.0","g/qitCDKTRC9tXC/CYWUl0ulr5nBZv00ofWtlm+wdjW/YQRuX+tdAFkpGTJDyIGxZx2dAs7UZev3TWF45ouKtjLjF7OP33oJNl9MJEjCrYik2qPp5s90jH/Tdh8oHUkNhR8u8iSTvT+U4JqKEl5KgvIks2Rc0Wdz7/gSWweMwS7lp7HB3HIQeUnevht6JafR1peBr2w9AA2WUc5Is4GT6trUv42pTK/pOTZXFlIUiIPsErs+0GK5wnzqIUe47ckFWMfpMkHok8hQsgAI5md1QyifY1yXxf/1YbdtaOCl/gyex62v2CMbWk/9KJivDoYgqrVZMBf0J7VRr8SdkGqp8g==","691f8ca61c6b4dcbb0aeb5f4","691fae574df6394e97ce24fa","index1","<span style='color:red'>Fail,<span style='color:red'>Fail,<span style='color:green'>Lift,<span style='color:green'>Lift,<span style='color:red'>Fail,<span style='color:red'>Fail,<span style='color:red'>Fail,<span style='color:red'>Fail,<span style='color:red'>Fail,<span style='color:green'>Lift,<span style='color:red'>Fail,<span style='color:green'>Lift","<span style='color:red'>Fail,<span style='color:red'>Fail,<span style='color:green'>Lift,<span style='color:green'>Lift,<span style='color:green'>Lift,<span style='color:green'>Lift,<span style='color:green'>Lift,<span style='color:red'>Fail,<span style='color:green'>Lift,<span style='color:green'>Lift,<span style='color:red'>Fail,<span style='color:green'>Lift","<span style='color:red'>Fail,<span style='color:green'>Lift,<span style='color:green'>Lift,<span style='color:red'>Fail,<span style='color:green'>Lift,<span style='color:green'>Lift","0,0,1,1,0,0,0,0,0,1,0,1","0,0,1,1,1,1,1,0,1,1,0,1","0,1,1,0,1,1",10,20,20,"",""," ","null","","",NA,1,"",NA,NA,NA,NA,NA,NA,NA,NA,NA,NA,NA,NA,NA,NA,NA,NA,NA,NA,NA,NA,NA,NA,NA,NA,NA,NA,NA,NA,NA,NA,NA,NA,NA,NA,NA,NA,NA,NA,NA,"",NA,NA,NA,NA,NA,NA,NA,NA,2025-11-21 00:24:44
"null","https://psyc-201.github.io/xiang2023/exp/index1.html?PROLIFIC_PID=REDACTED&STUDY_ID=691f8ca61c6b4dcbb0aeb5f4&SESSION_ID=691fae574df6394e97ce24fa","html-keyboard-response",11,261388,"0.0-307.0","g/qitCDKTRC9tXC/CYWUl0ulr5nBZv00ofWtlm+wdjW/YQRuX+tdAFkpGTJDyIGxZx2dAs7UZev3TWF45ouKtjLjF7OP33oJNl9MJEjCrYik2qPp5s90jH/Tdh8oHUkNhR8u8iSTvT+U4JqKEl5KgvIks2Rc0Wdz7/gSWweMwS7lp7HB3HIQeUnevht6JafR1peBr2w9AA2WUc5Is4GT6trUv42pTK/pOTZXFlIUiIPsErs+0GK5wnzqIUe47ckFWMfpMkHok8hQsgAI5md1QyifY1yXxf/1YbdtaOCl/gyex62v2CMbWk/9KJivDoYgqrVZMBf0J7VRr8SdkGqp8g==","691f8ca61c6b4dcbb0aeb5f4","691fae574df6394e97ce24fa","index1","<span style='color:red'>Fail,<span style='color:red'>Fail,<span style='color:green'>Lift,<span style='color:green'>Lift,<span style='color:red'>Fail,<span style='color:red'>Fail,<span style='color:red'>Fail,<span style='color:red'>Fail,<span style='color:red'>Fail,<span style='color:green'>Lift,<span style='color:red'>Fail,<span style='color:green'>Lift","<span style='color:red'>Fail,<span style='color:red'>Fail,<span style='color:green'>Lift,<span style='color:green'>Lift,<span style='color:green'>Lift,<span style='color:green'>Lift,<span style='color:green'>Lift,<span style='color:red'>Fail,<span style='color:green'>Lift,<span style='color:green'>Lift,<span style='color:red'>Fail,<span style='color:green'>Lift","<span style='color:red'>Fail,<span style='color:green'>Lift,<span style='color:green'>Lift,<span style='color:red'>Fail,<span style='color:green'>Lift,<span style='color:green'>Lift","0,0,1,1,0,0,0,0,0,1,0,1","0,0,1,1,1,1,1,0,1,1,0,1","0,1,1,0,1,1",10,20,20,"","","<p style='font-size:30px'><b> New Contest! </b></p>","null","","",NA,1,"",NA,NA,NA,NA,NA,NA,NA,NA,NA,NA,NA,NA,NA,NA,NA,NA,NA,NA,NA,NA,NA,NA,NA,NA,NA,NA,NA,NA,NA,NA,NA,NA,NA,NA,NA,NA,NA,NA,NA,"",NA,NA,NA,NA,NA,NA,NA,NA,2025-11-21 00:24:44
"16904","https://psyc-201.github.io/xiang2023/exp/index1.html?PROLIFIC_PID=REDACTED&STUDY_ID=691f8ca61c6b4dcbb0aeb5f4&SESSION_ID=691fae574df6394e97ce24fa","survey-html-form",12,278298,"0.0-308.0","g/qitCDKTRC9tXC/CYWUl0ulr5nBZv00ofWtlm+wdjW/YQRuX+tdAFkpGTJDyIGxZx2dAs7UZev3TWF45ouKtjLjF7OP33oJNl9MJEjCrYik2qPp5s90jH/Tdh8oHUkNhR8u8iSTvT+U4JqKEl5KgvIks2Rc0Wdz7/gSWweMwS7lp7HB3HIQeUnevht6JafR1peBr2w9AA2WUc5Is4GT6trUv42pTK/pOTZXFlIUiIPsErs+0GK5wnzqIUe47ckFWMfpMkHok8hQsgAI5md1QyifY1yXxf/1YbdtaOCl/gyex62v2CMbWk/9KJivDoYgqrVZMBf0J7VRr8SdkGqp8g==","691f8ca61c6b4dcbb0aeb5f4","691fae574df6394e97ce24fa","index1","<span style='color:red'>Fail,<span style='color:red'>Fail,<span style='color:green'>Lift,<span style='color:green'>Lift,<span style='color:red'>Fail,<span style='color:red'>Fail,<span style='color:red'>Fail,<span style='color:red'>Fail,<span style='color:red'>Fail,<span style='color:green'>Lift,<span style='color:red'>Fail,<span style='color:green'>Lift","<span style='color:red'>Fail,<span style='color:red'>Fail,<span style='color:green'>Lift,<span style='color:green'>Lift,<span style='color:green'>Lift,<span style='color:green'>Lift,<span style='color:green'>Lift,<span style='color:red'>Fail,<span style='color:green'>Lift,<span style='color:green'>Lift,<span style='color:red'>Fail,<span style='color:green'>Lift","<span style='color:red'>Fail,<span style='color:green'>Lift,<span style='color:green'>Lift,<span style='color:red'>Fail,<span style='color:green'>Lift,<span style='color:green'>Lift","0,0,1,1,0,0,0,0,0,1,0,1","0,0,1,1,1,1,1,0,1,1,0,1","0,1,1,0,1,1",10,20,20,"","","","","{""box1"":""1"",""box2"":""2""}","",NA,1,"round1_outcome",1,1,1,1,2,NA,NA,0,0,10,1,2,NA,NA,0,0,10,NA,NA,NA,NA,NA,NA,NA,NA,NA,NA,NA,NA,NA,NA,NA,NA,NA,NA,NA,NA,NA,NA,"",NA,NA,NA,NA,NA,NA,NA,NA,2025-11-21 00:24:44
"14517.60000000894","https://psyc-201.github.io/xiang2023/exp/index1.html?PROLIFIC_PID=REDACTED&STUDY_ID=691f8ca61c6b4dcbb0aeb5f4&SESSION_ID=691fae574df6394e97ce24fa","survey-html-form",13,292818,"0.0-309.0","g/qitCDKTRC9tXC/CYWUl0ulr5nBZv00ofWtlm+wdjW/YQRuX+tdAFkpGTJDyIGxZx2dAs7UZev3TWF45ouKtjLjF7OP33oJNl9MJEjCrYik2qPp5s90jH/Tdh8oHUkNhR8u8iSTvT+U4JqKEl5KgvIks2Rc0Wdz7/gSWweMwS7lp7HB3HIQeUnevht6JafR1peBr2w9AA2WUc5Is4GT6trUv42pTK/pOTZXFlIUiIPsErs+0GK5wnzqIUe47ckFWMfpMkHok8hQsgAI5md1QyifY1yXxf/1YbdtaOCl/gyex62v2CMbWk/9KJivDoYgqrVZMBf0J7VRr8SdkGqp8g==","691f8ca61c6b4dcbb0aeb5f4","691fae574df6394e97ce24fa","index1","<span style='color:red'>Fail,<span style='color:red'>Fail,<span style='color:green'>Lift,<span style='color:green'>Lift,<span style='color:red'>Fail,<span style='color:red'>Fail,<span style='color:red'>Fail,<span style='color:red'>Fail,<span style='color:red'>Fail,<span style='color:green'>Lift,<span style='color:red'>Fail,<span style='color:green'>Lift","<span style='color:red'>Fail,<span style='color:red'>Fail,<span style='color:green'>Lift,<span style='color:green'>Lift,<span style='color:green'>Lift,<span style='color:green'>Lift,<span style='color:green'>Lift,<span style='color:red'>Fail,<span style='color:green'>Lift,<span style='color:green'>Lift,<span style='color:red'>Fail,<span style='color:green'>Lift","<span style='color:red'>Fail,<span style='color:green'>Lift,<span style='color:green'>Lift,<span style='color:red'>Fail,<span style='color:green'>Lift,<span style='color:green'>Lift","0,0,1,1,0,0,0,0,0,1,0,1","0,0,1,1,1,1,1,0,1,1,0,1","0,1,1,0,1,1",10,20,20,"","","","","{""box1"":""10"",""box2"":""20""}","",NA,1,"round2_ready",2,1,2,NA,NA,NA,NA,NA,NA,NA,NA,NA,NA,NA,NA,NA,NA,10,20,10,20,NA,NA,NA,NA,NA,NA,NA,NA,NA,NA,NA,NA,NA,NA,NA,NA,NA,NA,"",NA,NA,NA,NA,NA,NA,NA,NA,2025-11-21 00:24:44
"21249.29999999702","https://psyc-201.github.io/xiang2023/exp/index1.html?PROLIFIC_PID=REDACTED&STUDY_ID=691f8ca61c6b4dcbb0aeb5f4&SESSION_ID=691fae574df6394e97ce24fa","survey-html-form",14,314070,"0.0-310.0","g/qitCDKTRC9tXC/CYWUl0ulr5nBZv00ofWtlm+wdjW/YQRuX+tdAFkpGTJDyIGxZx2dAs7UZev3TWF45ouKtjLjF7OP33oJNl9MJEjCrYik2qPp5s90jH/Tdh8oHUkNhR8u8iSTvT+U4JqKEl5KgvIks2Rc0Wdz7/gSWweMwS7lp7HB3HIQeUnevht6JafR1peBr2w9AA2WUc5Is4GT6trUv42pTK/pOTZXFlIUiIPsErs+0GK5wnzqIUe47ckFWMfpMkHok8hQsgAI5md1QyifY1yXxf/1YbdtaOCl/gyex62v2CMbWk/9KJivDoYgqrVZMBf0J7VRr8SdkGqp8g==","691f8ca61c6b4dcbb0aeb5f4","691fae574df6394e97ce24fa","index1","<span style='color:red'>Fail,<span style='color:red'>Fail,<span style='color:green'>Lift,<span style='color:green'>Lift,<span style='color:red'>Fail,<span style='color:red'>Fail,<span style='color:red'>Fail,<span style='color:red'>Fail,<span style='color:red'>Fail,<span style='color:green'>Lift,<span style='color:red'>Fail,<span style='color:green'>Lift","<span style='color:red'>Fail,<span style='color:red'>Fail,<span style='color:green'>Lift,<span style='color:green'>Lift,<span style='color:green'>Lift,<span style='color:green'>Lift,<span style='color:green'>Lift,<span style='color:red'>Fail,<span style='color:green'>Lift,<span style='color:green'>Lift,<span style='color:red'>Fail,<span style='color:green'>Lift","<span style='color:red'>Fail,<span style='color:green'>Lift,<span style='color:green'>Lift,<span style='color:red'>Fail,<span style='color:green'>Lift,<span style='color:green'>Lift","0,0,1,1,0,0,0,0,0,1,0,1","0,0,1,1,1,1,1,0,1,1,0,1","0,1,1,0,1,1",10,20,20,"","","","","{""box1"":""5"",""box2"":""6"",""box3"":""50"",""box4"":""50""}","",NA,1,"round2_outcome",3,1,2,5,6,50,50,1,1,20,NA,NA,NA,NA,NA,NA,NA,NA,NA,NA,NA,5,6,50,50,1,1,20,NA,NA,NA,NA,NA,NA,NA,NA,NA,NA,NA,"",NA,NA,NA,NA,NA,NA,NA,NA,2025-11-21 00:24:44
"9917.59999999404","https://psyc-201.github.io/xiang2023/exp/index1.html?PROLIFIC_PID=REDACTED&STUDY_ID=691f8ca61c6b4dcbb0aeb5f4&SESSION_ID=691fae574df6394e97ce24fa","survey-html-form",15,323990,"0.0-311.0","g/qitCDKTRC9tXC/CYWUl0ulr5nBZv00ofWtlm+wdjW/YQRuX+tdAFkpGTJDyIGxZx2dAs7UZev3TWF45ouKtjLjF7OP33oJNl9MJEjCrYik2qPp5s90jH/Tdh8oHUkNhR8u8iSTvT+U4JqKEl5KgvIks2Rc0Wdz7/gSWweMwS7lp7HB3HIQeUnevht6JafR1peBr2w9AA2WUc5Is4GT6trUv42pTK/pOTZXFlIUiIPsErs+0GK5wnzqIUe47ckFWMfpMkHok8hQsgAI5md1QyifY1yXxf/1YbdtaOCl/gyex62v2CMbWk/9KJivDoYgqrVZMBf0J7VRr8SdkGqp8g==","691f8ca61c6b4dcbb0aeb5f4","691fae574df6394e97ce24fa","index1","<span style='color:red'>Fail,<span style='color:red'>Fail,<span style='color:green'>Lift,<span style='color:green'>Lift,<span style='color:red'>Fail,<span style='color:red'>Fail,<span style='color:red'>Fail,<span style='color:red'>Fail,<span style='color:red'>Fail,<span style='color:green'>Lift,<span style='color:red'>Fail,<span style='color:green'>Lift","<span style='color:red'>Fail,<span style='color:red'>Fail,<span style='color:green'>Lift,<span style='color:green'>Lift,<span style='color:green'>Lift,<span style='color:green'>Lift,<span style='color:green'>Lift,<span style='color:red'>Fail,<span style='color:green'>Lift,<span style='color:green'>Lift,<span style='color:red'>Fail,<span style='color:green'>Lift","<span style='color:red'>Fail,<span style='color:green'>Lift,<span style='color:green'>Lift,<span style='color:red'>Fail,<span style='color:green'>Lift,<span style='color:green'>Lift","0,0,1,1,0,0,0,0,0,1,0,1","0,0,1,1,1,1,1,0,1,1,0,1","0,1,1,0,1,1",10,20,20,"","","","","{""box1"":""95""}","",NA,1,"round3_ready",4,1,3,NA,NA,NA,NA,NA,NA,NA,NA,NA,NA,NA,NA,NA,NA,95,95,NA,NA,NA,NA,NA,NA,NA,NA,NA,95,95,NA,NA,NA,NA,NA,NA,NA,NA,NA,"",NA,NA,NA,NA,NA,NA,NA,NA,2025-11-21 00:24:44
"16572.89999999106","https://psyc-201.github.io/xiang2023/exp/index1.html?PROLIFIC_PID=REDACTED&STUDY_ID=691f8ca61c6b4dcbb0aeb5f4&SESSION_ID=691fae574df6394e97ce24fa","survey-html-form",16,340566,"0.0-312.0-0.0","g/qitCDKTRC9tXC/CYWUl0ulr5nBZv00ofWtlm+wdjW/YQRuX+tdAFkpGTJDyIGxZx2dAs7UZev3TWF45ouKtjLjF7OP33oJNl9MJEjCrYik2qPp5s90jH/Tdh8oHUkNhR8u8iSTvT+U4JqKEl5KgvIks2Rc0Wdz7/gSWweMwS7lp7HB3HIQeUnevht6JafR1peBr2w9AA2WUc5Is4GT6trUv42pTK/pOTZXFlIUiIPsErs+0GK5wnzqIUe47ckFWMfpMkHok8hQsgAI5md1QyifY1yXxf/1YbdtaOCl/gyex62v2CMbWk/9KJivDoYgqrVZMBf0J7VRr8SdkGqp8g==","691f8ca61c6b4dcbb0aeb5f4","691fae574df6394e97ce24fa","index1","<span style='color:red'>Fail,<span style='color:red'>Fail,<span style='color:green'>Lift,<span style='color:green'>Lift,<span style='color:red'>Fail,<span style='color:red'>Fail,<span style='color:red'>Fail,<span style='color:red'>Fail,<span style='color:red'>Fail,<span style='color:green'>Lift,<span style='color:red'>Fail,<span style='color:green'>Lift","<span style='color:red'>Fail,<span style='color:red'>Fail,<span style='color:green'>Lift,<span style='color:green'>Lift,<span style='color:green'>Lift,<span style='color:green'>Lift,<span style='color:green'>Lift,<span style='color:red'>Fail,<span style='color:green'>Lift,<span style='color:green'>Lift,<span style='color:red'>Fail,<span style='color:green'>Lift","<span style='color:red'>Fail,<span style='color:green'>Lift,<span style='color:green'>Lift,<span style='color:red'>Fail,<span style='color:green'>Lift,<span style='color:green'>Lift","0,0,1,1,0,0,0,0,0,1,0,1","0,0,1,1,1,1,1,0,1,1,0,1","0,1,1,0,1,1",10,20,20,"","","","","{""box1"":""5"",""box2"":""6"",""box3"":""50"",""box4"":""50""}","",NA,2,"round3_lift",5,1,3,5,6,50,50,1,1,20,NA,NA,NA,NA,NA,NA,NA,NA,NA,NA,NA,NA,NA,NA,NA,NA,NA,NA,NA,NA,5,6,50,50,1,1,20,NA,NA,"",NA,NA,NA,NA,NA,NA,NA,NA,2025-11-21 00:24:44
"null","https://psyc-201.github.io/xiang2023/exp/index1.html?PROLIFIC_PID=REDACTED&STUDY_ID=691f8ca61c6b4dcbb0aeb5f4&SESSION_ID=691fae574df6394e97ce24fa","html-keyboard-response",17,343576,"0.0-316.0","g/qitCDKTRC9tXC/CYWUl0ulr5nBZv00ofWtlm+wdjW/YQRuX+tdAFkpGTJDyIGxZx2dAs7UZev3TWF45ouKtjLjF7OP33oJNl9MJEjCrYik2qPp5s90jH/Tdh8oHUkNhR8u8iSTvT+U4JqKEl5KgvIks2Rc0Wdz7/gSWweMwS7lp7HB3HIQeUnevht6JafR1peBr2w9AA2WUc5Is4GT6trUv42pTK/pOTZXFlIUiIPsErs+0GK5wnzqIUe47ckFWMfpMkHok8hQsgAI5md1QyifY1yXxf/1YbdtaOCl/gyex62v2CMbWk/9KJivDoYgqrVZMBf0J7VRr8SdkGqp8g==","691f8ca61c6b4dcbb0aeb5f4","691fae574df6394e97ce24fa","index1","<span style='color:red'>Fail,<span style='color:red'>Fail,<span style='color:green'>Lift,<span style='color:green'>Lift,<span style='color:red'>Fail,<span style='color:red'>Fail,<span style='color:red'>Fail,<span style='color:red'>Fail,<span style='color:red'>Fail,<span style='color:green'>Lift,<span style='color:red'>Fail,<span style='color:green'>Lift","<span style='color:red'>Fail,<span style='color:red'>Fail,<span style='color:green'>Lift,<span style='color:green'>Lift,<span style='color:green'>Lift,<span style='color:green'>Lift,<span style='color:green'>Lift,<span style='color:red'>Fail,<span style='color:green'>Lift,<span style='color:green'>Lift,<span style='color:red'>Fail,<span style='color:green'>Lift","<span style='color:red'>Fail,<span style='color:green'>Lift,<span style='color:green'>Lift,<span style='color:red'>Fail,<span style='color:green'>Lift,<span style='color:green'>Lift","0,0,1,1,0,0,0,0,0,1,0,1","0,0,1,1,1,1,1,0,1,1,0,1","0,1,1,0,1,1",10,20,20,"","","<p style='font-size:30px'><b> New Contest! </b></p>","null","","",NA,2,"",NA,NA,NA,NA,NA,NA,NA,NA,NA,NA,NA,NA,NA,NA,NA,NA,NA,NA,NA,NA,NA,NA,NA,NA,NA,NA,NA,NA,NA,NA,NA,NA,NA,NA,NA,NA,NA,NA,NA,"",NA,NA,NA,NA,NA,NA,NA,NA,2025-11-21 00:24:44
"20103.90000000596","https://psyc-201.github.io/xiang2023/exp/index1.html?PROLIFIC_PID=REDACTED&STUDY_ID=691f8ca61c6b4dcbb0aeb5f4&SESSION_ID=691fae574df6394e97ce24fa","survey-html-form",18,363683,"0.0-317.0","g/qitCDKTRC9tXC/CYWUl0ulr5nBZv00ofWtlm+wdjW/YQRuX+tdAFkpGTJDyIGxZx2dAs7UZev3TWF45ouKtjLjF7OP33oJNl9MJEjCrYik2qPp5s90jH/Tdh8oHUkNhR8u8iSTvT+U4JqKEl5KgvIks2Rc0Wdz7/gSWweMwS7lp7HB3HIQeUnevht6JafR1peBr2w9AA2WUc5Is4GT6trUv42pTK/pOTZXFlIUiIPsErs+0GK5wnzqIUe47ckFWMfpMkHok8hQsgAI5md1QyifY1yXxf/1YbdtaOCl/gyex62v2CMbWk/9KJivDoYgqrVZMBf0J7VRr8SdkGqp8g==","691f8ca61c6b4dcbb0aeb5f4","691fae574df6394e97ce24fa","index1","<span style='color:red'>Fail,<span style='color:red'>Fail,<span style='color:green'>Lift,<span style='color:green'>Lift,<span style='color:red'>Fail,<span style='color:red'>Fail,<span style='color:red'>Fail,<span style='color:red'>Fail,<span style='color:red'>Fail,<span style='color:green'>Lift,<span style='color:red'>Fail,<span style='color:green'>Lift","<span style='color:red'>Fail,<span style='color:red'>Fail,<span style='color:green'>Lift,<span style='color:green'>Lift,<span style='color:green'>Lift,<span style='color:green'>Lift,<span style='color:green'>Lift,<span style='color:red'>Fail,<span style='color:green'>Lift,<span style='color:green'>Lift,<span style='color:red'>Fail,<span style='color:green'>Lift","<span style='color:red'>Fail,<span style='color:green'>Lift,<span style='color:green'>Lift,<span style='color:red'>Fail,<span style='color:green'>Lift,<span style='color:green'>Lift","0,0,1,1,0,0,0,0,0,1,0,1","0,0,1,1,1,1,1,0,1,1,0,1","0,1,1,0,1,1",10,20,20,"","","","","{""box1"":""6"",""box2"":""5"",""box3"":""60"",""box4"":""60""}","",NA,2,"round1_outcome",1,2,1,6,5,60,60,1,1,10,6,5,60,60,1,1,10,NA,NA,NA,NA,NA,NA,NA,NA,NA,NA,NA,NA,NA,NA,NA,NA,NA,NA,NA,NA,NA,NA,"",NA,NA,NA,NA,NA,NA,NA,NA,2025-11-21 00:24:44
"10020.70000000298","https://psyc-201.github.io/xiang2023/exp/index1.html?PROLIFIC_PID=REDACTED&STUDY_ID=691f8ca61c6b4dcbb0aeb5f4&SESSION_ID=691fae574df6394e97ce24fa","survey-html-form",19,373706,"0.0-318.0","g/qitCDKTRC9tXC/CYWUl0ulr5nBZv00ofWtlm+wdjW/YQRuX+tdAFkpGTJDyIGxZx2dAs7UZev3TWF45ouKtjLjF7OP33oJNl9MJEjCrYik2qPp5s90jH/Tdh8oHUkNhR8u8iSTvT+U4JqKEl5KgvIks2Rc0Wdz7/gSWweMwS7lp7HB3HIQeUnevht6JafR1peBr2w9AA2WUc5Is4GT6trUv42pTK/pOTZXFlIUiIPsErs+0GK5wnzqIUe47ckFWMfpMkHok8hQsgAI5md1QyifY1yXxf/1YbdtaOCl/gyex62v2CMbWk/9KJivDoYgqrVZMBf0J7VRr8SdkGqp8g==","691f8ca61c6b4dcbb0aeb5f4","691fae574df6394e97ce24fa","index1","<span style='color:red'>Fail,<span style='color:red'>Fail,<span style='color:green'>Lift,<span style='color:green'>Lift,<span style='color:red'>Fail,<span style='color:red'>Fail,<span style='color:red'>Fail,<span style='color:red'>Fail,<span style='color:red'>Fail,<span style='color:green'>Lift,<span style='color:red'>Fail,<span style='color:green'>Lift","<span style='color:red'>Fail,<span style='color:red'>Fail,<span style='color:green'>Lift,<span style='color:green'>Lift,<span style='color:green'>Lift,<span style='color:green'>Lift,<span style='color:green'>Lift,<span style='color:red'>Fail,<span style='color:green'>Lift,<span style='color:green'>Lift,<span style='color:red'>Fail,<span style='color:green'>Lift","<span style='color:red'>Fail,<span style='color:green'>Lift,<span style='color:green'>Lift,<span style='color:red'>Fail,<span style='color:green'>Lift,<span style='color:green'>Lift","0,0,1,1,0,0,0,0,0,1,0,1","0,0,1,1,1,1,1,0,1,1,0,1","0,1,1,0,1,1",10,20,20,"","","","","{""box1"":""70"",""box2"":""70""}","",NA,2,"round2_ready",2,2,2,NA,NA,NA,NA,NA,NA,NA,NA,NA,NA,NA,NA,NA,NA,70,70,70,70,NA,NA,NA,NA,NA,NA,NA,NA,NA,NA,NA,NA,NA,NA,NA,NA,NA,NA,"",NA,NA,NA,NA,NA,NA,NA,NA,2025-11-21 00:24:44
"18822.59999999404","https://psyc-201.github.io/xiang2023/exp/index1.html?PROLIFIC_PID=REDACTED&STUDY_ID=691f8ca61c6b4dcbb0aeb5f4&SESSION_ID=691fae574df6394e97ce24fa","survey-html-form",20,392531,"0.0-319.0","g/qitCDKTRC9tXC/CYWUl0ulr5nBZv00ofWtlm+wdjW/YQRuX+tdAFkpGTJDyIGxZx2dAs7UZev3TWF45ouKtjLjF7OP33oJNl9MJEjCrYik2qPp5s90jH/Tdh8oHUkNhR8u8iSTvT+U4JqKEl5KgvIks2Rc0Wdz7/gSWweMwS7lp7HB3HIQeUnevht6JafR1peBr2w9AA2WUc5Is4GT6trUv42pTK/pOTZXFlIUiIPsErs+0GK5wnzqIUe47ckFWMfpMkHok8hQsgAI5md1QyifY1yXxf/1YbdtaOCl/gyex62v2CMbWk/9KJivDoYgqrVZMBf0J7VRr8SdkGqp8g==","691f8ca61c6b4dcbb0aeb5f4","691fae574df6394e97ce24fa","index1","<span style='color:red'>Fail,<span style='color:red'>Fail,<span style='color:green'>Lift,<span style='color:green'>Lift,<span style='color:red'>Fail,<span style='color:red'>Fail,<span style='color:red'>Fail,<span style='color:red'>Fail,<span style='color:red'>Fail,<span style='color:green'>Lift,<span style='color:red'>Fail,<span style='color:green'>Lift","<span style='color:red'>Fail,<span style='color:red'>Fail,<span style='color:green'>Lift,<span style='color:green'>Lift,<span style='color:green'>Lift,<span style='color:green'>Lift,<span style='color:green'>Lift,<span style='color:red'>Fail,<span style='color:green'>Lift,<span style='color:green'>Lift,<span style='color:red'>Fail,<span style='color:green'>Lift","<span style='color:red'>Fail,<span style='color:green'>Lift,<span style='color:green'>Lift,<span style='color:red'>Fail,<span style='color:green'>Lift,<span style='color:green'>Lift","0,0,1,1,0,0,0,0,0,1,0,1","0,0,1,1,1,1,1,0,1,1,0,1","0,1,1,0,1,1",10,20,20,"","","","","{""box1"":""7"",""box2"":""7"",""box3"":""60"",""box4"":""60""}","",NA,2,"round2_outcome",3,2,2,7,7,60,60,1,1,20,NA,NA,NA,NA,NA,NA,NA,NA,NA,NA,NA,7,7,60,60,1,1,20,NA,NA,NA,NA,NA,NA,NA,NA,NA,NA,NA,"",NA,NA,NA,NA,NA,NA,NA,NA,2025-11-21 00:24:44
"4213.100000008941","https://psyc-201.github.io/xiang2023/exp/index1.html?PROLIFIC_PID=REDACTED&STUDY_ID=691f8ca61c6b4dcbb0aeb5f4&SESSION_ID=691fae574df6394e97ce24fa","survey-html-form",21,396746,"0.0-320.0","g/qitCDKTRC9tXC/CYWUl0ulr5nBZv00ofWtlm+wdjW/YQRuX+tdAFkpGTJDyIGxZx2dAs7UZev3TWF45ouKtjLjF7OP33oJNl9MJEjCrYik2qPp5s90jH/Tdh8oHUkNhR8u8iSTvT+U4JqKEl5KgvIks2Rc0Wdz7/gSWweMwS7lp7HB3HIQeUnevht6JafR1peBr2w9AA2WUc5Is4GT6trUv42pTK/pOTZXFlIUiIPsErs+0GK5wnzqIUe47ckFWMfpMkHok8hQsgAI5md1QyifY1yXxf/1YbdtaOCl/gyex62v2CMbWk/9KJivDoYgqrVZMBf0J7VRr8SdkGqp8g==","691f8ca61c6b4dcbb0aeb5f4","691fae574df6394e97ce24fa","index1","<span style='color:red'>Fail,<span style='color:red'>Fail,<span style='color:green'>Lift,<span style='color:green'>Lift,<span style='color:red'>Fail,<span style='color:red'>Fail,<span style='color:red'>Fail,<span style='color:red'>Fail,<span style='color:red'>Fail,<span style='color:green'>Lift,<span style='color:red'>Fail,<span style='color:green'>Lift","<span style='color:red'>Fail,<span style='color:red'>Fail,<span style='color:green'>Lift,<span style='color:green'>Lift,<span style='color:green'>Lift,<span style='color:green'>Lift,<span style='color:green'>Lift,<span style='color:red'>Fail,<span style='color:green'>Lift,<span style='color:green'>Lift,<span style='color:red'>Fail,<span style='color:green'>Lift","<span style='color:red'>Fail,<span style='color:green'>Lift,<span style='color:green'>Lift,<span style='color:red'>Fail,<span style='color:green'>Lift,<span style='color:green'>Lift","0,0,1,1,0,0,0,0,0,1,0,1","0,0,1,1,1,1,1,0,1,1,0,1","0,1,1,0,1,1",10,20,20,"","","","","{""box1"":""80""}","",NA,2,"round3_ready",4,2,3,NA,NA,NA,NA,NA,NA,NA,NA,NA,NA,NA,NA,NA,NA,80,80,NA,NA,NA,NA,NA,NA,NA,NA,NA,80,80,NA,NA,NA,NA,NA,NA,NA,NA,NA,"",NA,NA,NA,NA,NA,NA,NA,NA,2025-11-21 00:24:44
"19973.79999999702","https://psyc-201.github.io/xiang2023/exp/index1.html?PROLIFIC_PID=REDACTED&STUDY_ID=691f8ca61c6b4dcbb0aeb5f4&SESSION_ID=691fae574df6394e97ce24fa","survey-html-form",22,416722,"0.0-321.0-0.0","g/qitCDKTRC9tXC/CYWUl0ulr5nBZv00ofWtlm+wdjW/YQRuX+tdAFkpGTJDyIGxZx2dAs7UZev3TWF45ouKtjLjF7OP33oJNl9MJEjCrYik2qPp5s90jH/Tdh8oHUkNhR8u8iSTvT+U4JqKEl5KgvIks2Rc0Wdz7/gSWweMwS7lp7HB3HIQeUnevht6JafR1peBr2w9AA2WUc5Is4GT6trUv42pTK/pOTZXFlIUiIPsErs+0GK5wnzqIUe47ckFWMfpMkHok8hQsgAI5md1QyifY1yXxf/1YbdtaOCl/gyex62v2CMbWk/9KJivDoYgqrVZMBf0J7VRr8SdkGqp8g==","691f8ca61c6b4dcbb0aeb5f4","691fae574df6394e97ce24fa","index1","<span style='color:red'>Fail,<span style='color:red'>Fail,<span style='color:green'>Lift,<span style='color:green'>Lift,<span style='color:red'>Fail,<span style='color:red'>Fail,<span style='color:red'>Fail,<span style='color:red'>Fail,<span style='color:red'>Fail,<span style='color:green'>Lift,<span style='color:red'>Fail,<span style='color:green'>Lift","<span style='color:red'>Fail,<span style='color:red'>Fail,<span style='color:green'>Lift,<span style='color:green'>Lift,<span style='color:green'>Lift,<span style='color:green'>Lift,<span style='color:green'>Lift,<span style='color:red'>Fail,<span style='color:green'>Lift,<span style='color:green'>Lift,<span style='color:red'>Fail,<span style='color:green'>Lift","<span style='color:red'>Fail,<span style='color:green'>Lift,<span style='color:green'>Lift,<span style='color:red'>Fail,<span style='color:green'>Lift,<span style='color:green'>Lift","0,0,1,1,0,0,0,0,0,1,0,1","0,0,1,1,1,1,1,0,1,1,0,1","0,1,1,0,1,1",10,20,20,"","","","","{""box1"":""7"",""box2"":""6"",""box3"":""60"",""box4"":""60""}","",NA,3,"round3_lift",5,2,3,7,6,60,60,1,1,20,NA,NA,NA,NA,NA,NA,NA,NA,NA,NA,NA,NA,NA,NA,NA,NA,NA,NA,NA,NA,7,6,60,60,1,1,20,NA,NA,"",NA,NA,NA,NA,NA,NA,NA,NA,2025-11-21 00:24:44
"null","https://psyc-201.github.io/xiang2023/exp/index1.html?PROLIFIC_PID=REDACTED&STUDY_ID=691f8ca61c6b4dcbb0aeb5f4&SESSION_ID=691fae574df6394e97ce24fa","html-keyboard-response",23,419729,"0.0-325.0","g/qitCDKTRC9tXC/CYWUl0ulr5nBZv00ofWtlm+wdjW/YQRuX+tdAFkpGTJDyIGxZx2dAs7UZev3TWF45ouKtjLjF7OP33oJNl9MJEjCrYik2qPp5s90jH/Tdh8oHUkNhR8u8iSTvT+U4JqKEl5KgvIks2Rc0Wdz7/gSWweMwS7lp7HB3HIQeUnevht6JafR1peBr2w9AA2WUc5Is4GT6trUv42pTK/pOTZXFlIUiIPsErs+0GK5wnzqIUe47ckFWMfpMkHok8hQsgAI5md1QyifY1yXxf/1YbdtaOCl/gyex62v2CMbWk/9KJivDoYgqrVZMBf0J7VRr8SdkGqp8g==","691f8ca61c6b4dcbb0aeb5f4","691fae574df6394e97ce24fa","index1","<span style='color:red'>Fail,<span style='color:red'>Fail,<span style='color:green'>Lift,<span style='color:green'>Lift,<span style='color:red'>Fail,<span style='color:red'>Fail,<span style='color:red'>Fail,<span style='color:red'>Fail,<span style='color:red'>Fail,<span style='color:green'>Lift,<span style='color:red'>Fail,<span style='color:green'>Lift","<span style='color:red'>Fail,<span style='color:red'>Fail,<span style='color:green'>Lift,<span style='color:green'>Lift,<span style='color:green'>Lift,<span style='color:green'>Lift,<span style='color:green'>Lift,<span style='color:red'>Fail,<span style='color:green'>Lift,<span style='color:green'>Lift,<span style='color:red'>Fail,<span style='color:green'>Lift","<span style='color:red'>Fail,<span style='color:green'>Lift,<span style='color:green'>Lift,<span style='color:red'>Fail,<span style='color:green'>Lift,<span style='color:green'>Lift","0,0,1,1,0,0,0,0,0,1,0,1","0,0,1,1,1,1,1,0,1,1,0,1","0,1,1,0,1,1",10,20,20,"","","<p style='font-size:30px'><b> New Contest! </b></p>","null","","",NA,3,"",NA,NA,NA,NA,NA,NA,NA,NA,NA,NA,NA,NA,NA,NA,NA,NA,NA,NA,NA,NA,NA,NA,NA,NA,NA,NA,NA,NA,NA,NA,NA,NA,NA,NA,NA,NA,NA,NA,NA,"",NA,NA,NA,NA,NA,NA,NA,NA,2025-11-21 00:24:44
"15335.79999999702","https://psyc-201.github.io/xiang2023/exp/index1.html?PROLIFIC_PID=REDACTED&STUDY_ID=691f8ca61c6b4dcbb0aeb5f4&SESSION_ID=691fae574df6394e97ce24fa","survey-html-form",24,435067,"0.0-326.0","g/qitCDKTRC9tXC/CYWUl0ulr5nBZv00ofWtlm+wdjW/YQRuX+tdAFkpGTJDyIGxZx2dAs7UZev3TWF45ouKtjLjF7OP33oJNl9MJEjCrYik2qPp5s90jH/Tdh8oHUkNhR8u8iSTvT+U4JqKEl5KgvIks2Rc0Wdz7/gSWweMwS7lp7HB3HIQeUnevht6JafR1peBr2w9AA2WUc5Is4GT6trUv42pTK/pOTZXFlIUiIPsErs+0GK5wnzqIUe47ckFWMfpMkHok8hQsgAI5md1QyifY1yXxf/1YbdtaOCl/gyex62v2CMbWk/9KJivDoYgqrVZMBf0J7VRr8SdkGqp8g==","691f8ca61c6b4dcbb0aeb5f4","691fae574df6394e97ce24fa","index1","<span style='color:red'>Fail,<span style='color:red'>Fail,<span style='color:green'>Lift,<span style='color:green'>Lift,<span style='color:red'>Fail,<span style='color:red'>Fail,<span style='color:red'>Fail,<span style='color:red'>Fail,<span style='color:red'>Fail,<span style='color:green'>Lift,<span style='color:red'>Fail,<span style='color:green'>Lift","<span style='color:red'>Fail,<span style='color:red'>Fail,<span style='color:green'>Lift,<span style='color:green'>Lift,<span style='color:green'>Lift,<span style='color:green'>Lift,<span style='color:green'>Lift,<span style='color:red'>Fail,<span style='color:green'>Lift,<span style='color:green'>Lift,<span style='color:red'>Fail,<span style='color:green'>Lift","<span style='color:red'>Fail,<span style='color:green'>Lift,<span style='color:green'>Lift,<span style='color:red'>Fail,<span style='color:green'>Lift,<span style='color:green'>Lift","0,0,1,1,0,0,0,0,0,1,0,1","0,0,1,1,1,1,1,0,1,1,0,1","0,1,1,0,1,1",10,20,20,"","","","","{""box1"":""2"",""box2"":""7"",""box4"":""50""}","",NA,3,"round1_outcome",1,3,1,2,7,NA,50,0,1,10,2,7,NA,50,0,1,10,NA,NA,NA,NA,NA,NA,NA,NA,NA,NA,NA,NA,NA,NA,NA,NA,NA,NA,NA,NA,NA,NA,"",NA,NA,NA,NA,NA,NA,NA,NA,2025-11-21 00:24:44
"21838.39999999106","https://psyc-201.github.io/xiang2023/exp/index1.html?PROLIFIC_PID=REDACTED&STUDY_ID=691f8ca61c6b4dcbb0aeb5f4&SESSION_ID=691fae574df6394e97ce24fa","survey-html-form",25,456908,"0.0-327.0","g/qitCDKTRC9tXC/CYWUl0ulr5nBZv00ofWtlm+wdjW/YQRuX+tdAFkpGTJDyIGxZx2dAs7UZev3TWF45ouKtjLjF7OP33oJNl9MJEjCrYik2qPp5s90jH/Tdh8oHUkNhR8u8iSTvT+U4JqKEl5KgvIks2Rc0Wdz7/gSWweMwS7lp7HB3HIQeUnevht6JafR1peBr2w9AA2WUc5Is4GT6trUv42pTK/pOTZXFlIUiIPsErs+0GK5wnzqIUe47ckFWMfpMkHok8hQsgAI5md1QyifY1yXxf/1YbdtaOCl/gyex62v2CMbWk/9KJivDoYgqrVZMBf0J7VRr8SdkGqp8g==","691f8ca61c6b4dcbb0aeb5f4","691fae574df6394e97ce24fa","index1","<span style='color:red'>Fail,<span style='color:red'>Fail,<span style='color:green'>Lift,<span style='color:green'>Lift,<span style='color:red'>Fail,<span style='color:red'>Fail,<span style='color:red'>Fail,<span style='color:red'>Fail,<span style='color:red'>Fail,<span style='color:green'>Lift,<span style='color:red'>Fail,<span style='color:green'>Lift","<span style='color:red'>Fail,<span style='color:red'>Fail,<span style='color:green'>Lift,<span style='color:green'>Lift,<span style='color:green'>Lift,<span style='color:green'>Lift,<span style='color:green'>Lift,<span style='color:red'>Fail,<span style='color:green'>Lift,<span style='color:green'>Lift,<span style='color:red'>Fail,<span style='color:green'>Lift","<span style='color:red'>Fail,<span style='color:green'>Lift,<span style='color:green'>Lift,<span style='color:red'>Fail,<span style='color:green'>Lift,<span style='color:green'>Lift","0,0,1,1,0,0,0,0,0,1,0,1","0,0,1,1,1,1,1,0,1,1,0,1","0,1,1,0,1,1",10,20,20,"","","","","{""box1"":""30"",""box2"":""70""}","",NA,3,"round2_ready",2,3,2,NA,NA,NA,NA,NA,NA,NA,NA,NA,NA,NA,NA,NA,NA,30,70,30,70,NA,NA,NA,NA,NA,NA,NA,NA,NA,NA,NA,NA,NA,NA,NA,NA,NA,NA,"",NA,NA,NA,NA,NA,NA,NA,NA,2025-11-21 00:24:44
"12179.60000000894","https://psyc-201.github.io/xiang2023/exp/index1.html?PROLIFIC_PID=REDACTED&STUDY_ID=691f8ca61c6b4dcbb0aeb5f4&SESSION_ID=691fae574df6394e97ce24fa","survey-html-form",26,469090,"0.0-328.0","g/qitCDKTRC9tXC/CYWUl0ulr5nBZv00ofWtlm+wdjW/YQRuX+tdAFkpGTJDyIGxZx2dAs7UZev3TWF45ouKtjLjF7OP33oJNl9MJEjCrYik2qPp5s90jH/Tdh8oHUkNhR8u8iSTvT+U4JqKEl5KgvIks2Rc0Wdz7/gSWweMwS7lp7HB3HIQeUnevht6JafR1peBr2w9AA2WUc5Is4GT6trUv42pTK/pOTZXFlIUiIPsErs+0GK5wnzqIUe47ckFWMfpMkHok8hQsgAI5md1QyifY1yXxf/1YbdtaOCl/gyex62v2CMbWk/9KJivDoYgqrVZMBf0J7VRr8SdkGqp8g==","691f8ca61c6b4dcbb0aeb5f4","691fae574df6394e97ce24fa","index1","<span style='color:red'>Fail,<span style='color:red'>Fail,<span style='color:green'>Lift,<span style='color:green'>Lift,<span style='color:red'>Fail,<span style='color:red'>Fail,<span style='color:red'>Fail,<span style='color:red'>Fail,<span style='color:red'>Fail,<span style='color:green'>Lift,<span style='color:red'>Fail,<span style='color:green'>Lift","<span style='color:red'>Fail,<span style='color:red'>Fail,<span style='color:green'>Lift,<span style='color:green'>Lift,<span style='color:green'>Lift,<span style='color:green'>Lift,<span style='color:green'>Lift,<span style='color:red'>Fail,<span style='color:green'>Lift,<span style='color:green'>Lift,<span style='color:red'>Fail,<span style='color:green'>Lift","<span style='color:red'>Fail,<span style='color:green'>Lift,<span style='color:green'>Lift,<span style='color:red'>Fail,<span style='color:green'>Lift,<span style='color:green'>Lift","0,0,1,1,0,0,0,0,0,1,0,1","0,0,1,1,1,1,1,0,1,1,0,1","0,1,1,0,1,1",10,20,20,"","","","","{""box1"":""2"",""box2"":""7"",""box4"":""60""}","",NA,3,"round2_outcome",3,3,2,2,7,NA,60,0,1,20,NA,NA,NA,NA,NA,NA,NA,NA,NA,NA,NA,2,7,NA,60,0,1,20,NA,NA,NA,NA,NA,NA,NA,NA,NA,NA,NA,"",NA,NA,NA,NA,NA,NA,NA,NA,2025-11-21 00:24:44
"6919.29999999702","https://psyc-201.github.io/xiang2023/exp/index1.html?PROLIFIC_PID=REDACTED&STUDY_ID=691f8ca61c6b4dcbb0aeb5f4&SESSION_ID=691fae574df6394e97ce24fa","survey-html-form",27,476012,"0.0-329.0","g/qitCDKTRC9tXC/CYWUl0ulr5nBZv00ofWtlm+wdjW/YQRuX+tdAFkpGTJDyIGxZx2dAs7UZev3TWF45ouKtjLjF7OP33oJNl9MJEjCrYik2qPp5s90jH/Tdh8oHUkNhR8u8iSTvT+U4JqKEl5KgvIks2Rc0Wdz7/gSWweMwS7lp7HB3HIQeUnevht6JafR1peBr2w9AA2WUc5Is4GT6trUv42pTK/pOTZXFlIUiIPsErs+0GK5wnzqIUe47ckFWMfpMkHok8hQsgAI5md1QyifY1yXxf/1YbdtaOCl/gyex62v2CMbWk/9KJivDoYgqrVZMBf0J7VRr8SdkGqp8g==","691f8ca61c6b4dcbb0aeb5f4","691fae574df6394e97ce24fa","index1","<span style='color:red'>Fail,<span style='color:red'>Fail,<span style='color:green'>Lift,<span style='color:green'>Lift,<span style='color:red'>Fail,<span style='color:red'>Fail,<span style='color:red'>Fail,<span style='color:red'>Fail,<span style='color:red'>Fail,<span style='color:green'>Lift,<span style='color:red'>Fail,<span style='color:green'>Lift","<span style='color:red'>Fail,<span style='color:red'>Fail,<span style='color:green'>Lift,<span style='color:green'>Lift,<span style='color:green'>Lift,<span style='color:green'>Lift,<span style='color:green'>Lift,<span style='color:red'>Fail,<span style='color:green'>Lift,<span style='color:green'>Lift,<span style='color:red'>Fail,<span style='color:green'>Lift","<span style='color:red'>Fail,<span style='color:green'>Lift,<span style='color:green'>Lift,<span style='color:red'>Fail,<span style='color:green'>Lift,<span style='color:green'>Lift","0,0,1,1,0,0,0,0,0,1,0,1","0,0,1,1,1,1,1,0,1,1,0,1","0,1,1,0,1,1",10,20,20,"","","","","{""box1"":""40""}","",NA,3,"round3_ready",4,3,3,NA,NA,NA,NA,NA,NA,NA,NA,NA,NA,NA,NA,NA,NA,40,40,NA,NA,NA,NA,NA,NA,NA,NA,NA,40,40,NA,NA,NA,NA,NA,NA,NA,NA,NA,"",NA,NA,NA,NA,NA,NA,NA,NA,2025-11-21 00:24:44
"18189.29999999702","https://psyc-201.github.io/xiang2023/exp/index1.html?PROLIFIC_PID=REDACTED&STUDY_ID=691f8ca61c6b4dcbb0aeb5f4&SESSION_ID=691fae574df6394e97ce24fa","survey-html-form",28,494204,"0.0-330.0-0.0","g/qitCDKTRC9tXC/CYWUl0ulr5nBZv00ofWtlm+wdjW/YQRuX+tdAFkpGTJDyIGxZx2dAs7UZev3TWF45ouKtjLjF7OP33oJNl9MJEjCrYik2qPp5s90jH/Tdh8oHUkNhR8u8iSTvT+U4JqKEl5KgvIks2Rc0Wdz7/gSWweMwS7lp7HB3HIQeUnevht6JafR1peBr2w9AA2WUc5Is4GT6trUv42pTK/pOTZXFlIUiIPsErs+0GK5wnzqIUe47ckFWMfpMkHok8hQsgAI5md1QyifY1yXxf/1YbdtaOCl/gyex62v2CMbWk/9KJivDoYgqrVZMBf0J7VRr8SdkGqp8g==","691f8ca61c6b4dcbb0aeb5f4","691fae574df6394e97ce24fa","index1","<span style='color:red'>Fail,<span style='color:red'>Fail,<span style='color:green'>Lift,<span style='color:green'>Lift,<span style='color:red'>Fail,<span style='color:red'>Fail,<span style='color:red'>Fail,<span style='color:red'>Fail,<span style='color:red'>Fail,<span style='color:green'>Lift,<span style='color:red'>Fail,<span style='color:green'>Lift","<span style='color:red'>Fail,<span style='color:red'>Fail,<span style='color:green'>Lift,<span style='color:green'>Lift,<span style='color:green'>Lift,<span style='color:green'>Lift,<span style='color:green'>Lift,<span style='color:red'>Fail,<span style='color:green'>Lift,<span style='color:green'>Lift,<span style='color:red'>Fail,<span style='color:green'>Lift","<span style='color:red'>Fail,<span style='color:green'>Lift,<span style='color:green'>Lift,<span style='color:red'>Fail,<span style='color:green'>Lift,<span style='color:green'>Lift","0,0,1,1,0,0,0,0,0,1,0,1","0,0,1,1,1,1,1,0,1,1,0,1","0,1,1,0,1,1",10,20,20,"","","","","{""box1"":""2"",""box2"":""7"",""box3"":""50"",""box4"":""50""}","",NA,4,"round3_lift",5,3,3,2,7,50,50,1,1,20,NA,NA,NA,NA,NA,NA,NA,NA,NA,NA,NA,NA,NA,NA,NA,NA,NA,NA,NA,NA,2,7,50,50,1,1,20,NA,NA,"",NA,NA,NA,NA,NA,NA,NA,NA,2025-11-21 00:24:44
"null","https://psyc-201.github.io/xiang2023/exp/index1.html?PROLIFIC_PID=REDACTED&STUDY_ID=691f8ca61c6b4dcbb0aeb5f4&SESSION_ID=691fae574df6394e97ce24fa","html-keyboard-response",29,497219,"0.0-334.0","g/qitCDKTRC9tXC/CYWUl0ulr5nBZv00ofWtlm+wdjW/YQRuX+tdAFkpGTJDyIGxZx2dAs7UZev3TWF45ouKtjLjF7OP33oJNl9MJEjCrYik2qPp5s90jH/Tdh8oHUkNhR8u8iSTvT+U4JqKEl5KgvIks2Rc0Wdz7/gSWweMwS7lp7HB3HIQeUnevht6JafR1peBr2w9AA2WUc5Is4GT6trUv42pTK/pOTZXFlIUiIPsErs+0GK5wnzqIUe47ckFWMfpMkHok8hQsgAI5md1QyifY1yXxf/1YbdtaOCl/gyex62v2CMbWk/9KJivDoYgqrVZMBf0J7VRr8SdkGqp8g==","691f8ca61c6b4dcbb0aeb5f4","691fae574df6394e97ce24fa","index1","<span style='color:red'>Fail,<span style='color:red'>Fail,<span style='color:green'>Lift,<span style='color:green'>Lift,<span style='color:red'>Fail,<span style='color:red'>Fail,<span style='color:red'>Fail,<span style='color:red'>Fail,<span style='color:red'>Fail,<span style='color:green'>Lift,<span style='color:red'>Fail,<span style='color:green'>Lift","<span style='color:red'>Fail,<span style='color:red'>Fail,<span style='color:green'>Lift,<span style='color:green'>Lift,<span style='color:green'>Lift,<span style='color:green'>Lift,<span style='color:green'>Lift,<span style='color:red'>Fail,<span style='color:green'>Lift,<span style='color:green'>Lift,<span style='color:red'>Fail,<span style='color:green'>Lift","<span style='color:red'>Fail,<span style='color:green'>Lift,<span style='color:green'>Lift,<span style='color:red'>Fail,<span style='color:green'>Lift,<span style='color:green'>Lift","0,0,1,1,0,0,0,0,0,1,0,1","0,0,1,1,1,1,1,0,1,1,0,1","0,1,1,0,1,1",10,20,20,"","","<p style='font-size:30px'><b> New Contest! </b></p>","null","","",NA,4,"",NA,NA,NA,NA,NA,NA,NA,NA,NA,NA,NA,NA,NA,NA,NA,NA,NA,NA,NA,NA,NA,NA,NA,NA,NA,NA,NA,NA,NA,NA,NA,NA,NA,NA,NA,NA,NA,NA,NA,"",NA,NA,NA,NA,NA,NA,NA,NA,2025-11-21 00:24:44
"24911.90000000596","https://psyc-201.github.io/xiang2023/exp/index1.html?PROLIFIC_PID=REDACTED&STUDY_ID=691f8ca61c6b4dcbb0aeb5f4&SESSION_ID=691fae574df6394e97ce24fa","survey-html-form",30,522133,"0.0-335.0","g/qitCDKTRC9tXC/CYWUl0ulr5nBZv00ofWtlm+wdjW/YQRuX+tdAFkpGTJDyIGxZx2dAs7UZev3TWF45ouKtjLjF7OP33oJNl9MJEjCrYik2qPp5s90jH/Tdh8oHUkNhR8u8iSTvT+U4JqKEl5KgvIks2Rc0Wdz7/gSWweMwS7lp7HB3HIQeUnevht6JafR1peBr2w9AA2WUc5Is4GT6trUv42pTK/pOTZXFlIUiIPsErs+0GK5wnzqIUe47ckFWMfpMkHok8hQsgAI5md1QyifY1yXxf/1YbdtaOCl/gyex62v2CMbWk/9KJivDoYgqrVZMBf0J7VRr8SdkGqp8g==","691f8ca61c6b4dcbb0aeb5f4","691fae574df6394e97ce24fa","index1","<span style='color:red'>Fail,<span style='color:red'>Fail,<span style='color:green'>Lift,<span style='color:green'>Lift,<span style='color:red'>Fail,<span style='color:red'>Fail,<span style='color:red'>Fail,<span style='color:red'>Fail,<span style='color:red'>Fail,<span style='color:green'>Lift,<span style='color:red'>Fail,<span style='color:green'>Lift","<span style='color:red'>Fail,<span style='color:red'>Fail,<span style='color:green'>Lift,<span style='color:green'>Lift,<span style='color:green'>Lift,<span style='color:green'>Lift,<span style='color:green'>Lift,<span style='color:red'>Fail,<span style='color:green'>Lift,<span style='color:green'>Lift,<span style='color:red'>Fail,<span style='color:green'>Lift","<span style='color:red'>Fail,<span style='color:green'>Lift,<span style='color:green'>Lift,<span style='color:red'>Fail,<span style='color:green'>Lift,<span style='color:green'>Lift","0,0,1,1,0,0,0,0,0,1,0,1","0,0,1,1,1,1,1,0,1,1,0,1","0,1,1,0,1,1",10,20,20,"","","","","{""box1"":""2"",""box2"":""7"",""box4"":""60""}","",NA,4,"round1_outcome",1,4,1,2,7,NA,60,0,1,10,2,7,NA,60,0,1,10,NA,NA,NA,NA,NA,NA,NA,NA,NA,NA,NA,NA,NA,NA,NA,NA,NA,NA,NA,NA,NA,NA,"",NA,NA,NA,NA,NA,NA,NA,NA,2025-11-21 00:24:44
"13515.40000000596","https://psyc-201.github.io/xiang2023/exp/index1.html?PROLIFIC_PID=REDACTED&STUDY_ID=691f8ca61c6b4dcbb0aeb5f4&SESSION_ID=691fae574df6394e97ce24fa","survey-html-form",31,535651,"0.0-336.0","g/qitCDKTRC9tXC/CYWUl0ulr5nBZv00ofWtlm+wdjW/YQRuX+tdAFkpGTJDyIGxZx2dAs7UZev3TWF45ouKtjLjF7OP33oJNl9MJEjCrYik2qPp5s90jH/Tdh8oHUkNhR8u8iSTvT+U4JqKEl5KgvIks2Rc0Wdz7/gSWweMwS7lp7HB3HIQeUnevht6JafR1peBr2w9AA2WUc5Is4GT6trUv42pTK/pOTZXFlIUiIPsErs+0GK5wnzqIUe47ckFWMfpMkHok8hQsgAI5md1QyifY1yXxf/1YbdtaOCl/gyex62v2CMbWk/9KJivDoYgqrVZMBf0J7VRr8SdkGqp8g==","691f8ca61c6b4dcbb0aeb5f4","691fae574df6394e97ce24fa","index1","<span style='color:red'>Fail,<span style='color:red'>Fail,<span style='color:green'>Lift,<span style='color:green'>Lift,<span style='color:red'>Fail,<span style='color:red'>Fail,<span style='color:red'>Fail,<span style='color:red'>Fail,<span style='color:red'>Fail,<span style='color:green'>Lift,<span style='color:red'>Fail,<span style='color:green'>Lift","<span style='color:red'>Fail,<span style='color:red'>Fail,<span style='color:green'>Lift,<span style='color:green'>Lift,<span style='color:green'>Lift,<span style='color:green'>Lift,<span style='color:green'>Lift,<span style='color:red'>Fail,<span style='color:green'>Lift,<span style='color:green'>Lift,<span style='color:red'>Fail,<span style='color:green'>Lift","<span style='color:red'>Fail,<span style='color:green'>Lift,<span style='color:green'>Lift,<span style='color:red'>Fail,<span style='color:green'>Lift,<span style='color:green'>Lift","0,0,1,1,0,0,0,0,0,1,0,1","0,0,1,1,1,1,1,0,1,1,0,1","0,1,1,0,1,1",10,20,20,"","","","","{""box1"":""20"",""box2"":""80""}","",NA,4,"round2_ready",2,4,2,NA,NA,NA,NA,NA,NA,NA,NA,NA,NA,NA,NA,NA,NA,20,80,20,80,NA,NA,NA,NA,NA,NA,NA,NA,NA,NA,NA,NA,NA,NA,NA,NA,NA,NA,"",NA,NA,NA,NA,NA,NA,NA,NA,2025-11-21 00:24:44
"24709.59999999404","https://psyc-201.github.io/xiang2023/exp/index1.html?PROLIFIC_PID=REDACTED&STUDY_ID=691f8ca61c6b4dcbb0aeb5f4&SESSION_ID=691fae574df6394e97ce24fa","survey-html-form",32,560362,"0.0-337.0","g/qitCDKTRC9tXC/CYWUl0ulr5nBZv00ofWtlm+wdjW/YQRuX+tdAFkpGTJDyIGxZx2dAs7UZev3TWF45ouKtjLjF7OP33oJNl9MJEjCrYik2qPp5s90jH/Tdh8oHUkNhR8u8iSTvT+U4JqKEl5KgvIks2Rc0Wdz7/gSWweMwS7lp7HB3HIQeUnevht6JafR1peBr2w9AA2WUc5Is4GT6trUv42pTK/pOTZXFlIUiIPsErs+0GK5wnzqIUe47ckFWMfpMkHok8hQsgAI5md1QyifY1yXxf/1YbdtaOCl/gyex62v2CMbWk/9KJivDoYgqrVZMBf0J7VRr8SdkGqp8g==","691f8ca61c6b4dcbb0aeb5f4","691fae574df6394e97ce24fa","index1","<span style='color:red'>Fail,<span style='color:red'>Fail,<span style='color:green'>Lift,<span style='color:green'>Lift,<span style='color:red'>Fail,<span style='color:red'>Fail,<span style='color:red'>Fail,<span style='color:red'>Fail,<span style='color:red'>Fail,<span style='color:green'>Lift,<span style='color:red'>Fail,<span style='color:green'>Lift","<span style='color:red'>Fail,<span style='color:red'>Fail,<span style='color:green'>Lift,<span style='color:green'>Lift,<span style='color:green'>Lift,<span style='color:green'>Lift,<span style='color:green'>Lift,<span style='color:red'>Fail,<span style='color:green'>Lift,<span style='color:green'>Lift,<span style='color:red'>Fail,<span style='color:green'>Lift","<span style='color:red'>Fail,<span style='color:green'>Lift,<span style='color:green'>Lift,<span style='color:red'>Fail,<span style='color:green'>Lift,<span style='color:green'>Lift","0,0,1,1,0,0,0,0,0,1,0,1","0,0,1,1,1,1,1,0,1,1,0,1","0,1,1,0,1,1",10,20,20,"","","","","{""box1"":""5"",""box2"":""7"",""box3"":""40"",""box4"":""60""}","",NA,4,"round2_outcome",3,4,2,5,7,40,60,1,1,20,NA,NA,NA,NA,NA,NA,NA,NA,NA,NA,NA,5,7,40,60,1,1,20,NA,NA,NA,NA,NA,NA,NA,NA,NA,NA,NA,"",NA,NA,NA,NA,NA,NA,NA,NA,2025-11-21 00:24:44
"7358.9000000059605","https://psyc-201.github.io/xiang2023/exp/index1.html?PROLIFIC_PID=REDACTED&STUDY_ID=691f8ca61c6b4dcbb0aeb5f4&SESSION_ID=691fae574df6394e97ce24fa","survey-html-form",33,567724,"0.0-338.0","g/qitCDKTRC9tXC/CYWUl0ulr5nBZv00ofWtlm+wdjW/YQRuX+tdAFkpGTJDyIGxZx2dAs7UZev3TWF45ouKtjLjF7OP33oJNl9MJEjCrYik2qPp5s90jH/Tdh8oHUkNhR8u8iSTvT+U4JqKEl5KgvIks2Rc0Wdz7/gSWweMwS7lp7HB3HIQeUnevht6JafR1peBr2w9AA2WUc5Is4GT6trUv42pTK/pOTZXFlIUiIPsErs+0GK5wnzqIUe47ckFWMfpMkHok8hQsgAI5md1QyifY1yXxf/1YbdtaOCl/gyex62v2CMbWk/9KJivDoYgqrVZMBf0J7VRr8SdkGqp8g==","691f8ca61c6b4dcbb0aeb5f4","691fae574df6394e97ce24fa","index1","<span style='color:red'>Fail,<span style='color:red'>Fail,<span style='color:green'>Lift,<span style='color:green'>Lift,<span style='color:red'>Fail,<span style='color:red'>Fail,<span style='color:red'>Fail,<span style='color:red'>Fail,<span style='color:red'>Fail,<span style='color:green'>Lift,<span style='color:red'>Fail,<span style='color:green'>Lift","<span style='color:red'>Fail,<span style='color:red'>Fail,<span style='color:green'>Lift,<span style='color:green'>Lift,<span style='color:green'>Lift,<span style='color:green'>Lift,<span style='color:green'>Lift,<span style='color:red'>Fail,<span style='color:green'>Lift,<span style='color:green'>Lift,<span style='color:red'>Fail,<span style='color:green'>Lift","<span style='color:red'>Fail,<span style='color:green'>Lift,<span style='color:green'>Lift,<span style='color:red'>Fail,<span style='color:green'>Lift,<span style='color:green'>Lift","0,0,1,1,0,0,0,0,0,1,0,1","0,0,1,1,1,1,1,0,1,1,0,1","0,1,1,0,1,1",10,20,20,"","","","","{""box1"":""60""}","",NA,4,"round3_ready",4,4,3,NA,NA,NA,NA,NA,NA,NA,NA,NA,NA,NA,NA,NA,NA,60,60,NA,NA,NA,NA,NA,NA,NA,NA,NA,60,60,NA,NA,NA,NA,NA,NA,NA,NA,NA,"",NA,NA,NA,NA,NA,NA,NA,NA,2025-11-21 00:24:44
"11540.60000000894","https://psyc-201.github.io/xiang2023/exp/index1.html?PROLIFIC_PID=REDACTED&STUDY_ID=691f8ca61c6b4dcbb0aeb5f4&SESSION_ID=691fae574df6394e97ce24fa","survey-html-form",34,579266,"0.0-339.0-0.0","g/qitCDKTRC9tXC/CYWUl0ulr5nBZv00ofWtlm+wdjW/YQRuX+tdAFkpGTJDyIGxZx2dAs7UZev3TWF45ouKtjLjF7OP33oJNl9MJEjCrYik2qPp5s90jH/Tdh8oHUkNhR8u8iSTvT+U4JqKEl5KgvIks2Rc0Wdz7/gSWweMwS7lp7HB3HIQeUnevht6JafR1peBr2w9AA2WUc5Is4GT6trUv42pTK/pOTZXFlIUiIPsErs+0GK5wnzqIUe47ckFWMfpMkHok8hQsgAI5md1QyifY1yXxf/1YbdtaOCl/gyex62v2CMbWk/9KJivDoYgqrVZMBf0J7VRr8SdkGqp8g==","691f8ca61c6b4dcbb0aeb5f4","691fae574df6394e97ce24fa","index1","<span style='color:red'>Fail,<span style='color:red'>Fail,<span style='color:green'>Lift,<span style='color:green'>Lift,<span style='color:red'>Fail,<span style='color:red'>Fail,<span style='color:red'>Fail,<span style='color:red'>Fail,<span style='color:red'>Fail,<span style='color:green'>Lift,<span style='color:red'>Fail,<span style='color:green'>Lift","<span style='color:red'>Fail,<span style='color:red'>Fail,<span style='color:green'>Lift,<span style='color:green'>Lift,<span style='color:green'>Lift,<span style='color:green'>Lift,<span style='color:green'>Lift,<span style='color:red'>Fail,<span style='color:green'>Lift,<span style='color:green'>Lift,<span style='color:red'>Fail,<span style='color:green'>Lift","<span style='color:red'>Fail,<span style='color:green'>Lift,<span style='color:green'>Lift,<span style='color:red'>Fail,<span style='color:green'>Lift,<span style='color:green'>Lift","0,0,1,1,0,0,0,0,0,1,0,1","0,0,1,1,1,1,1,0,1,1,0,1","0,1,1,0,1,1",10,20,20,"","","","","{""box1"":""4"",""box2"":""7"",""box3"":""50"",""box4"":""50""}","",NA,5,"round3_lift",5,4,3,4,7,50,50,1,1,20,NA,NA,NA,NA,NA,NA,NA,NA,NA,NA,NA,NA,NA,NA,NA,NA,NA,NA,NA,NA,4,7,50,50,1,1,20,NA,NA,"",NA,NA,NA,NA,NA,NA,NA,NA,2025-11-21 00:24:44
"null","https://psyc-201.github.io/xiang2023/exp/index1.html?PROLIFIC_PID=REDACTED&STUDY_ID=691f8ca61c6b4dcbb0aeb5f4&SESSION_ID=691fae574df6394e97ce24fa","html-keyboard-response",35,582280,"0.0-343.0","g/qitCDKTRC9tXC/CYWUl0ulr5nBZv00ofWtlm+wdjW/YQRuX+tdAFkpGTJDyIGxZx2dAs7UZev3TWF45ouKtjLjF7OP33oJNl9MJEjCrYik2qPp5s90jH/Tdh8oHUkNhR8u8iSTvT+U4JqKEl5KgvIks2Rc0Wdz7/gSWweMwS7lp7HB3HIQeUnevht6JafR1peBr2w9AA2WUc5Is4GT6trUv42pTK/pOTZXFlIUiIPsErs+0GK5wnzqIUe47ckFWMfpMkHok8hQsgAI5md1QyifY1yXxf/1YbdtaOCl/gyex62v2CMbWk/9KJivDoYgqrVZMBf0J7VRr8SdkGqp8g==","691f8ca61c6b4dcbb0aeb5f4","691fae574df6394e97ce24fa","index1","<span style='color:red'>Fail,<span style='color:red'>Fail,<span style='color:green'>Lift,<span style='color:green'>Lift,<span style='color:red'>Fail,<span style='color:red'>Fail,<span style='color:red'>Fail,<span style='color:red'>Fail,<span style='color:red'>Fail,<span style='color:green'>Lift,<span style='color:red'>Fail,<span style='color:green'>Lift","<span style='color:red'>Fail,<span style='color:red'>Fail,<span style='color:green'>Lift,<span style='color:green'>Lift,<span style='color:green'>Lift,<span style='color:green'>Lift,<span style='color:green'>Lift,<span style='color:red'>Fail,<span style='color:green'>Lift,<span style='color:green'>Lift,<span style='color:red'>Fail,<span style='color:green'>Lift","<span style='color:red'>Fail,<span style='color:green'>Lift,<span style='color:green'>Lift,<span style='color:red'>Fail,<span style='color:green'>Lift,<span style='color:green'>Lift","0,0,1,1,0,0,0,0,0,1,0,1","0,0,1,1,1,1,1,0,1,1,0,1","0,1,1,0,1,1",10,20,20,"","","<p style='font-size:30px'><b> New Contest! </b></p>","null","","",NA,5,"",NA,NA,NA,NA,NA,NA,NA,NA,NA,NA,NA,NA,NA,NA,NA,NA,NA,NA,NA,NA,NA,NA,NA,NA,NA,NA,NA,NA,NA,NA,NA,NA,NA,NA,NA,NA,NA,NA,NA,"",NA,NA,NA,NA,NA,NA,NA,NA,2025-11-21 00:24:44
"5806.5999999940395","https://psyc-201.github.io/xiang2023/exp/index1.html?PROLIFIC_PID=REDACTED&STUDY_ID=691f8ca61c6b4dcbb0aeb5f4&SESSION_ID=691fae574df6394e97ce24fa","survey-html-form",36,588089,"0.0-344.0","g/qitCDKTRC9tXC/CYWUl0ulr5nBZv00ofWtlm+wdjW/YQRuX+tdAFkpGTJDyIGxZx2dAs7UZev3TWF45ouKtjLjF7OP33oJNl9MJEjCrYik2qPp5s90jH/Tdh8oHUkNhR8u8iSTvT+U4JqKEl5KgvIks2Rc0Wdz7/gSWweMwS7lp7HB3HIQeUnevht6JafR1peBr2w9AA2WUc5Is4GT6trUv42pTK/pOTZXFlIUiIPsErs+0GK5wnzqIUe47ckFWMfpMkHok8hQsgAI5md1QyifY1yXxf/1YbdtaOCl/gyex62v2CMbWk/9KJivDoYgqrVZMBf0J7VRr8SdkGqp8g==","691f8ca61c6b4dcbb0aeb5f4","691fae574df6394e97ce24fa","index1","<span style='color:red'>Fail,<span style='color:red'>Fail,<span style='color:green'>Lift,<span style='color:green'>Lift,<span style='color:red'>Fail,<span style='color:red'>Fail,<span style='color:red'>Fail,<span style='color:red'>Fail,<span style='color:red'>Fail,<span style='color:green'>Lift,<span style='color:red'>Fail,<span style='color:green'>Lift","<span style='color:red'>Fail,<span style='color:red'>Fail,<span style='color:green'>Lift,<span style='color:green'>Lift,<span style='color:green'>Lift,<span style='color:green'>Lift,<span style='color:green'>Lift,<span style='color:red'>Fail,<span style='color:green'>Lift,<span style='color:green'>Lift,<span style='color:red'>Fail,<span style='color:green'>Lift","<span style='color:red'>Fail,<span style='color:green'>Lift,<span style='color:green'>Lift,<span style='color:red'>Fail,<span style='color:green'>Lift,<span style='color:green'>Lift","0,0,1,1,0,0,0,0,0,1,0,1","0,0,1,1,1,1,1,0,1,1,0,1","0,1,1,0,1,1",10,20,20,"","","","","{""box1"":""1"",""box2"":""2""}","",NA,5,"round1_outcome",1,5,1,1,2,NA,NA,0,0,10,1,2,NA,NA,0,0,10,NA,NA,NA,NA,NA,NA,NA,NA,NA,NA,NA,NA,NA,NA,NA,NA,NA,NA,NA,NA,NA,NA,"",NA,NA,NA,NA,NA,NA,NA,NA,2025-11-21 00:24:44
"8022.20000000298","https://psyc-201.github.io/xiang2023/exp/index1.html?PROLIFIC_PID=REDACTED&STUDY_ID=691f8ca61c6b4dcbb0aeb5f4&SESSION_ID=691fae574df6394e97ce24fa","survey-html-form",37,596114,"0.0-345.0","g/qitCDKTRC9tXC/CYWUl0ulr5nBZv00ofWtlm+wdjW/YQRuX+tdAFkpGTJDyIGxZx2dAs7UZev3TWF45ouKtjLjF7OP33oJNl9MJEjCrYik2qPp5s90jH/Tdh8oHUkNhR8u8iSTvT+U4JqKEl5KgvIks2Rc0Wdz7/gSWweMwS7lp7HB3HIQeUnevht6JafR1peBr2w9AA2WUc5Is4GT6trUv42pTK/pOTZXFlIUiIPsErs+0GK5wnzqIUe47ckFWMfpMkHok8hQsgAI5md1QyifY1yXxf/1YbdtaOCl/gyex62v2CMbWk/9KJivDoYgqrVZMBf0J7VRr8SdkGqp8g==","691f8ca61c6b4dcbb0aeb5f4","691fae574df6394e97ce24fa","index1","<span style='color:red'>Fail,<span style='color:red'>Fail,<span style='color:green'>Lift,<span style='color:green'>Lift,<span style='color:red'>Fail,<span style='color:red'>Fail,<span style='color:red'>Fail,<span style='color:red'>Fail,<span style='color:red'>Fail,<span style='color:green'>Lift,<span style='color:red'>Fail,<span style='color:green'>Lift","<span style='color:red'>Fail,<span style='color:red'>Fail,<span style='color:green'>Lift,<span style='color:green'>Lift,<span style='color:green'>Lift,<span style='color:green'>Lift,<span style='color:green'>Lift,<span style='color:red'>Fail,<span style='color:green'>Lift,<span style='color:green'>Lift,<span style='color:red'>Fail,<span style='color:green'>Lift","<span style='color:red'>Fail,<span style='color:green'>Lift,<span style='color:green'>Lift,<span style='color:red'>Fail,<span style='color:green'>Lift,<span style='color:green'>Lift","0,0,1,1,0,0,0,0,0,1,0,1","0,0,1,1,1,1,1,0,1,1,0,1","0,1,1,0,1,1",10,20,20,"","","","","{""box1"":""10"",""box2"":""20""}","",NA,5,"round2_ready",2,5,2,NA,NA,NA,NA,NA,NA,NA,NA,NA,NA,NA,NA,NA,NA,10,20,10,20,NA,NA,NA,NA,NA,NA,NA,NA,NA,NA,NA,NA,NA,NA,NA,NA,NA,NA,"",NA,NA,NA,NA,NA,NA,NA,NA,2025-11-21 00:24:44
"16565.40000000596","https://psyc-201.github.io/xiang2023/exp/index1.html?PROLIFIC_PID=REDACTED&STUDY_ID=691f8ca61c6b4dcbb0aeb5f4&SESSION_ID=691fae574df6394e97ce24fa","survey-html-form",38,612682,"0.0-346.0","g/qitCDKTRC9tXC/CYWUl0ulr5nBZv00ofWtlm+wdjW/YQRuX+tdAFkpGTJDyIGxZx2dAs7UZev3TWF45ouKtjLjF7OP33oJNl9MJEjCrYik2qPp5s90jH/Tdh8oHUkNhR8u8iSTvT+U4JqKEl5KgvIks2Rc0Wdz7/gSWweMwS7lp7HB3HIQeUnevht6JafR1peBr2w9AA2WUc5Is4GT6trUv42pTK/pOTZXFlIUiIPsErs+0GK5wnzqIUe47ckFWMfpMkHok8hQsgAI5md1QyifY1yXxf/1YbdtaOCl/gyex62v2CMbWk/9KJivDoYgqrVZMBf0J7VRr8SdkGqp8g==","691f8ca61c6b4dcbb0aeb5f4","691fae574df6394e97ce24fa","index1","<span style='color:red'>Fail,<span style='color:red'>Fail,<span style='color:green'>Lift,<span style='color:green'>Lift,<span style='color:red'>Fail,<span style='color:red'>Fail,<span style='color:red'>Fail,<span style='color:red'>Fail,<span style='color:red'>Fail,<span style='color:green'>Lift,<span style='color:red'>Fail,<span style='color:green'>Lift","<span style='color:red'>Fail,<span style='color:red'>Fail,<span style='color:green'>Lift,<span style='color:green'>Lift,<span style='color:green'>Lift,<span style='color:green'>Lift,<span style='color:green'>Lift,<span style='color:red'>Fail,<span style='color:green'>Lift,<span style='color:green'>Lift,<span style='color:red'>Fail,<span style='color:green'>Lift","<span style='color:red'>Fail,<span style='color:green'>Lift,<span style='color:green'>Lift,<span style='color:red'>Fail,<span style='color:green'>Lift,<span style='color:green'>Lift","0,0,1,1,0,0,0,0,0,1,0,1","0,0,1,1,1,1,1,0,1,1,0,1","0,1,1,0,1,1",10,20,20,"","","","","{""box1"":""2"",""box2"":""1"",""box3"":""50""}","",NA,5,"round2_outcome",3,5,2,2,1,50,NA,1,0,20,NA,NA,NA,NA,NA,NA,NA,NA,NA,NA,NA,2,1,50,NA,1,0,20,NA,NA,NA,NA,NA,NA,NA,NA,NA,NA,NA,"",NA,NA,NA,NA,NA,NA,NA,NA,2025-11-21 00:24:44
"18444.70000000298","https://psyc-201.github.io/xiang2023/exp/index1.html?PROLIFIC_PID=REDACTED&STUDY_ID=691f8ca61c6b4dcbb0aeb5f4&SESSION_ID=691fae574df6394e97ce24fa","survey-html-form",39,631129,"0.0-347.0","g/qitCDKTRC9tXC/CYWUl0ulr5nBZv00ofWtlm+wdjW/YQRuX+tdAFkpGTJDyIGxZx2dAs7UZev3TWF45ouKtjLjF7OP33oJNl9MJEjCrYik2qPp5s90jH/Tdh8oHUkNhR8u8iSTvT+U4JqKEl5KgvIks2Rc0Wdz7/gSWweMwS7lp7HB3HIQeUnevht6JafR1peBr2w9AA2WUc5Is4GT6trUv42pTK/pOTZXFlIUiIPsErs+0GK5wnzqIUe47ckFWMfpMkHok8hQsgAI5md1QyifY1yXxf/1YbdtaOCl/gyex62v2CMbWk/9KJivDoYgqrVZMBf0J7VRr8SdkGqp8g==","691f8ca61c6b4dcbb0aeb5f4","691fae574df6394e97ce24fa","index1","<span style='color:red'>Fail,<span style='color:red'>Fail,<span style='color:green'>Lift,<span style='color:green'>Lift,<span style='color:red'>Fail,<span style='color:red'>Fail,<span style='color:red'>Fail,<span style='color:red'>Fail,<span style='color:red'>Fail,<span style='color:green'>Lift,<span style='color:red'>Fail,<span style='color:green'>Lift","<span style='color:red'>Fail,<span style='color:red'>Fail,<span style='color:green'>Lift,<span style='color:green'>Lift,<span style='color:green'>Lift,<span style='color:green'>Lift,<span style='color:green'>Lift,<span style='color:red'>Fail,<span style='color:green'>Lift,<span style='color:green'>Lift,<span style='color:red'>Fail,<span style='color:green'>Lift","<span style='color:red'>Fail,<span style='color:green'>Lift,<span style='color:green'>Lift,<span style='color:red'>Fail,<span style='color:green'>Lift,<span style='color:green'>Lift","0,0,1,1,0,0,0,0,0,1,0,1","0,0,1,1,1,1,1,0,1,1,0,1","0,1,1,0,1,1",10,20,20,"","","","","{""box1"":""20""}","",NA,5,"round3_ready",4,5,3,NA,NA,NA,NA,NA,NA,NA,NA,NA,NA,NA,NA,NA,NA,20,20,NA,NA,NA,NA,NA,NA,NA,NA,NA,20,20,NA,NA,NA,NA,NA,NA,NA,NA,NA,"",NA,NA,NA,NA,NA,NA,NA,NA,2025-11-21 00:24:44
"18017.69999998808","https://psyc-201.github.io/xiang2023/exp/index1.html?PROLIFIC_PID=REDACTED&STUDY_ID=691f8ca61c6b4dcbb0aeb5f4&SESSION_ID=691fae574df6394e97ce24fa","survey-html-form",40,649150,"0.0-349.0-0.0","g/qitCDKTRC9tXC/CYWUl0ulr5nBZv00ofWtlm+wdjW/YQRuX+tdAFkpGTJDyIGxZx2dAs7UZev3TWF45ouKtjLjF7OP33oJNl9MJEjCrYik2qPp5s90jH/Tdh8oHUkNhR8u8iSTvT+U4JqKEl5KgvIks2Rc0Wdz7/gSWweMwS7lp7HB3HIQeUnevht6JafR1peBr2w9AA2WUc5Is4GT6trUv42pTK/pOTZXFlIUiIPsErs+0GK5wnzqIUe47ckFWMfpMkHok8hQsgAI5md1QyifY1yXxf/1YbdtaOCl/gyex62v2CMbWk/9KJivDoYgqrVZMBf0J7VRr8SdkGqp8g==","691f8ca61c6b4dcbb0aeb5f4","691fae574df6394e97ce24fa","index1","<span style='color:red'>Fail,<span style='color:red'>Fail,<span style='color:green'>Lift,<span style='color:green'>Lift,<span style='color:red'>Fail,<span style='color:red'>Fail,<span style='color:red'>Fail,<span style='color:red'>Fail,<span style='color:red'>Fail,<span style='color:green'>Lift,<span style='color:red'>Fail,<span style='color:green'>Lift","<span style='color:red'>Fail,<span style='color:red'>Fail,<span style='color:green'>Lift,<span style='color:green'>Lift,<span style='color:green'>Lift,<span style='color:green'>Lift,<span style='color:green'>Lift,<span style='color:red'>Fail,<span style='color:green'>Lift,<span style='color:green'>Lift,<span style='color:red'>Fail,<span style='color:green'>Lift","<span style='color:red'>Fail,<span style='color:green'>Lift,<span style='color:green'>Lift,<span style='color:red'>Fail,<span style='color:green'>Lift,<span style='color:green'>Lift","0,0,1,1,0,0,0,0,0,1,0,1","0,0,1,1,1,1,1,0,1,1,0,1","0,1,1,0,1,1",10,20,20,"","","","","{""box1"":""2"",""box2"":""1"",""box3"":""999"",""box4"":""999""}","",NA,6,"round3_fail",5,5,3,2,1,NA,NA,0,0,20,NA,NA,NA,NA,NA,NA,NA,NA,NA,NA,NA,NA,NA,NA,NA,NA,NA,NA,NA,NA,2,1,NA,NA,0,0,20,1,1,"",NA,NA,NA,NA,NA,NA,NA,NA,2025-11-21 00:24:44
"null","https://psyc-201.github.io/xiang2023/exp/index1.html?PROLIFIC_PID=REDACTED&STUDY_ID=691f8ca61c6b4dcbb0aeb5f4&SESSION_ID=691fae574df6394e97ce24fa","html-keyboard-response",41,652167,"0.0-352.0","g/qitCDKTRC9tXC/CYWUl0ulr5nBZv00ofWtlm+wdjW/YQRuX+tdAFkpGTJDyIGxZx2dAs7UZev3TWF45ouKtjLjF7OP33oJNl9MJEjCrYik2qPp5s90jH/Tdh8oHUkNhR8u8iSTvT+U4JqKEl5KgvIks2Rc0Wdz7/gSWweMwS7lp7HB3HIQeUnevht6JafR1peBr2w9AA2WUc5Is4GT6trUv42pTK/pOTZXFlIUiIPsErs+0GK5wnzqIUe47ckFWMfpMkHok8hQsgAI5md1QyifY1yXxf/1YbdtaOCl/gyex62v2CMbWk/9KJivDoYgqrVZMBf0J7VRr8SdkGqp8g==","691f8ca61c6b4dcbb0aeb5f4","691fae574df6394e97ce24fa","index1","<span style='color:red'>Fail,<span style='color:red'>Fail,<span style='color:green'>Lift,<span style='color:green'>Lift,<span style='color:red'>Fail,<span style='color:red'>Fail,<span style='color:red'>Fail,<span style='color:red'>Fail,<span style='color:red'>Fail,<span style='color:green'>Lift,<span style='color:red'>Fail,<span style='color:green'>Lift","<span style='color:red'>Fail,<span style='color:red'>Fail,<span style='color:green'>Lift,<span style='color:green'>Lift,<span style='color:green'>Lift,<span style='color:green'>Lift,<span style='color:green'>Lift,<span style='color:red'>Fail,<span style='color:green'>Lift,<span style='color:green'>Lift,<span style='color:red'>Fail,<span style='color:green'>Lift","<span style='color:red'>Fail,<span style='color:green'>Lift,<span style='color:green'>Lift,<span style='color:red'>Fail,<span style='color:green'>Lift,<span style='color:green'>Lift","0,0,1,1,0,0,0,0,0,1,0,1","0,0,1,1,1,1,1,0,1,1,0,1","0,1,1,0,1,1",10,20,20,"","","<p style='font-size:30px'><b> New Contest! </b></p>","null","","",NA,6,"",NA,NA,NA,NA,NA,NA,NA,NA,NA,NA,NA,NA,NA,NA,NA,NA,NA,NA,NA,NA,NA,NA,NA,NA,NA,NA,NA,NA,NA,NA,NA,NA,NA,NA,NA,NA,NA,NA,NA,"",NA,NA,NA,NA,NA,NA,NA,NA,2025-11-21 00:24:44
"5648.0999999940395","https://psyc-201.github.io/xiang2023/exp/index1.html?PROLIFIC_PID=REDACTED&STUDY_ID=691f8ca61c6b4dcbb0aeb5f4&SESSION_ID=691fae574df6394e97ce24fa","survey-html-form",42,657818,"0.0-353.0","g/qitCDKTRC9tXC/CYWUl0ulr5nBZv00ofWtlm+wdjW/YQRuX+tdAFkpGTJDyIGxZx2dAs7UZev3TWF45ouKtjLjF7OP33oJNl9MJEjCrYik2qPp5s90jH/Tdh8oHUkNhR8u8iSTvT+U4JqKEl5KgvIks2Rc0Wdz7/gSWweMwS7lp7HB3HIQeUnevht6JafR1peBr2w9AA2WUc5Is4GT6trUv42pTK/pOTZXFlIUiIPsErs+0GK5wnzqIUe47ckFWMfpMkHok8hQsgAI5md1QyifY1yXxf/1YbdtaOCl/gyex62v2CMbWk/9KJivDoYgqrVZMBf0J7VRr8SdkGqp8g==","691f8ca61c6b4dcbb0aeb5f4","691fae574df6394e97ce24fa","index1","<span style='color:red'>Fail,<span style='color:red'>Fail,<span style='color:green'>Lift,<span style='color:green'>Lift,<span style='color:red'>Fail,<span style='color:red'>Fail,<span style='color:red'>Fail,<span style='color:red'>Fail,<span style='color:red'>Fail,<span style='color:green'>Lift,<span style='color:red'>Fail,<span style='color:green'>Lift","<span style='color:red'>Fail,<span style='color:red'>Fail,<span style='color:green'>Lift,<span style='color:green'>Lift,<span style='color:green'>Lift,<span style='color:green'>Lift,<span style='color:green'>Lift,<span style='color:red'>Fail,<span style='color:green'>Lift,<span style='color:green'>Lift,<span style='color:red'>Fail,<span style='color:green'>Lift","<span style='color:red'>Fail,<span style='color:green'>Lift,<span style='color:green'>Lift,<span style='color:red'>Fail,<span style='color:green'>Lift,<span style='color:green'>Lift","0,0,1,1,0,0,0,0,0,1,0,1","0,0,1,1,1,1,1,0,1,1,0,1","0,1,1,0,1,1",10,20,20,"","","","","{""box1"":""1"",""box2"":""1""}","",NA,6,"round1_outcome",1,6,1,1,1,NA,NA,0,0,10,1,1,NA,NA,0,0,10,NA,NA,NA,NA,NA,NA,NA,NA,NA,NA,NA,NA,NA,NA,NA,NA,NA,NA,NA,NA,NA,NA,"",NA,NA,NA,NA,NA,NA,NA,NA,2025-11-21 00:24:44
"8768.39999999106","https://psyc-201.github.io/xiang2023/exp/index1.html?PROLIFIC_PID=REDACTED&STUDY_ID=691f8ca61c6b4dcbb0aeb5f4&SESSION_ID=691fae574df6394e97ce24fa","survey-html-form",43,666588,"0.0-354.0","g/qitCDKTRC9tXC/CYWUl0ulr5nBZv00ofWtlm+wdjW/YQRuX+tdAFkpGTJDyIGxZx2dAs7UZev3TWF45ouKtjLjF7OP33oJNl9MJEjCrYik2qPp5s90jH/Tdh8oHUkNhR8u8iSTvT+U4JqKEl5KgvIks2Rc0Wdz7/gSWweMwS7lp7HB3HIQeUnevht6JafR1peBr2w9AA2WUc5Is4GT6trUv42pTK/pOTZXFlIUiIPsErs+0GK5wnzqIUe47ckFWMfpMkHok8hQsgAI5md1QyifY1yXxf/1YbdtaOCl/gyex62v2CMbWk/9KJivDoYgqrVZMBf0J7VRr8SdkGqp8g==","691f8ca61c6b4dcbb0aeb5f4","691fae574df6394e97ce24fa","index1","<span style='color:red'>Fail,<span style='color:red'>Fail,<span style='color:green'>Lift,<span style='color:green'>Lift,<span style='color:red'>Fail,<span style='color:red'>Fail,<span style='color:red'>Fail,<span style='color:red'>Fail,<span style='color:red'>Fail,<span style='color:green'>Lift,<span style='color:red'>Fail,<span style='color:green'>Lift","<span style='color:red'>Fail,<span style='color:red'>Fail,<span style='color:green'>Lift,<span style='color:green'>Lift,<span style='color:green'>Lift,<span style='color:green'>Lift,<span style='color:green'>Lift,<span style='color:red'>Fail,<span style='color:green'>Lift,<span style='color:green'>Lift,<span style='color:red'>Fail,<span style='color:green'>Lift","<span style='color:red'>Fail,<span style='color:green'>Lift,<span style='color:green'>Lift,<span style='color:red'>Fail,<span style='color:green'>Lift,<span style='color:green'>Lift","0,0,1,1,0,0,0,0,0,1,0,1","0,0,1,1,1,1,1,0,1,1,0,1","0,1,1,0,1,1",10,20,20,"","","","","{""box1"":""10"",""box2"":""10""}","",NA,6,"round2_ready",2,6,2,NA,NA,NA,NA,NA,NA,NA,NA,NA,NA,NA,NA,NA,NA,10,10,10,10,NA,NA,NA,NA,NA,NA,NA,NA,NA,NA,NA,NA,NA,NA,NA,NA,NA,NA,"",NA,NA,NA,NA,NA,NA,NA,NA,2025-11-21 00:24:44
"4324.20000000298","https://psyc-201.github.io/xiang2023/exp/index1.html?PROLIFIC_PID=REDACTED&STUDY_ID=691f8ca61c6b4dcbb0aeb5f4&SESSION_ID=691fae574df6394e97ce24fa","survey-html-form",44,670914,"0.0-355.0","g/qitCDKTRC9tXC/CYWUl0ulr5nBZv00ofWtlm+wdjW/YQRuX+tdAFkpGTJDyIGxZx2dAs7UZev3TWF45ouKtjLjF7OP33oJNl9MJEjCrYik2qPp5s90jH/Tdh8oHUkNhR8u8iSTvT+U4JqKEl5KgvIks2Rc0Wdz7/gSWweMwS7lp7HB3HIQeUnevht6JafR1peBr2w9AA2WUc5Is4GT6trUv42pTK/pOTZXFlIUiIPsErs+0GK5wnzqIUe47ckFWMfpMkHok8hQsgAI5md1QyifY1yXxf/1YbdtaOCl/gyex62v2CMbWk/9KJivDoYgqrVZMBf0J7VRr8SdkGqp8g==","691f8ca61c6b4dcbb0aeb5f4","691fae574df6394e97ce24fa","index1","<span style='color:red'>Fail,<span style='color:red'>Fail,<span style='color:green'>Lift,<span style='color:green'>Lift,<span style='color:red'>Fail,<span style='color:red'>Fail,<span style='color:red'>Fail,<span style='color:red'>Fail,<span style='color:red'>Fail,<span style='color:green'>Lift,<span style='color:red'>Fail,<span style='color:green'>Lift","<span style='color:red'>Fail,<span style='color:red'>Fail,<span style='color:green'>Lift,<span style='color:green'>Lift,<span style='color:green'>Lift,<span style='color:green'>Lift,<span style='color:green'>Lift,<span style='color:red'>Fail,<span style='color:green'>Lift,<span style='color:green'>Lift,<span style='color:red'>Fail,<span style='color:green'>Lift","<span style='color:red'>Fail,<span style='color:green'>Lift,<span style='color:green'>Lift,<span style='color:red'>Fail,<span style='color:green'>Lift,<span style='color:green'>Lift","0,0,1,1,0,0,0,0,0,1,0,1","0,0,1,1,1,1,1,0,1,1,0,1","0,1,1,0,1,1",10,20,20,"","","","","{""box1"":""1"",""box2"":""1""}","",NA,6,"round2_outcome",3,6,2,1,1,NA,NA,0,0,20,NA,NA,NA,NA,NA,NA,NA,NA,NA,NA,NA,1,1,NA,NA,0,0,20,NA,NA,NA,NA,NA,NA,NA,NA,NA,NA,NA,"",NA,NA,NA,NA,NA,NA,NA,NA,2025-11-21 00:24:44
"3781.8999999910593","https://psyc-201.github.io/xiang2023/exp/index1.html?PROLIFIC_PID=REDACTED&STUDY_ID=691f8ca61c6b4dcbb0aeb5f4&SESSION_ID=691fae574df6394e97ce24fa","survey-html-form",45,674698,"0.0-356.0","g/qitCDKTRC9tXC/CYWUl0ulr5nBZv00ofWtlm+wdjW/YQRuX+tdAFkpGTJDyIGxZx2dAs7UZev3TWF45ouKtjLjF7OP33oJNl9MJEjCrYik2qPp5s90jH/Tdh8oHUkNhR8u8iSTvT+U4JqKEl5KgvIks2Rc0Wdz7/gSWweMwS7lp7HB3HIQeUnevht6JafR1peBr2w9AA2WUc5Is4GT6trUv42pTK/pOTZXFlIUiIPsErs+0GK5wnzqIUe47ckFWMfpMkHok8hQsgAI5md1QyifY1yXxf/1YbdtaOCl/gyex62v2CMbWk/9KJivDoYgqrVZMBf0J7VRr8SdkGqp8g==","691f8ca61c6b4dcbb0aeb5f4","691fae574df6394e97ce24fa","index1","<span style='color:red'>Fail,<span style='color:red'>Fail,<span style='color:green'>Lift,<span style='color:green'>Lift,<span style='color:red'>Fail,<span style='color:red'>Fail,<span style='color:red'>Fail,<span style='color:red'>Fail,<span style='color:red'>Fail,<span style='color:green'>Lift,<span style='color:red'>Fail,<span style='color:green'>Lift","<span style='color:red'>Fail,<span style='color:red'>Fail,<span style='color:green'>Lift,<span style='color:green'>Lift,<span style='color:green'>Lift,<span style='color:green'>Lift,<span style='color:green'>Lift,<span style='color:red'>Fail,<span style='color:green'>Lift,<span style='color:green'>Lift,<span style='color:red'>Fail,<span style='color:green'>Lift","<span style='color:red'>Fail,<span style='color:green'>Lift,<span style='color:green'>Lift,<span style='color:red'>Fail,<span style='color:green'>Lift,<span style='color:green'>Lift","0,0,1,1,0,0,0,0,0,1,0,1","0,0,1,1,1,1,1,0,1,1,0,1","0,1,1,0,1,1",10,20,20,"","","","","{""box1"":""10""}","",NA,6,"round3_ready",4,6,3,NA,NA,NA,NA,NA,NA,NA,NA,NA,NA,NA,NA,NA,NA,10,10,NA,NA,NA,NA,NA,NA,NA,NA,NA,10,10,NA,NA,NA,NA,NA,NA,NA,NA,NA,"",NA,NA,NA,NA,NA,NA,NA,NA,2025-11-21 00:24:44
"12607.90000000596","https://psyc-201.github.io/xiang2023/exp/index1.html?PROLIFIC_PID=REDACTED&STUDY_ID=691f8ca61c6b4dcbb0aeb5f4&SESSION_ID=691fae574df6394e97ce24fa","survey-html-form",46,687308,"0.0-358.0-0.0","g/qitCDKTRC9tXC/CYWUl0ulr5nBZv00ofWtlm+wdjW/YQRuX+tdAFkpGTJDyIGxZx2dAs7UZev3TWF45ouKtjLjF7OP33oJNl9MJEjCrYik2qPp5s90jH/Tdh8oHUkNhR8u8iSTvT+U4JqKEl5KgvIks2Rc0Wdz7/gSWweMwS7lp7HB3HIQeUnevht6JafR1peBr2w9AA2WUc5Is4GT6trUv42pTK/pOTZXFlIUiIPsErs+0GK5wnzqIUe47ckFWMfpMkHok8hQsgAI5md1QyifY1yXxf/1YbdtaOCl/gyex62v2CMbWk/9KJivDoYgqrVZMBf0J7VRr8SdkGqp8g==","691f8ca61c6b4dcbb0aeb5f4","691fae574df6394e97ce24fa","index1","<span style='color:red'>Fail,<span style='color:red'>Fail,<span style='color:green'>Lift,<span style='color:green'>Lift,<span style='color:red'>Fail,<span style='color:red'>Fail,<span style='color:red'>Fail,<span style='color:red'>Fail,<span style='color:red'>Fail,<span style='color:green'>Lift,<span style='color:red'>Fail,<span style='color:green'>Lift","<span style='color:red'>Fail,<span style='color:red'>Fail,<span style='color:green'>Lift,<span style='color:green'>Lift,<span style='color:green'>Lift,<span style='color:green'>Lift,<span style='color:green'>Lift,<span style='color:red'>Fail,<span style='color:green'>Lift,<span style='color:green'>Lift,<span style='color:red'>Fail,<span style='color:green'>Lift","<span style='color:red'>Fail,<span style='color:green'>Lift,<span style='color:green'>Lift,<span style='color:red'>Fail,<span style='color:green'>Lift,<span style='color:green'>Lift","0,0,1,1,0,0,0,0,0,1,0,1","0,0,1,1,1,1,1,0,1,1,0,1","0,1,1,0,1,1",10,20,20,"","","","","{""box1"":""1"",""box2"":""1"",""box3"":""999"",""box4"":""999""}","",NA,6,"round3_fail",5,6,3,1,1,NA,NA,0,0,20,NA,NA,NA,NA,NA,NA,NA,NA,NA,NA,NA,NA,NA,NA,NA,NA,NA,NA,NA,NA,1,1,NA,NA,0,0,20,1,1,"",NA,NA,NA,NA,NA,NA,NA,NA,2025-11-21 00:24:44
"34250.40000000596","https://psyc-201.github.io/xiang2023/exp/index1.html?PROLIFIC_PID=REDACTED&STUDY_ID=691f8ca61c6b4dcbb0aeb5f4&SESSION_ID=691fae574df6394e97ce24fa","survey-text",47,721563,"0.0-361.0","g/qitCDKTRC9tXC/CYWUl0ulr5nBZv00ofWtlm+wdjW/YQRuX+tdAFkpGTJDyIGxZx2dAs7UZev3TWF45ouKtjLjF7OP33oJNl9MJEjCrYik2qPp5s90jH/Tdh8oHUkNhR8u8iSTvT+U4JqKEl5KgvIks2Rc0Wdz7/gSWweMwS7lp7HB3HIQeUnevht6JafR1peBr2w9AA2WUc5Is4GT6trUv42pTK/pOTZXFlIUiIPsErs+0GK5wnzqIUe47ckFWMfpMkHok8hQsgAI5md1QyifY1yXxf/1YbdtaOCl/gyex62v2CMbWk/9KJivDoYgqrVZMBf0J7VRr8SdkGqp8g==","691f8ca61c6b4dcbb0aeb5f4","691fae574df6394e97ce24fa","index1","<span style='color:red'>Fail,<span style='color:red'>Fail,<span style='color:green'>Lift,<span style='color:green'>Lift,<span style='color:red'>Fail,<span style='color:red'>Fail,<span style='color:red'>Fail,<span style='color:red'>Fail,<span style='color:red'>Fail,<span style='color:green'>Lift,<span style='color:red'>Fail,<span style='color:green'>Lift","<span style='color:red'>Fail,<span style='color:red'>Fail,<span style='color:green'>Lift,<span style='color:green'>Lift,<span style='color:green'>Lift,<span style='color:green'>Lift,<span style='color:green'>Lift,<span style='color:red'>Fail,<span style='color:green'>Lift,<span style='color:green'>Lift,<span style='color:red'>Fail,<span style='color:green'>Lift","<span style='color:red'>Fail,<span style='color:green'>Lift,<span style='color:green'>Lift,<span style='color:red'>Fail,<span style='color:green'>Lift,<span style='color:green'>Lift","0,0,1,1,0,0,0,0,0,1,0,1","0,0,1,1,1,1,1,0,1,1,0,1","0,1,1,0,1,1",10,20,20,"","","","","{""Q0"":""I had to rate the strength of each contestant and the probability they would be able to lift the box independently and as a pair.""}","",NA,NA,"",NA,NA,NA,NA,NA,NA,NA,NA,NA,NA,NA,NA,NA,NA,NA,NA,NA,NA,NA,NA,NA,NA,NA,NA,NA,NA,NA,NA,NA,NA,NA,NA,NA,NA,NA,NA,NA,NA,NA,"",NA,NA,NA,NA,NA,NA,NA,NA,2025-11-21 00:24:44
"10339.59999999404","https://psyc-201.github.io/xiang2023/exp/index1.html?PROLIFIC_PID=REDACTED&STUDY_ID=691f8ca61c6b4dcbb0aeb5f4&SESSION_ID=691fae574df6394e97ce24fa","survey-text",48,731906,"0.0-362.0","g/qitCDKTRC9tXC/CYWUl0ulr5nBZv00ofWtlm+wdjW/YQRuX+tdAFkpGTJDyIGxZx2dAs7UZev3TWF45ouKtjLjF7OP33oJNl9MJEjCrYik2qPp5s90jH/Tdh8oHUkNhR8u8iSTvT+U4JqKEl5KgvIks2Rc0Wdz7/gSWweMwS7lp7HB3HIQeUnevht6JafR1peBr2w9AA2WUc5Is4GT6trUv42pTK/pOTZXFlIUiIPsErs+0GK5wnzqIUe47ckFWMfpMkHok8hQsgAI5md1QyifY1yXxf/1YbdtaOCl/gyex62v2CMbWk/9KJivDoYgqrVZMBf0J7VRr8SdkGqp8g==","691f8ca61c6b4dcbb0aeb5f4","691fae574df6394e97ce24fa","index1","<span style='color:red'>Fail,<span style='color:red'>Fail,<span style='color:green'>Lift,<span style='color:green'>Lift,<span style='color:red'>Fail,<span style='color:red'>Fail,<span style='color:red'>Fail,<span style='color:red'>Fail,<span style='color:red'>Fail,<span style='color:green'>Lift,<span style='color:red'>Fail,<span style='color:green'>Lift","<span style='color:red'>Fail,<span style='color:red'>Fail,<span style='color:green'>Lift,<span style='color:green'>Lift,<span style='color:green'>Lift,<span style='color:green'>Lift,<span style='color:green'>Lift,<span style='color:red'>Fail,<span style='color:green'>Lift,<span style='color:green'>Lift,<span style='color:red'>Fail,<span style='color:green'>Lift","<span style='color:red'>Fail,<span style='color:green'>Lift,<span style='color:green'>Lift,<span style='color:red'>Fail,<span style='color:green'>Lift,<span style='color:green'>Lift","0,0,1,1,0,0,0,0,0,1,0,1","0,0,1,1,1,1,1,0,1,1,0,1","0,1,1,0,1,1",10,20,20,"","","","","{""Q0"":""N/A""}","",NA,NA,"",NA,NA,NA,NA,NA,NA,NA,NA,NA,NA,NA,NA,NA,NA,NA,NA,NA,NA,NA,NA,NA,NA,NA,NA,NA,NA,NA,NA,NA,NA,NA,NA,NA,NA,NA,NA,NA,NA,NA,"[{""event"":""fullscreenenter"",""trial"":1,""time"":13506}]",1,3,NA,95,1,0.95,NA,NA,2025-11-21 00:24:44
"9619.40000000596","https://psyc-201.github.io/xiang2023/exp/index1.html?PROLIFIC_PID=REDACTED&STUDY_ID=691f8ca61c6b4dcbb0aeb5f4&SESSION_ID=691fae574df6394e97ce24fa","html-button-response",49,741529,"0.0-363.0","g/qitCDKTRC9tXC/CYWUl0ulr5nBZv00ofWtlm+wdjW/YQRuX+tdAFkpGTJDyIGxZx2dAs7UZev3TWF45ouKtjLjF7OP33oJNl9MJEjCrYik2qPp5s90jH/Tdh8oHUkNhR8u8iSTvT+U4JqKEl5KgvIks2Rc0Wdz7/gSWweMwS7lp7HB3HIQeUnevht6JafR1peBr2w9AA2WUc5Is4GT6trUv42pTK/pOTZXFlIUiIPsErs+0GK5wnzqIUe47ckFWMfpMkHok8hQsgAI5md1QyifY1yXxf/1YbdtaOCl/gyex62v2CMbWk/9KJivDoYgqrVZMBf0J7VRr8SdkGqp8g==","691f8ca61c6b4dcbb0aeb5f4","691fae574df6394e97ce24fa","index1","<span style='color:red'>Fail,<span style='color:red'>Fail,<span style='color:green'>Lift,<span style='color:green'>Lift,<span style='color:red'>Fail,<span style='color:red'>Fail,<span style='color:red'>Fail,<span style='color:red'>Fail,<span style='color:red'>Fail,<span style='color:green'>Lift,<span style='color:red'>Fail,<span style='color:green'>Lift","<span style='color:red'>Fail,<span style='color:red'>Fail,<span style='color:green'>Lift,<span style='color:green'>Lift,<span style='color:green'>Lift,<span style='color:green'>Lift,<span style='color:green'>Lift,<span style='color:red'>Fail,<span style='color:green'>Lift,<span style='color:green'>Lift,<span style='color:red'>Fail,<span style='color:green'>Lift","<span style='color:red'>Fail,<span style='color:green'>Lift,<span style='color:green'>Lift,<span style='color:red'>Fail,<span style='color:green'>Lift,<span style='color:green'>Lift","0,0,1,1,0,0,0,0,0,1,0,1","0,0,1,1,1,1,1,0,1,1,0,1","0,1,1,0,1,1",10,20,20,"","","<p> We randomly picked <b>Contest 1, Round 3</b> to calculate your bonus. </p><p> The outcome of Contestant A and B on that round is <span style='color:green'>Lift</span>. </p><p> The probability you entered was 95. </p><p><b> You won a bonus of $0.95!</b></p><p> IMPORTANT: Please click 'Next' to complete the game. </p>","","","",0,NA,"",NA,NA,NA,NA,NA,NA,NA,NA,NA,NA,NA,NA,NA,NA,NA,NA,NA,NA,NA,NA,NA,NA,NA,NA,NA,NA,NA,NA,NA,NA,NA,NA,NA,NA,NA,NA,NA,NA,NA,"",NA,NA,NA,NA,NA,NA,2,1,2025-11-21 00:24:44
