"rt","url","trial_type","trial_index","time_elapsed","internal_node_id","encryptedProlificId","studyId","sessionId","expIndex","round1_outcomes","round2_outcomes","round3_outcomes","round1_o","round2_o","round3_o","round1_reward","round2_reward","round3_reward","success","view_history","stimulus","key_press","responses","question_order","j","Stage","stage","contest","round","strength_a","strength_b","effort_a","effort_b","outcome_a","outcome_b","reward","r1_strength_a","r1_strength_b","r1_effort_a","r1_effort_b","r1_outcome_a","r1_outcome_b","r1_reward","probability_a","probability_b","r2_prob_a","r2_prob_b","r2_strength_a","r2_strength_b","r2_effort_a","r2_effort_b","r2_outcome_a","r2_outcome_b","r2_reward","r3_prob_a","r3_prob_b","attention_check","count","r3_strength_a","r3_strength_b","r3_outcome_a","r3_outcome_b","r3_reward","r3_effort_a","r3_effort_b","screen","pick_contest","pick_round","pick_side","trial_probability","trial_outcome","bonus","button_pressed","attention_sum","attention","datapipe_meta.attributes.date_modified"
"5009.5","https://psyc-201.github.io/xiang2023/exp/index1.html?PROLIFIC_PID=REDACTED&STUDY_ID=691f8ca61c6b4dcbb0aeb5f4&SESSION_ID=691fcacd0173cfd9640f886c","external-html",0,5035,"0.0-0.0","H/EcZQCu7wXiOaWPM5fkqI67FK4Kpr3Y8YisjpfjHMlccfZj1K7MIwYyZqif2Za5cVa3RabZQPNiqKF9ozBTO0xZL8Hp3cZRCQI6Jg2b9G0wMIHD8VhX3WNfoGIBEtqUKZmywpphauGD/DS/wQTxWomndD+eywQi1LbXNBrQ5t/Ofbrp9TGcRqotbCbdPyYuL7kfo7r6o2poedfXlk7ejiVIoMXEK92BBYxppd27Qi3MnP70fz/J+9MeTC2Eg1QTJ54MHphhtwfSXXRFEILwxHnbPeTQyY//PhecTp5lqniUezy8XB2w1WIUbk+ezO5rnqYYxdOKVphCkpQCYaMtIw==","691f8ca61c6b4dcbb0aeb5f4","691fcacd0173cfd9640f886c","index1","<span style='color:red'>Fail,<span style='color:red'>Fail,<span style='color:green'>Lift,<span style='color:green'>Lift,<span style='color:red'>Fail,<span style='color:red'>Fail,<span style='color:red'>Fail,<span style='color:red'>Fail,<span style='color:green'>Lift,<span style='color:red'>Fail,<span style='color:red'>Fail,<span style='color:green'>Lift","<span style='color:red'>Fail,<span style='color:red'>Fail,<span style='color:green'>Lift,<span style='color:green'>Lift,<span style='color:green'>Lift,<span style='color:green'>Lift,<span style='color:green'>Lift,<span style='color:red'>Fail,<span style='color:green'>Lift,<span style='color:green'>Lift,<span style='color:red'>Fail,<span style='color:green'>Lift","<span style='color:red'>Fail,<span style='color:green'>Lift,<span style='color:green'>Lift,<span style='color:red'>Fail,<span style='color:green'>Lift,<span style='color:green'>Lift","0,0,1,1,0,0,0,0,1,0,0,1","0,0,1,1,1,1,1,0,1,1,0,1","0,1,1,0,1,1",10,20,20,"","","","","","",NA,"",NA,NA,NA,NA,NA,NA,NA,NA,NA,NA,NA,NA,NA,NA,NA,NA,NA,NA,NA,NA,NA,NA,NA,NA,NA,NA,NA,NA,NA,NA,NA,NA,NA,NA,NA,NA,NA,NA,NA,"",NA,NA,NA,NA,NA,NA,NA,NA,NA,2025-11-21 02:35:48
"","https://psyc-201.github.io/xiang2023/exp/index1.html?PROLIFIC_PID=REDACTED&STUDY_ID=691f8ca61c6b4dcbb0aeb5f4&SESSION_ID=691fcacd0173cfd9640f886c","fullscreen",1,13868,"0.0-1.0","H/EcZQCu7wXiOaWPM5fkqI67FK4Kpr3Y8YisjpfjHMlccfZj1K7MIwYyZqif2Za5cVa3RabZQPNiqKF9ozBTO0xZL8Hp3cZRCQI6Jg2b9G0wMIHD8VhX3WNfoGIBEtqUKZmywpphauGD/DS/wQTxWomndD+eywQi1LbXNBrQ5t/Ofbrp9TGcRqotbCbdPyYuL7kfo7r6o2poedfXlk7ejiVIoMXEK92BBYxppd27Qi3MnP70fz/J+9MeTC2Eg1QTJ54MHphhtwfSXXRFEILwxHnbPeTQyY//PhecTp5lqniUezy8XB2w1WIUbk+ezO5rnqYYxdOKVphCkpQCYaMtIw==","691f8ca61c6b4dcbb0aeb5f4","691fcacd0173cfd9640f886c","index1","<span style='color:red'>Fail,<span style='color:red'>Fail,<span style='color:green'>Lift,<span style='color:green'>Lift,<span style='color:red'>Fail,<span style='color:red'>Fail,<span style='color:red'>Fail,<span style='color:red'>Fail,<span style='color:green'>Lift,<span style='color:red'>Fail,<span style='color:red'>Fail,<span style='color:green'>Lift","<span style='color:red'>Fail,<span style='color:red'>Fail,<span style='color:green'>Lift,<span style='color:green'>Lift,<span style='color:green'>Lift,<span style='color:green'>Lift,<span style='color:green'>Lift,<span style='color:red'>Fail,<span style='color:green'>Lift,<span style='color:green'>Lift,<span style='color:red'>Fail,<span style='color:green'>Lift","<span style='color:red'>Fail,<span style='color:green'>Lift,<span style='color:green'>Lift,<span style='color:red'>Fail,<span style='color:green'>Lift,<span style='color:green'>Lift","0,0,1,1,0,0,0,0,1,0,0,1","0,0,1,1,1,1,1,0,1,1,0,1","0,1,1,0,1,1",10,20,20,"true","","","","","",NA,"",NA,NA,NA,NA,NA,NA,NA,NA,NA,NA,NA,NA,NA,NA,NA,NA,NA,NA,NA,NA,NA,NA,NA,NA,NA,NA,NA,NA,NA,NA,NA,NA,NA,NA,NA,NA,NA,NA,NA,"",NA,NA,NA,NA,NA,NA,NA,NA,NA,2025-11-21 02:35:48
"204476.10000002384","https://psyc-201.github.io/xiang2023/exp/index1.html?PROLIFIC_PID=REDACTED&STUDY_ID=691f8ca61c6b4dcbb0aeb5f4&SESSION_ID=691fcacd0173cfd9640f886c","instructions",2,218346,"0.0-2.0","H/EcZQCu7wXiOaWPM5fkqI67FK4Kpr3Y8YisjpfjHMlccfZj1K7MIwYyZqif2Za5cVa3RabZQPNiqKF9ozBTO0xZL8Hp3cZRCQI6Jg2b9G0wMIHD8VhX3WNfoGIBEtqUKZmywpphauGD/DS/wQTxWomndD+eywQi1LbXNBrQ5t/Ofbrp9TGcRqotbCbdPyYuL7kfo7r6o2poedfXlk7ejiVIoMXEK92BBYxppd27Qi3MnP70fz/J+9MeTC2Eg1QTJ54MHphhtwfSXXRFEILwxHnbPeTQyY//PhecTp5lqniUezy8XB2w1WIUbk+ezO5rnqYYxdOKVphCkpQCYaMtIw==","691f8ca61c6b4dcbb0aeb5f4","691fcacd0173cfd9640f886c","index1","<span style='color:red'>Fail,<span style='color:red'>Fail,<span style='color:green'>Lift,<span style='color:green'>Lift,<span style='color:red'>Fail,<span style='color:red'>Fail,<span style='color:red'>Fail,<span style='color:red'>Fail,<span style='color:green'>Lift,<span style='color:red'>Fail,<span style='color:red'>Fail,<span style='color:green'>Lift","<span style='color:red'>Fail,<span style='color:red'>Fail,<span style='color:green'>Lift,<span style='color:green'>Lift,<span style='color:green'>Lift,<span style='color:green'>Lift,<span style='color:green'>Lift,<span style='color:red'>Fail,<span style='color:green'>Lift,<span style='color:green'>Lift,<span style='color:red'>Fail,<span style='color:green'>Lift","<span style='color:red'>Fail,<span style='color:green'>Lift,<span style='color:green'>Lift,<span style='color:red'>Fail,<span style='color:green'>Lift,<span style='color:green'>Lift","0,0,1,1,0,0,0,0,1,0,0,1","0,0,1,1,1,1,1,0,1,1,0,1","0,1,1,0,1,1",10,20,20,"","[{""page_index"":0,""viewing_time"":53292},{""page_index"":1,""viewing_time"":41463.60000002384},{""page_index"":2,""viewing_time"":16856.19999998808},{""page_index"":3,""viewing_time"":38127.80000001192},{""page_index"":4,""viewing_time"":22104.099999964237},{""page_index"":5,""viewing_time"":24184},{""page_index"":6,""viewing_time"":8447.900000035763}]","","","","",NA,"",NA,NA,NA,NA,NA,NA,NA,NA,NA,NA,NA,NA,NA,NA,NA,NA,NA,NA,NA,NA,NA,NA,NA,NA,NA,NA,NA,NA,NA,NA,NA,NA,NA,NA,NA,NA,NA,NA,NA,"",NA,NA,NA,NA,NA,NA,NA,NA,NA,2025-11-21 02:35:48
"null","https://psyc-201.github.io/xiang2023/exp/index1.html?PROLIFIC_PID=REDACTED&STUDY_ID=691f8ca61c6b4dcbb0aeb5f4&SESSION_ID=691fcacd0173cfd9640f886c","html-keyboard-response",3,219353,"0.0-3.0","H/EcZQCu7wXiOaWPM5fkqI67FK4Kpr3Y8YisjpfjHMlccfZj1K7MIwYyZqif2Za5cVa3RabZQPNiqKF9ozBTO0xZL8Hp3cZRCQI6Jg2b9G0wMIHD8VhX3WNfoGIBEtqUKZmywpphauGD/DS/wQTxWomndD+eywQi1LbXNBrQ5t/Ofbrp9TGcRqotbCbdPyYuL7kfo7r6o2poedfXlk7ejiVIoMXEK92BBYxppd27Qi3MnP70fz/J+9MeTC2Eg1QTJ54MHphhtwfSXXRFEILwxHnbPeTQyY//PhecTp5lqniUezy8XB2w1WIUbk+ezO5rnqYYxdOKVphCkpQCYaMtIw==","691f8ca61c6b4dcbb0aeb5f4","691fcacd0173cfd9640f886c","index1","<span style='color:red'>Fail,<span style='color:red'>Fail,<span style='color:green'>Lift,<span style='color:green'>Lift,<span style='color:red'>Fail,<span style='color:red'>Fail,<span style='color:red'>Fail,<span style='color:red'>Fail,<span style='color:green'>Lift,<span style='color:red'>Fail,<span style='color:red'>Fail,<span style='color:green'>Lift","<span style='color:red'>Fail,<span style='color:red'>Fail,<span style='color:green'>Lift,<span style='color:green'>Lift,<span style='color:green'>Lift,<span style='color:green'>Lift,<span style='color:green'>Lift,<span style='color:red'>Fail,<span style='color:green'>Lift,<span style='color:green'>Lift,<span style='color:red'>Fail,<span style='color:green'>Lift","<span style='color:red'>Fail,<span style='color:green'>Lift,<span style='color:green'>Lift,<span style='color:red'>Fail,<span style='color:green'>Lift,<span style='color:green'>Lift","0,0,1,1,0,0,0,0,1,0,0,1","0,0,1,1,1,1,1,0,1,1,0,1","0,1,1,0,1,1",10,20,20,"",""," ","null","","",NA,"",NA,NA,NA,NA,NA,NA,NA,NA,NA,NA,NA,NA,NA,NA,NA,NA,NA,NA,NA,NA,NA,NA,NA,NA,NA,NA,NA,NA,NA,NA,NA,NA,NA,NA,NA,NA,NA,NA,NA,"",NA,NA,NA,NA,NA,NA,NA,NA,NA,2025-11-21 02:35:48
"185785.59999996424","https://psyc-201.github.io/xiang2023/exp/index1.html?PROLIFIC_PID=REDACTED&STUDY_ID=691f8ca61c6b4dcbb0aeb5f4&SESSION_ID=691fcacd0173cfd9640f886c","survey-multi-choice",4,405141,"0.0-4.0","H/EcZQCu7wXiOaWPM5fkqI67FK4Kpr3Y8YisjpfjHMlccfZj1K7MIwYyZqif2Za5cVa3RabZQPNiqKF9ozBTO0xZL8Hp3cZRCQI6Jg2b9G0wMIHD8VhX3WNfoGIBEtqUKZmywpphauGD/DS/wQTxWomndD+eywQi1LbXNBrQ5t/Ofbrp9TGcRqotbCbdPyYuL7kfo7r6o2poedfXlk7ejiVIoMXEK92BBYxppd27Qi3MnP70fz/J+9MeTC2Eg1QTJ54MHphhtwfSXXRFEILwxHnbPeTQyY//PhecTp5lqniUezy8XB2w1WIUbk+ezO5rnqYYxdOKVphCkpQCYaMtIw==","691f8ca61c6b4dcbb0aeb5f4","691fcacd0173cfd9640f886c","index1","<span style='color:red'>Fail,<span style='color:red'>Fail,<span style='color:green'>Lift,<span style='color:green'>Lift,<span style='color:red'>Fail,<span style='color:red'>Fail,<span style='color:red'>Fail,<span style='color:red'>Fail,<span style='color:green'>Lift,<span style='color:red'>Fail,<span style='color:red'>Fail,<span style='color:green'>Lift","<span style='color:red'>Fail,<span style='color:red'>Fail,<span style='color:green'>Lift,<span style='color:green'>Lift,<span style='color:green'>Lift,<span style='color:green'>Lift,<span style='color:green'>Lift,<span style='color:red'>Fail,<span style='color:green'>Lift,<span style='color:green'>Lift,<span style='color:red'>Fail,<span style='color:green'>Lift","<span style='color:red'>Fail,<span style='color:green'>Lift,<span style='color:green'>Lift,<span style='color:red'>Fail,<span style='color:green'>Lift,<span style='color:green'>Lift","0,0,1,1,0,0,0,0,1,0,0,1","0,0,1,1,1,1,1,0,1,1,0,1","0,1,1,0,1,1",10,20,20,"","","","","{""Q0"":""It consists of multiple contests, each contest with three rounds."",""Q1"":""When a new contest begins."",""Q2"":""The box weight always stays the same (equivalent to strength of 5)."",""Q3"":""Each will get $20."",""Q4"":""How close my guesses are to the actual outcome.""}","[0,1,2,3,4]",NA,"",NA,NA,NA,NA,NA,NA,NA,NA,NA,NA,NA,NA,NA,NA,NA,NA,NA,NA,NA,NA,NA,NA,NA,NA,NA,NA,NA,NA,NA,NA,NA,NA,NA,NA,NA,NA,NA,NA,NA,"",NA,NA,NA,NA,NA,NA,NA,NA,NA,2025-11-21 02:35:48
"20160.600000023842","https://psyc-201.github.io/xiang2023/exp/index1.html?PROLIFIC_PID=REDACTED&STUDY_ID=691f8ca61c6b4dcbb0aeb5f4&SESSION_ID=691fcacd0173cfd9640f886c","instructions",5,425306,"0.0-305.0","H/EcZQCu7wXiOaWPM5fkqI67FK4Kpr3Y8YisjpfjHMlccfZj1K7MIwYyZqif2Za5cVa3RabZQPNiqKF9ozBTO0xZL8Hp3cZRCQI6Jg2b9G0wMIHD8VhX3WNfoGIBEtqUKZmywpphauGD/DS/wQTxWomndD+eywQi1LbXNBrQ5t/Ofbrp9TGcRqotbCbdPyYuL7kfo7r6o2poedfXlk7ejiVIoMXEK92BBYxppd27Qi3MnP70fz/J+9MeTC2Eg1QTJ54MHphhtwfSXXRFEILwxHnbPeTQyY//PhecTp5lqniUezy8XB2w1WIUbk+ezO5rnqYYxdOKVphCkpQCYaMtIw==","691f8ca61c6b4dcbb0aeb5f4","691fcacd0173cfd9640f886c","index1","<span style='color:red'>Fail,<span style='color:red'>Fail,<span style='color:green'>Lift,<span style='color:green'>Lift,<span style='color:red'>Fail,<span style='color:red'>Fail,<span style='color:red'>Fail,<span style='color:red'>Fail,<span style='color:green'>Lift,<span style='color:red'>Fail,<span style='color:red'>Fail,<span style='color:green'>Lift","<span style='color:red'>Fail,<span style='color:red'>Fail,<span style='color:green'>Lift,<span style='color:green'>Lift,<span style='color:green'>Lift,<span style='color:green'>Lift,<span style='color:green'>Lift,<span style='color:red'>Fail,<span style='color:green'>Lift,<span style='color:green'>Lift,<span style='color:red'>Fail,<span style='color:green'>Lift","<span style='color:red'>Fail,<span style='color:green'>Lift,<span style='color:green'>Lift,<span style='color:red'>Fail,<span style='color:green'>Lift,<span style='color:green'>Lift","0,0,1,1,0,0,0,0,1,0,0,1","0,0,1,1,1,1,1,0,1,1,0,1","0,1,1,0,1,1",10,20,20,"","[{""page_index"":0,""viewing_time"":15248.400000035763},{""page_index"":1,""viewing_time"":4911.899999976158}]","","","","",NA,"",NA,NA,NA,NA,NA,NA,NA,NA,NA,NA,NA,NA,NA,NA,NA,NA,NA,NA,NA,NA,NA,NA,NA,NA,NA,NA,NA,NA,NA,NA,NA,NA,NA,NA,NA,NA,NA,NA,NA,"",NA,NA,NA,NA,NA,NA,NA,NA,NA,2025-11-21 02:35:48
"null","https://psyc-201.github.io/xiang2023/exp/index1.html?PROLIFIC_PID=REDACTED&STUDY_ID=691f8ca61c6b4dcbb0aeb5f4&SESSION_ID=691fcacd0173cfd9640f886c","html-keyboard-response",6,426308,"0.0-306.0","H/EcZQCu7wXiOaWPM5fkqI67FK4Kpr3Y8YisjpfjHMlccfZj1K7MIwYyZqif2Za5cVa3RabZQPNiqKF9ozBTO0xZL8Hp3cZRCQI6Jg2b9G0wMIHD8VhX3WNfoGIBEtqUKZmywpphauGD/DS/wQTxWomndD+eywQi1LbXNBrQ5t/Ofbrp9TGcRqotbCbdPyYuL7kfo7r6o2poedfXlk7ejiVIoMXEK92BBYxppd27Qi3MnP70fz/J+9MeTC2Eg1QTJ54MHphhtwfSXXRFEILwxHnbPeTQyY//PhecTp5lqniUezy8XB2w1WIUbk+ezO5rnqYYxdOKVphCkpQCYaMtIw==","691f8ca61c6b4dcbb0aeb5f4","691fcacd0173cfd9640f886c","index1","<span style='color:red'>Fail,<span style='color:red'>Fail,<span style='color:green'>Lift,<span style='color:green'>Lift,<span style='color:red'>Fail,<span style='color:red'>Fail,<span style='color:red'>Fail,<span style='color:red'>Fail,<span style='color:green'>Lift,<span style='color:red'>Fail,<span style='color:red'>Fail,<span style='color:green'>Lift","<span style='color:red'>Fail,<span style='color:red'>Fail,<span style='color:green'>Lift,<span style='color:green'>Lift,<span style='color:green'>Lift,<span style='color:green'>Lift,<span style='color:green'>Lift,<span style='color:red'>Fail,<span style='color:green'>Lift,<span style='color:green'>Lift,<span style='color:red'>Fail,<span style='color:green'>Lift","<span style='color:red'>Fail,<span style='color:green'>Lift,<span style='color:green'>Lift,<span style='color:red'>Fail,<span style='color:green'>Lift,<span style='color:green'>Lift","0,0,1,1,0,0,0,0,1,0,0,1","0,0,1,1,1,1,1,0,1,1,0,1","0,1,1,0,1,1",10,20,20,"",""," ","null","","",1,"",NA,NA,NA,NA,NA,NA,NA,NA,NA,NA,NA,NA,NA,NA,NA,NA,NA,NA,NA,NA,NA,NA,NA,NA,NA,NA,NA,NA,NA,NA,NA,NA,NA,NA,NA,NA,NA,NA,NA,"",NA,NA,NA,NA,NA,NA,NA,NA,NA,2025-11-21 02:35:48
"null","https://psyc-201.github.io/xiang2023/exp/index1.html?PROLIFIC_PID=REDACTED&STUDY_ID=691f8ca61c6b4dcbb0aeb5f4&SESSION_ID=691fcacd0173cfd9640f886c","html-keyboard-response",7,429318,"0.0-307.0","H/EcZQCu7wXiOaWPM5fkqI67FK4Kpr3Y8YisjpfjHMlccfZj1K7MIwYyZqif2Za5cVa3RabZQPNiqKF9ozBTO0xZL8Hp3cZRCQI6Jg2b9G0wMIHD8VhX3WNfoGIBEtqUKZmywpphauGD/DS/wQTxWomndD+eywQi1LbXNBrQ5t/Ofbrp9TGcRqotbCbdPyYuL7kfo7r6o2poedfXlk7ejiVIoMXEK92BBYxppd27Qi3MnP70fz/J+9MeTC2Eg1QTJ54MHphhtwfSXXRFEILwxHnbPeTQyY//PhecTp5lqniUezy8XB2w1WIUbk+ezO5rnqYYxdOKVphCkpQCYaMtIw==","691f8ca61c6b4dcbb0aeb5f4","691fcacd0173cfd9640f886c","index1","<span style='color:red'>Fail,<span style='color:red'>Fail,<span style='color:green'>Lift,<span style='color:green'>Lift,<span style='color:red'>Fail,<span style='color:red'>Fail,<span style='color:red'>Fail,<span style='color:red'>Fail,<span style='color:green'>Lift,<span style='color:red'>Fail,<span style='color:red'>Fail,<span style='color:green'>Lift","<span style='color:red'>Fail,<span style='color:red'>Fail,<span style='color:green'>Lift,<span style='color:green'>Lift,<span style='color:green'>Lift,<span style='color:green'>Lift,<span style='color:green'>Lift,<span style='color:red'>Fail,<span style='color:green'>Lift,<span style='color:green'>Lift,<span style='color:red'>Fail,<span style='color:green'>Lift","<span style='color:red'>Fail,<span style='color:green'>Lift,<span style='color:green'>Lift,<span style='color:red'>Fail,<span style='color:green'>Lift,<span style='color:green'>Lift","0,0,1,1,0,0,0,0,1,0,0,1","0,0,1,1,1,1,1,0,1,1,0,1","0,1,1,0,1,1",10,20,20,"","","<p style='font-size:30px'><b> New Contest! </b></p>","null","","",1,"",NA,NA,NA,NA,NA,NA,NA,NA,NA,NA,NA,NA,NA,NA,NA,NA,NA,NA,NA,NA,NA,NA,NA,NA,NA,NA,NA,NA,NA,NA,NA,NA,NA,NA,NA,NA,NA,NA,NA,"",NA,NA,NA,NA,NA,NA,NA,NA,NA,2025-11-21 02:35:48
"17985.69999998808","https://psyc-201.github.io/xiang2023/exp/index1.html?PROLIFIC_PID=REDACTED&STUDY_ID=691f8ca61c6b4dcbb0aeb5f4&SESSION_ID=691fcacd0173cfd9640f886c","survey-html-form",8,447309,"0.0-308.0","H/EcZQCu7wXiOaWPM5fkqI67FK4Kpr3Y8YisjpfjHMlccfZj1K7MIwYyZqif2Za5cVa3RabZQPNiqKF9ozBTO0xZL8Hp3cZRCQI6Jg2b9G0wMIHD8VhX3WNfoGIBEtqUKZmywpphauGD/DS/wQTxWomndD+eywQi1LbXNBrQ5t/Ofbrp9TGcRqotbCbdPyYuL7kfo7r6o2poedfXlk7ejiVIoMXEK92BBYxppd27Qi3MnP70fz/J+9MeTC2Eg1QTJ54MHphhtwfSXXRFEILwxHnbPeTQyY//PhecTp5lqniUezy8XB2w1WIUbk+ezO5rnqYYxdOKVphCkpQCYaMtIw==","691f8ca61c6b4dcbb0aeb5f4","691fcacd0173cfd9640f886c","index1","<span style='color:red'>Fail,<span style='color:red'>Fail,<span style='color:green'>Lift,<span style='color:green'>Lift,<span style='color:red'>Fail,<span style='color:red'>Fail,<span style='color:red'>Fail,<span style='color:red'>Fail,<span style='color:green'>Lift,<span style='color:red'>Fail,<span style='color:red'>Fail,<span style='color:green'>Lift","<span style='color:red'>Fail,<span style='color:red'>Fail,<span style='color:green'>Lift,<span style='color:green'>Lift,<span style='color:green'>Lift,<span style='color:green'>Lift,<span style='color:green'>Lift,<span style='color:red'>Fail,<span style='color:green'>Lift,<span style='color:green'>Lift,<span style='color:red'>Fail,<span style='color:green'>Lift","<span style='color:red'>Fail,<span style='color:green'>Lift,<span style='color:green'>Lift,<span style='color:red'>Fail,<span style='color:green'>Lift,<span style='color:green'>Lift","0,0,1,1,0,0,0,0,1,0,0,1","0,0,1,1,1,1,1,0,1,1,0,1","0,1,1,0,1,1",10,20,20,"","","","","{""box1"":""10"",""box2"":""5""}","",1,"round1_outcome",1,1,1,10,5,NA,NA,0,0,10,10,5,NA,NA,0,0,10,NA,NA,NA,NA,NA,NA,NA,NA,NA,NA,NA,NA,NA,NA,NA,NA,NA,NA,NA,NA,NA,NA,"",NA,NA,NA,NA,NA,NA,NA,NA,NA,2025-11-21 02:35:48
"36075.30000001192","https://psyc-201.github.io/xiang2023/exp/index1.html?PROLIFIC_PID=REDACTED&STUDY_ID=691f8ca61c6b4dcbb0aeb5f4&SESSION_ID=691fcacd0173cfd9640f886c","survey-html-form",9,483386,"0.0-309.0","H/EcZQCu7wXiOaWPM5fkqI67FK4Kpr3Y8YisjpfjHMlccfZj1K7MIwYyZqif2Za5cVa3RabZQPNiqKF9ozBTO0xZL8Hp3cZRCQI6Jg2b9G0wMIHD8VhX3WNfoGIBEtqUKZmywpphauGD/DS/wQTxWomndD+eywQi1LbXNBrQ5t/Ofbrp9TGcRqotbCbdPyYuL7kfo7r6o2poedfXlk7ejiVIoMXEK92BBYxppd27Qi3MnP70fz/J+9MeTC2Eg1QTJ54MHphhtwfSXXRFEILwxHnbPeTQyY//PhecTp5lqniUezy8XB2w1WIUbk+ezO5rnqYYxdOKVphCkpQCYaMtIw==","691f8ca61c6b4dcbb0aeb5f4","691fcacd0173cfd9640f886c","index1","<span style='color:red'>Fail,<span style='color:red'>Fail,<span style='color:green'>Lift,<span style='color:green'>Lift,<span style='color:red'>Fail,<span style='color:red'>Fail,<span style='color:red'>Fail,<span style='color:red'>Fail,<span style='color:green'>Lift,<span style='color:red'>Fail,<span style='color:red'>Fail,<span style='color:green'>Lift","<span style='color:red'>Fail,<span style='color:red'>Fail,<span style='color:green'>Lift,<span style='color:green'>Lift,<span style='color:green'>Lift,<span style='color:green'>Lift,<span style='color:green'>Lift,<span style='color:red'>Fail,<span style='color:green'>Lift,<span style='color:green'>Lift,<span style='color:red'>Fail,<span style='color:green'>Lift","<span style='color:red'>Fail,<span style='color:green'>Lift,<span style='color:green'>Lift,<span style='color:red'>Fail,<span style='color:green'>Lift,<span style='color:green'>Lift","0,0,1,1,0,0,0,0,1,0,0,1","0,0,1,1,1,1,1,0,1,1,0,1","0,1,1,0,1,1",10,20,20,"","","","","{""box1"":""90"",""box2"":""40""}","",1,"round2_ready",2,1,2,NA,NA,NA,NA,NA,NA,NA,NA,NA,NA,NA,NA,NA,NA,90,40,90,40,NA,NA,NA,NA,NA,NA,NA,NA,NA,NA,NA,NA,NA,NA,NA,NA,NA,NA,"",NA,NA,NA,NA,NA,NA,NA,NA,NA,2025-11-21 02:35:48
"9638.200000047684","https://psyc-201.github.io/xiang2023/exp/index1.html?PROLIFIC_PID=REDACTED&STUDY_ID=691f8ca61c6b4dcbb0aeb5f4&SESSION_ID=691fcacd0173cfd9640f886c","survey-html-form",10,493026,"0.0-310.0","H/EcZQCu7wXiOaWPM5fkqI67FK4Kpr3Y8YisjpfjHMlccfZj1K7MIwYyZqif2Za5cVa3RabZQPNiqKF9ozBTO0xZL8Hp3cZRCQI6Jg2b9G0wMIHD8VhX3WNfoGIBEtqUKZmywpphauGD/DS/wQTxWomndD+eywQi1LbXNBrQ5t/Ofbrp9TGcRqotbCbdPyYuL7kfo7r6o2poedfXlk7ejiVIoMXEK92BBYxppd27Qi3MnP70fz/J+9MeTC2Eg1QTJ54MHphhtwfSXXRFEILwxHnbPeTQyY//PhecTp5lqniUezy8XB2w1WIUbk+ezO5rnqYYxdOKVphCkpQCYaMtIw==","691f8ca61c6b4dcbb0aeb5f4","691fcacd0173cfd9640f886c","index1","<span style='color:red'>Fail,<span style='color:red'>Fail,<span style='color:green'>Lift,<span style='color:green'>Lift,<span style='color:red'>Fail,<span style='color:red'>Fail,<span style='color:red'>Fail,<span style='color:red'>Fail,<span style='color:green'>Lift,<span style='color:red'>Fail,<span style='color:red'>Fail,<span style='color:green'>Lift","<span style='color:red'>Fail,<span style='color:red'>Fail,<span style='color:green'>Lift,<span style='color:green'>Lift,<span style='color:green'>Lift,<span style='color:green'>Lift,<span style='color:green'>Lift,<span style='color:red'>Fail,<span style='color:green'>Lift,<span style='color:green'>Lift,<span style='color:red'>Fail,<span style='color:green'>Lift","<span style='color:red'>Fail,<span style='color:green'>Lift,<span style='color:green'>Lift,<span style='color:red'>Fail,<span style='color:green'>Lift,<span style='color:green'>Lift","0,0,1,1,0,0,0,0,1,0,0,1","0,0,1,1,1,1,1,0,1,1,0,1","0,1,1,0,1,1",10,20,20,"","","","","{""box1"":""5"",""box2"":""5""}","",1,"round2_outcome",3,1,2,5,5,NA,NA,0,0,20,NA,NA,NA,NA,NA,NA,NA,NA,NA,NA,NA,5,5,NA,NA,0,0,20,NA,NA,NA,NA,NA,NA,NA,NA,NA,NA,NA,"",NA,NA,NA,NA,NA,NA,NA,NA,NA,2025-11-21 02:35:48
"8670.699999988079","https://psyc-201.github.io/xiang2023/exp/index1.html?PROLIFIC_PID=REDACTED&STUDY_ID=691f8ca61c6b4dcbb0aeb5f4&SESSION_ID=691fcacd0173cfd9640f886c","survey-html-form",11,501698,"0.0-311.0","H/EcZQCu7wXiOaWPM5fkqI67FK4Kpr3Y8YisjpfjHMlccfZj1K7MIwYyZqif2Za5cVa3RabZQPNiqKF9ozBTO0xZL8Hp3cZRCQI6Jg2b9G0wMIHD8VhX3WNfoGIBEtqUKZmywpphauGD/DS/wQTxWomndD+eywQi1LbXNBrQ5t/Ofbrp9TGcRqotbCbdPyYuL7kfo7r6o2poedfXlk7ejiVIoMXEK92BBYxppd27Qi3MnP70fz/J+9MeTC2Eg1QTJ54MHphhtwfSXXRFEILwxHnbPeTQyY//PhecTp5lqniUezy8XB2w1WIUbk+ezO5rnqYYxdOKVphCkpQCYaMtIw==","691f8ca61c6b4dcbb0aeb5f4","691fcacd0173cfd9640f886c","index1","<span style='color:red'>Fail,<span style='color:red'>Fail,<span style='color:green'>Lift,<span style='color:green'>Lift,<span style='color:red'>Fail,<span style='color:red'>Fail,<span style='color:red'>Fail,<span style='color:red'>Fail,<span style='color:green'>Lift,<span style='color:red'>Fail,<span style='color:red'>Fail,<span style='color:green'>Lift","<span style='color:red'>Fail,<span style='color:red'>Fail,<span style='color:green'>Lift,<span style='color:green'>Lift,<span style='color:green'>Lift,<span style='color:green'>Lift,<span style='color:green'>Lift,<span style='color:red'>Fail,<span style='color:green'>Lift,<span style='color:green'>Lift,<span style='color:red'>Fail,<span style='color:green'>Lift","<span style='color:red'>Fail,<span style='color:green'>Lift,<span style='color:green'>Lift,<span style='color:red'>Fail,<span style='color:green'>Lift,<span style='color:green'>Lift","0,0,1,1,0,0,0,0,1,0,0,1","0,0,1,1,1,1,1,0,1,1,0,1","0,1,1,0,1,1",10,20,20,"","","","","{""box1"":""35""}","",1,"round3_ready",4,1,3,NA,NA,NA,NA,NA,NA,NA,NA,NA,NA,NA,NA,NA,NA,35,35,NA,NA,NA,NA,NA,NA,NA,NA,NA,35,35,NA,NA,NA,NA,NA,NA,NA,NA,NA,"",NA,NA,NA,NA,NA,NA,NA,NA,NA,2025-11-21 02:35:48
"28094.30000001192","https://psyc-201.github.io/xiang2023/exp/index1.html?PROLIFIC_PID=REDACTED&STUDY_ID=691f8ca61c6b4dcbb0aeb5f4&SESSION_ID=691fcacd0173cfd9640f886c","survey-html-form",12,529794,"0.0-313.0-0.0","H/EcZQCu7wXiOaWPM5fkqI67FK4Kpr3Y8YisjpfjHMlccfZj1K7MIwYyZqif2Za5cVa3RabZQPNiqKF9ozBTO0xZL8Hp3cZRCQI6Jg2b9G0wMIHD8VhX3WNfoGIBEtqUKZmywpphauGD/DS/wQTxWomndD+eywQi1LbXNBrQ5t/Ofbrp9TGcRqotbCbdPyYuL7kfo7r6o2poedfXlk7ejiVIoMXEK92BBYxppd27Qi3MnP70fz/J+9MeTC2Eg1QTJ54MHphhtwfSXXRFEILwxHnbPeTQyY//PhecTp5lqniUezy8XB2w1WIUbk+ezO5rnqYYxdOKVphCkpQCYaMtIw==","691f8ca61c6b4dcbb0aeb5f4","691fcacd0173cfd9640f886c","index1","<span style='color:red'>Fail,<span style='color:red'>Fail,<span style='color:green'>Lift,<span style='color:green'>Lift,<span style='color:red'>Fail,<span style='color:red'>Fail,<span style='color:red'>Fail,<span style='color:red'>Fail,<span style='color:green'>Lift,<span style='color:red'>Fail,<span style='color:red'>Fail,<span style='color:green'>Lift","<span style='color:red'>Fail,<span style='color:red'>Fail,<span style='color:green'>Lift,<span style='color:green'>Lift,<span style='color:green'>Lift,<span style='color:green'>Lift,<span style='color:green'>Lift,<span style='color:red'>Fail,<span style='color:green'>Lift,<span style='color:green'>Lift,<span style='color:red'>Fail,<span style='color:green'>Lift","<span style='color:red'>Fail,<span style='color:green'>Lift,<span style='color:green'>Lift,<span style='color:red'>Fail,<span style='color:green'>Lift,<span style='color:green'>Lift","0,0,1,1,0,0,0,0,1,0,0,1","0,0,1,1,1,1,1,0,1,1,0,1","0,1,1,0,1,1",10,20,20,"","","","","{""box1"":""3"",""box2"":""4"",""box3"":""999"",""box4"":""999""}","",2,"round3_fail",5,1,3,3,4,NA,NA,0,0,20,NA,NA,NA,NA,NA,NA,NA,NA,NA,NA,NA,NA,NA,NA,NA,NA,NA,NA,NA,NA,1,1,3,4,0,0,20,NA,NA,"",NA,NA,NA,NA,NA,NA,NA,NA,NA,2025-11-21 02:35:48
"null","https://psyc-201.github.io/xiang2023/exp/index1.html?PROLIFIC_PID=REDACTED&STUDY_ID=691f8ca61c6b4dcbb0aeb5f4&SESSION_ID=691fcacd0173cfd9640f886c","html-keyboard-response",13,532800,"0.0-316.0","H/EcZQCu7wXiOaWPM5fkqI67FK4Kpr3Y8YisjpfjHMlccfZj1K7MIwYyZqif2Za5cVa3RabZQPNiqKF9ozBTO0xZL8Hp3cZRCQI6Jg2b9G0wMIHD8VhX3WNfoGIBEtqUKZmywpphauGD/DS/wQTxWomndD+eywQi1LbXNBrQ5t/Ofbrp9TGcRqotbCbdPyYuL7kfo7r6o2poedfXlk7ejiVIoMXEK92BBYxppd27Qi3MnP70fz/J+9MeTC2Eg1QTJ54MHphhtwfSXXRFEILwxHnbPeTQyY//PhecTp5lqniUezy8XB2w1WIUbk+ezO5rnqYYxdOKVphCkpQCYaMtIw==","691f8ca61c6b4dcbb0aeb5f4","691fcacd0173cfd9640f886c","index1","<span style='color:red'>Fail,<span style='color:red'>Fail,<span style='color:green'>Lift,<span style='color:green'>Lift,<span style='color:red'>Fail,<span style='color:red'>Fail,<span style='color:red'>Fail,<span style='color:red'>Fail,<span style='color:green'>Lift,<span style='color:red'>Fail,<span style='color:red'>Fail,<span style='color:green'>Lift","<span style='color:red'>Fail,<span style='color:red'>Fail,<span style='color:green'>Lift,<span style='color:green'>Lift,<span style='color:green'>Lift,<span style='color:green'>Lift,<span style='color:green'>Lift,<span style='color:red'>Fail,<span style='color:green'>Lift,<span style='color:green'>Lift,<span style='color:red'>Fail,<span style='color:green'>Lift","<span style='color:red'>Fail,<span style='color:green'>Lift,<span style='color:green'>Lift,<span style='color:red'>Fail,<span style='color:green'>Lift,<span style='color:green'>Lift","0,0,1,1,0,0,0,0,1,0,0,1","0,0,1,1,1,1,1,0,1,1,0,1","0,1,1,0,1,1",10,20,20,"","","<p style='font-size:30px'><b> New Contest! </b></p>","null","","",2,"",NA,NA,NA,NA,NA,NA,NA,NA,NA,NA,NA,NA,NA,NA,NA,NA,NA,NA,NA,NA,NA,NA,NA,NA,NA,NA,NA,NA,NA,NA,NA,NA,NA,NA,NA,NA,NA,NA,NA,"",NA,NA,NA,NA,NA,NA,NA,NA,NA,2025-11-21 02:35:48
"59496.40000003576","https://psyc-201.github.io/xiang2023/exp/index1.html?PROLIFIC_PID=REDACTED&STUDY_ID=691f8ca61c6b4dcbb0aeb5f4&SESSION_ID=691fcacd0173cfd9640f886c","survey-html-form",14,592298,"0.0-317.0","H/EcZQCu7wXiOaWPM5fkqI67FK4Kpr3Y8YisjpfjHMlccfZj1K7MIwYyZqif2Za5cVa3RabZQPNiqKF9ozBTO0xZL8Hp3cZRCQI6Jg2b9G0wMIHD8VhX3WNfoGIBEtqUKZmywpphauGD/DS/wQTxWomndD+eywQi1LbXNBrQ5t/Ofbrp9TGcRqotbCbdPyYuL7kfo7r6o2poedfXlk7ejiVIoMXEK92BBYxppd27Qi3MnP70fz/J+9MeTC2Eg1QTJ54MHphhtwfSXXRFEILwxHnbPeTQyY//PhecTp5lqniUezy8XB2w1WIUbk+ezO5rnqYYxdOKVphCkpQCYaMtIw==","691f8ca61c6b4dcbb0aeb5f4","691fcacd0173cfd9640f886c","index1","<span style='color:red'>Fail,<span style='color:red'>Fail,<span style='color:green'>Lift,<span style='color:green'>Lift,<span style='color:red'>Fail,<span style='color:red'>Fail,<span style='color:red'>Fail,<span style='color:red'>Fail,<span style='color:green'>Lift,<span style='color:red'>Fail,<span style='color:red'>Fail,<span style='color:green'>Lift","<span style='color:red'>Fail,<span style='color:red'>Fail,<span style='color:green'>Lift,<span style='color:green'>Lift,<span style='color:green'>Lift,<span style='color:green'>Lift,<span style='color:green'>Lift,<span style='color:red'>Fail,<span style='color:green'>Lift,<span style='color:green'>Lift,<span style='color:red'>Fail,<span style='color:green'>Lift","<span style='color:red'>Fail,<span style='color:green'>Lift,<span style='color:green'>Lift,<span style='color:red'>Fail,<span style='color:green'>Lift,<span style='color:green'>Lift","0,0,1,1,0,0,0,0,1,0,0,1","0,0,1,1,1,1,1,0,1,1,0,1","0,1,1,0,1,1",10,20,20,"","","","","{""box1"":""10"",""box2"":""3"",""box3"":""50""}","",2,"round1_outcome",1,2,1,10,3,50,NA,1,0,10,10,3,50,NA,1,0,10,NA,NA,NA,NA,NA,NA,NA,NA,NA,NA,NA,NA,NA,NA,NA,NA,NA,NA,NA,NA,NA,NA,"",NA,NA,NA,NA,NA,NA,NA,NA,NA,2025-11-21 02:35:48
"19702.600000023842","https://psyc-201.github.io/xiang2023/exp/index1.html?PROLIFIC_PID=REDACTED&STUDY_ID=691f8ca61c6b4dcbb0aeb5f4&SESSION_ID=691fcacd0173cfd9640f886c","survey-html-form",15,612002,"0.0-318.0","H/EcZQCu7wXiOaWPM5fkqI67FK4Kpr3Y8YisjpfjHMlccfZj1K7MIwYyZqif2Za5cVa3RabZQPNiqKF9ozBTO0xZL8Hp3cZRCQI6Jg2b9G0wMIHD8VhX3WNfoGIBEtqUKZmywpphauGD/DS/wQTxWomndD+eywQi1LbXNBrQ5t/Ofbrp9TGcRqotbCbdPyYuL7kfo7r6o2poedfXlk7ejiVIoMXEK92BBYxppd27Qi3MnP70fz/J+9MeTC2Eg1QTJ54MHphhtwfSXXRFEILwxHnbPeTQyY//PhecTp5lqniUezy8XB2w1WIUbk+ezO5rnqYYxdOKVphCkpQCYaMtIw==","691f8ca61c6b4dcbb0aeb5f4","691fcacd0173cfd9640f886c","index1","<span style='color:red'>Fail,<span style='color:red'>Fail,<span style='color:green'>Lift,<span style='color:green'>Lift,<span style='color:red'>Fail,<span style='color:red'>Fail,<span style='color:red'>Fail,<span style='color:red'>Fail,<span style='color:green'>Lift,<span style='color:red'>Fail,<span style='color:red'>Fail,<span style='color:green'>Lift","<span style='color:red'>Fail,<span style='color:red'>Fail,<span style='color:green'>Lift,<span style='color:green'>Lift,<span style='color:green'>Lift,<span style='color:green'>Lift,<span style='color:green'>Lift,<span style='color:red'>Fail,<span style='color:green'>Lift,<span style='color:green'>Lift,<span style='color:red'>Fail,<span style='color:green'>Lift","<span style='color:red'>Fail,<span style='color:green'>Lift,<span style='color:green'>Lift,<span style='color:red'>Fail,<span style='color:green'>Lift,<span style='color:green'>Lift","0,0,1,1,0,0,0,0,1,0,0,1","0,0,1,1,1,1,1,0,1,1,0,1","0,1,1,0,1,1",10,20,20,"","","","","{""box1"":""75"",""box2"":""25""}","",2,"round2_ready",2,2,2,NA,NA,NA,NA,NA,NA,NA,NA,NA,NA,NA,NA,NA,NA,75,25,75,25,NA,NA,NA,NA,NA,NA,NA,NA,NA,NA,NA,NA,NA,NA,NA,NA,NA,NA,"",NA,NA,NA,NA,NA,NA,NA,NA,NA,2025-11-21 02:35:48
"29662.80000001192","https://psyc-201.github.io/xiang2023/exp/index1.html?PROLIFIC_PID=REDACTED&STUDY_ID=691f8ca61c6b4dcbb0aeb5f4&SESSION_ID=691fcacd0173cfd9640f886c","survey-html-form",16,641666,"0.0-319.0","H/EcZQCu7wXiOaWPM5fkqI67FK4Kpr3Y8YisjpfjHMlccfZj1K7MIwYyZqif2Za5cVa3RabZQPNiqKF9ozBTO0xZL8Hp3cZRCQI6Jg2b9G0wMIHD8VhX3WNfoGIBEtqUKZmywpphauGD/DS/wQTxWomndD+eywQi1LbXNBrQ5t/Ofbrp9TGcRqotbCbdPyYuL7kfo7r6o2poedfXlk7ejiVIoMXEK92BBYxppd27Qi3MnP70fz/J+9MeTC2Eg1QTJ54MHphhtwfSXXRFEILwxHnbPeTQyY//PhecTp5lqniUezy8XB2w1WIUbk+ezO5rnqYYxdOKVphCkpQCYaMtIw==","691f8ca61c6b4dcbb0aeb5f4","691fcacd0173cfd9640f886c","index1","<span style='color:red'>Fail,<span style='color:red'>Fail,<span style='color:green'>Lift,<span style='color:green'>Lift,<span style='color:red'>Fail,<span style='color:red'>Fail,<span style='color:red'>Fail,<span style='color:red'>Fail,<span style='color:green'>Lift,<span style='color:red'>Fail,<span style='color:red'>Fail,<span style='color:green'>Lift","<span style='color:red'>Fail,<span style='color:red'>Fail,<span style='color:green'>Lift,<span style='color:green'>Lift,<span style='color:green'>Lift,<span style='color:green'>Lift,<span style='color:green'>Lift,<span style='color:red'>Fail,<span style='color:green'>Lift,<span style='color:green'>Lift,<span style='color:red'>Fail,<span style='color:green'>Lift","<span style='color:red'>Fail,<span style='color:green'>Lift,<span style='color:green'>Lift,<span style='color:red'>Fail,<span style='color:green'>Lift,<span style='color:green'>Lift","0,0,1,1,0,0,0,0,1,0,0,1","0,0,1,1,1,1,1,0,1,1,0,1","0,1,1,0,1,1",10,20,20,"","","","","{""box1"":""10"",""box2"":""8"",""box3"":""100"",""box4"":""60""}","",2,"round2_outcome",3,2,2,10,8,100,60,1,1,20,NA,NA,NA,NA,NA,NA,NA,NA,NA,NA,NA,10,8,100,60,1,1,20,NA,NA,NA,NA,NA,NA,NA,NA,NA,NA,NA,"",NA,NA,NA,NA,NA,NA,NA,NA,NA,2025-11-21 02:35:48
"5950.300000011921","https://psyc-201.github.io/xiang2023/exp/index1.html?PROLIFIC_PID=REDACTED&STUDY_ID=691f8ca61c6b4dcbb0aeb5f4&SESSION_ID=691fcacd0173cfd9640f886c","survey-html-form",17,647618,"0.0-320.0","H/EcZQCu7wXiOaWPM5fkqI67FK4Kpr3Y8YisjpfjHMlccfZj1K7MIwYyZqif2Za5cVa3RabZQPNiqKF9ozBTO0xZL8Hp3cZRCQI6Jg2b9G0wMIHD8VhX3WNfoGIBEtqUKZmywpphauGD/DS/wQTxWomndD+eywQi1LbXNBrQ5t/Ofbrp9TGcRqotbCbdPyYuL7kfo7r6o2poedfXlk7ejiVIoMXEK92BBYxppd27Qi3MnP70fz/J+9MeTC2Eg1QTJ54MHphhtwfSXXRFEILwxHnbPeTQyY//PhecTp5lqniUezy8XB2w1WIUbk+ezO5rnqYYxdOKVphCkpQCYaMtIw==","691f8ca61c6b4dcbb0aeb5f4","691fcacd0173cfd9640f886c","index1","<span style='color:red'>Fail,<span style='color:red'>Fail,<span style='color:green'>Lift,<span style='color:green'>Lift,<span style='color:red'>Fail,<span style='color:red'>Fail,<span style='color:red'>Fail,<span style='color:red'>Fail,<span style='color:green'>Lift,<span style='color:red'>Fail,<span style='color:red'>Fail,<span style='color:green'>Lift","<span style='color:red'>Fail,<span style='color:red'>Fail,<span style='color:green'>Lift,<span style='color:green'>Lift,<span style='color:green'>Lift,<span style='color:green'>Lift,<span style='color:green'>Lift,<span style='color:red'>Fail,<span style='color:green'>Lift,<span style='color:green'>Lift,<span style='color:red'>Fail,<span style='color:green'>Lift","<span style='color:red'>Fail,<span style='color:green'>Lift,<span style='color:green'>Lift,<span style='color:red'>Fail,<span style='color:green'>Lift,<span style='color:green'>Lift","0,0,1,1,0,0,0,0,1,0,0,1","0,0,1,1,1,1,1,0,1,1,0,1","0,1,1,0,1,1",10,20,20,"","","","","{""box1"":""90""}","",2,"round3_ready",4,2,3,NA,NA,NA,NA,NA,NA,NA,NA,NA,NA,NA,NA,NA,NA,90,90,NA,NA,NA,NA,NA,NA,NA,NA,NA,90,90,NA,NA,NA,NA,NA,NA,NA,NA,NA,"",NA,NA,NA,NA,NA,NA,NA,NA,NA,2025-11-21 02:35:48
"32198.69999998808","https://psyc-201.github.io/xiang2023/exp/index1.html?PROLIFIC_PID=REDACTED&STUDY_ID=691f8ca61c6b4dcbb0aeb5f4&SESSION_ID=691fcacd0173cfd9640f886c","survey-html-form",18,679818,"0.0-321.0-0.0","H/EcZQCu7wXiOaWPM5fkqI67FK4Kpr3Y8YisjpfjHMlccfZj1K7MIwYyZqif2Za5cVa3RabZQPNiqKF9ozBTO0xZL8Hp3cZRCQI6Jg2b9G0wMIHD8VhX3WNfoGIBEtqUKZmywpphauGD/DS/wQTxWomndD+eywQi1LbXNBrQ5t/Ofbrp9TGcRqotbCbdPyYuL7kfo7r6o2poedfXlk7ejiVIoMXEK92BBYxppd27Qi3MnP70fz/J+9MeTC2Eg1QTJ54MHphhtwfSXXRFEILwxHnbPeTQyY//PhecTp5lqniUezy8XB2w1WIUbk+ezO5rnqYYxdOKVphCkpQCYaMtIw==","691f8ca61c6b4dcbb0aeb5f4","691fcacd0173cfd9640f886c","index1","<span style='color:red'>Fail,<span style='color:red'>Fail,<span style='color:green'>Lift,<span style='color:green'>Lift,<span style='color:red'>Fail,<span style='color:red'>Fail,<span style='color:red'>Fail,<span style='color:red'>Fail,<span style='color:green'>Lift,<span style='color:red'>Fail,<span style='color:red'>Fail,<span style='color:green'>Lift","<span style='color:red'>Fail,<span style='color:red'>Fail,<span style='color:green'>Lift,<span style='color:green'>Lift,<span style='color:green'>Lift,<span style='color:green'>Lift,<span style='color:green'>Lift,<span style='color:red'>Fail,<span style='color:green'>Lift,<span style='color:green'>Lift,<span style='color:red'>Fail,<span style='color:green'>Lift","<span style='color:red'>Fail,<span style='color:green'>Lift,<span style='color:green'>Lift,<span style='color:red'>Fail,<span style='color:green'>Lift,<span style='color:green'>Lift","0,0,1,1,0,0,0,0,1,0,0,1","0,0,1,1,1,1,1,0,1,1,0,1","0,1,1,0,1,1",10,20,20,"","","","","{""box1"":""10"",""box2"":""9"",""box3"":""40"",""box4"":""60""}","",3,"round3_lift",5,2,3,10,9,40,60,1,1,20,NA,NA,NA,NA,NA,NA,NA,NA,NA,NA,NA,NA,NA,NA,NA,NA,NA,NA,NA,NA,NA,NA,10,9,1,1,20,40,60,"",NA,NA,NA,NA,NA,NA,NA,NA,NA,2025-11-21 02:35:48
"null","https://psyc-201.github.io/xiang2023/exp/index1.html?PROLIFIC_PID=REDACTED&STUDY_ID=691f8ca61c6b4dcbb0aeb5f4&SESSION_ID=691fcacd0173cfd9640f886c","html-keyboard-response",19,682829,"0.0-325.0","H/EcZQCu7wXiOaWPM5fkqI67FK4Kpr3Y8YisjpfjHMlccfZj1K7MIwYyZqif2Za5cVa3RabZQPNiqKF9ozBTO0xZL8Hp3cZRCQI6Jg2b9G0wMIHD8VhX3WNfoGIBEtqUKZmywpphauGD/DS/wQTxWomndD+eywQi1LbXNBrQ5t/Ofbrp9TGcRqotbCbdPyYuL7kfo7r6o2poedfXlk7ejiVIoMXEK92BBYxppd27Qi3MnP70fz/J+9MeTC2Eg1QTJ54MHphhtwfSXXRFEILwxHnbPeTQyY//PhecTp5lqniUezy8XB2w1WIUbk+ezO5rnqYYxdOKVphCkpQCYaMtIw==","691f8ca61c6b4dcbb0aeb5f4","691fcacd0173cfd9640f886c","index1","<span style='color:red'>Fail,<span style='color:red'>Fail,<span style='color:green'>Lift,<span style='color:green'>Lift,<span style='color:red'>Fail,<span style='color:red'>Fail,<span style='color:red'>Fail,<span style='color:red'>Fail,<span style='color:green'>Lift,<span style='color:red'>Fail,<span style='color:red'>Fail,<span style='color:green'>Lift","<span style='color:red'>Fail,<span style='color:red'>Fail,<span style='color:green'>Lift,<span style='color:green'>Lift,<span style='color:green'>Lift,<span style='color:green'>Lift,<span style='color:green'>Lift,<span style='color:red'>Fail,<span style='color:green'>Lift,<span style='color:green'>Lift,<span style='color:red'>Fail,<span style='color:green'>Lift","<span style='color:red'>Fail,<span style='color:green'>Lift,<span style='color:green'>Lift,<span style='color:red'>Fail,<span style='color:green'>Lift,<span style='color:green'>Lift","0,0,1,1,0,0,0,0,1,0,0,1","0,0,1,1,1,1,1,0,1,1,0,1","0,1,1,0,1,1",10,20,20,"","","<p style='font-size:30px'><b> New Contest! </b></p>","null","","",3,"",NA,NA,NA,NA,NA,NA,NA,NA,NA,NA,NA,NA,NA,NA,NA,NA,NA,NA,NA,NA,NA,NA,NA,NA,NA,NA,NA,NA,NA,NA,NA,NA,NA,NA,NA,NA,NA,NA,NA,"",NA,NA,NA,NA,NA,NA,NA,NA,NA,2025-11-21 02:35:48
"11779","https://psyc-201.github.io/xiang2023/exp/index1.html?PROLIFIC_PID=REDACTED&STUDY_ID=691f8ca61c6b4dcbb0aeb5f4&SESSION_ID=691fcacd0173cfd9640f886c","survey-html-form",20,694610,"0.0-326.0","H/EcZQCu7wXiOaWPM5fkqI67FK4Kpr3Y8YisjpfjHMlccfZj1K7MIwYyZqif2Za5cVa3RabZQPNiqKF9ozBTO0xZL8Hp3cZRCQI6Jg2b9G0wMIHD8VhX3WNfoGIBEtqUKZmywpphauGD/DS/wQTxWomndD+eywQi1LbXNBrQ5t/Ofbrp9TGcRqotbCbdPyYuL7kfo7r6o2poedfXlk7ejiVIoMXEK92BBYxppd27Qi3MnP70fz/J+9MeTC2Eg1QTJ54MHphhtwfSXXRFEILwxHnbPeTQyY//PhecTp5lqniUezy8XB2w1WIUbk+ezO5rnqYYxdOKVphCkpQCYaMtIw==","691f8ca61c6b4dcbb0aeb5f4","691fcacd0173cfd9640f886c","index1","<span style='color:red'>Fail,<span style='color:red'>Fail,<span style='color:green'>Lift,<span style='color:green'>Lift,<span style='color:red'>Fail,<span style='color:red'>Fail,<span style='color:red'>Fail,<span style='color:red'>Fail,<span style='color:green'>Lift,<span style='color:red'>Fail,<span style='color:red'>Fail,<span style='color:green'>Lift","<span style='color:red'>Fail,<span style='color:red'>Fail,<span style='color:green'>Lift,<span style='color:green'>Lift,<span style='color:green'>Lift,<span style='color:green'>Lift,<span style='color:green'>Lift,<span style='color:red'>Fail,<span style='color:green'>Lift,<span style='color:green'>Lift,<span style='color:red'>Fail,<span style='color:green'>Lift","<span style='color:red'>Fail,<span style='color:green'>Lift,<span style='color:green'>Lift,<span style='color:red'>Fail,<span style='color:green'>Lift,<span style='color:green'>Lift","0,0,1,1,0,0,0,0,1,0,0,1","0,0,1,1,1,1,1,0,1,1,0,1","0,1,1,0,1,1",10,20,20,"","","","","{""box1"":""3"",""box2"":""2""}","",3,"round1_outcome",1,3,1,3,2,NA,NA,0,0,10,3,2,NA,NA,0,0,10,NA,NA,NA,NA,NA,NA,NA,NA,NA,NA,NA,NA,NA,NA,NA,NA,NA,NA,NA,NA,NA,NA,"",NA,NA,NA,NA,NA,NA,NA,NA,NA,2025-11-21 02:35:48
"17086.69999998808","https://psyc-201.github.io/xiang2023/exp/index1.html?PROLIFIC_PID=REDACTED&STUDY_ID=691f8ca61c6b4dcbb0aeb5f4&SESSION_ID=691fcacd0173cfd9640f886c","survey-html-form",21,711698,"0.0-327.0","H/EcZQCu7wXiOaWPM5fkqI67FK4Kpr3Y8YisjpfjHMlccfZj1K7MIwYyZqif2Za5cVa3RabZQPNiqKF9ozBTO0xZL8Hp3cZRCQI6Jg2b9G0wMIHD8VhX3WNfoGIBEtqUKZmywpphauGD/DS/wQTxWomndD+eywQi1LbXNBrQ5t/Ofbrp9TGcRqotbCbdPyYuL7kfo7r6o2poedfXlk7ejiVIoMXEK92BBYxppd27Qi3MnP70fz/J+9MeTC2Eg1QTJ54MHphhtwfSXXRFEILwxHnbPeTQyY//PhecTp5lqniUezy8XB2w1WIUbk+ezO5rnqYYxdOKVphCkpQCYaMtIw==","691f8ca61c6b4dcbb0aeb5f4","691fcacd0173cfd9640f886c","index1","<span style='color:red'>Fail,<span style='color:red'>Fail,<span style='color:green'>Lift,<span style='color:green'>Lift,<span style='color:red'>Fail,<span style='color:red'>Fail,<span style='color:red'>Fail,<span style='color:red'>Fail,<span style='color:green'>Lift,<span style='color:red'>Fail,<span style='color:red'>Fail,<span style='color:green'>Lift","<span style='color:red'>Fail,<span style='color:red'>Fail,<span style='color:green'>Lift,<span style='color:green'>Lift,<span style='color:green'>Lift,<span style='color:green'>Lift,<span style='color:green'>Lift,<span style='color:red'>Fail,<span style='color:green'>Lift,<span style='color:green'>Lift,<span style='color:red'>Fail,<span style='color:green'>Lift","<span style='color:red'>Fail,<span style='color:green'>Lift,<span style='color:green'>Lift,<span style='color:red'>Fail,<span style='color:green'>Lift,<span style='color:green'>Lift","0,0,1,1,0,0,0,0,1,0,0,1","0,0,1,1,1,1,1,0,1,1,0,1","0,1,1,0,1,1",10,20,20,"","","","","{""box1"":""20"",""box2"":""25""}","",3,"round2_ready",2,3,2,NA,NA,NA,NA,NA,NA,NA,NA,NA,NA,NA,NA,NA,NA,20,25,20,25,NA,NA,NA,NA,NA,NA,NA,NA,NA,NA,NA,NA,NA,NA,NA,NA,NA,NA,"",NA,NA,NA,NA,NA,NA,NA,NA,NA,2025-11-21 02:35:48
"30206.80000001192","https://psyc-201.github.io/xiang2023/exp/index1.html?PROLIFIC_PID=REDACTED&STUDY_ID=691f8ca61c6b4dcbb0aeb5f4&SESSION_ID=691fcacd0173cfd9640f886c","survey-html-form",22,741906,"0.0-328.0","H/EcZQCu7wXiOaWPM5fkqI67FK4Kpr3Y8YisjpfjHMlccfZj1K7MIwYyZqif2Za5cVa3RabZQPNiqKF9ozBTO0xZL8Hp3cZRCQI6Jg2b9G0wMIHD8VhX3WNfoGIBEtqUKZmywpphauGD/DS/wQTxWomndD+eywQi1LbXNBrQ5t/Ofbrp9TGcRqotbCbdPyYuL7kfo7r6o2poedfXlk7ejiVIoMXEK92BBYxppd27Qi3MnP70fz/J+9MeTC2Eg1QTJ54MHphhtwfSXXRFEILwxHnbPeTQyY//PhecTp5lqniUezy8XB2w1WIUbk+ezO5rnqYYxdOKVphCkpQCYaMtIw==","691f8ca61c6b4dcbb0aeb5f4","691fcacd0173cfd9640f886c","index1","<span style='color:red'>Fail,<span style='color:red'>Fail,<span style='color:green'>Lift,<span style='color:green'>Lift,<span style='color:red'>Fail,<span style='color:red'>Fail,<span style='color:red'>Fail,<span style='color:red'>Fail,<span style='color:green'>Lift,<span style='color:red'>Fail,<span style='color:red'>Fail,<span style='color:green'>Lift","<span style='color:red'>Fail,<span style='color:red'>Fail,<span style='color:green'>Lift,<span style='color:green'>Lift,<span style='color:green'>Lift,<span style='color:green'>Lift,<span style='color:green'>Lift,<span style='color:red'>Fail,<span style='color:green'>Lift,<span style='color:green'>Lift,<span style='color:red'>Fail,<span style='color:green'>Lift","<span style='color:red'>Fail,<span style='color:green'>Lift,<span style='color:green'>Lift,<span style='color:red'>Fail,<span style='color:green'>Lift,<span style='color:green'>Lift","0,0,1,1,0,0,0,0,1,0,0,1","0,0,1,1,1,1,1,0,1,1,0,1","0,1,1,0,1,1",10,20,20,"","","","","{""box1"":""5"",""box2"":""7"",""box3"":""100"",""box4"":""80""}","",3,"round2_outcome",3,3,2,5,7,100,80,1,1,20,NA,NA,NA,NA,NA,NA,NA,NA,NA,NA,NA,5,7,100,80,1,1,20,NA,NA,NA,NA,NA,NA,NA,NA,NA,NA,NA,"",NA,NA,NA,NA,NA,NA,NA,NA,NA,2025-11-21 02:35:48
"10910","https://psyc-201.github.io/xiang2023/exp/index1.html?PROLIFIC_PID=REDACTED&STUDY_ID=691f8ca61c6b4dcbb0aeb5f4&SESSION_ID=691fcacd0173cfd9640f886c","survey-html-form",23,752817,"0.0-329.0","H/EcZQCu7wXiOaWPM5fkqI67FK4Kpr3Y8YisjpfjHMlccfZj1K7MIwYyZqif2Za5cVa3RabZQPNiqKF9ozBTO0xZL8Hp3cZRCQI6Jg2b9G0wMIHD8VhX3WNfoGIBEtqUKZmywpphauGD/DS/wQTxWomndD+eywQi1LbXNBrQ5t/Ofbrp9TGcRqotbCbdPyYuL7kfo7r6o2poedfXlk7ejiVIoMXEK92BBYxppd27Qi3MnP70fz/J+9MeTC2Eg1QTJ54MHphhtwfSXXRFEILwxHnbPeTQyY//PhecTp5lqniUezy8XB2w1WIUbk+ezO5rnqYYxdOKVphCkpQCYaMtIw==","691f8ca61c6b4dcbb0aeb5f4","691fcacd0173cfd9640f886c","index1","<span style='color:red'>Fail,<span style='color:red'>Fail,<span style='color:green'>Lift,<span style='color:green'>Lift,<span style='color:red'>Fail,<span style='color:red'>Fail,<span style='color:red'>Fail,<span style='color:red'>Fail,<span style='color:green'>Lift,<span style='color:red'>Fail,<span style='color:red'>Fail,<span style='color:green'>Lift","<span style='color:red'>Fail,<span style='color:red'>Fail,<span style='color:green'>Lift,<span style='color:green'>Lift,<span style='color:green'>Lift,<span style='color:green'>Lift,<span style='color:green'>Lift,<span style='color:red'>Fail,<span style='color:green'>Lift,<span style='color:green'>Lift,<span style='color:red'>Fail,<span style='color:green'>Lift","<span style='color:red'>Fail,<span style='color:green'>Lift,<span style='color:green'>Lift,<span style='color:red'>Fail,<span style='color:green'>Lift,<span style='color:green'>Lift","0,0,1,1,0,0,0,0,1,0,0,1","0,0,1,1,1,1,1,0,1,1,0,1","0,1,1,0,1,1",10,20,20,"","","","","{""box1"":""60""}","",3,"round3_ready",4,3,3,NA,NA,NA,NA,NA,NA,NA,NA,NA,NA,NA,NA,NA,NA,60,60,NA,NA,NA,NA,NA,NA,NA,NA,NA,60,60,NA,NA,NA,NA,NA,NA,NA,NA,NA,"",NA,NA,NA,NA,NA,NA,NA,NA,NA,2025-11-21 02:35:48
"41062.799999952316","https://psyc-201.github.io/xiang2023/exp/index1.html?PROLIFIC_PID=REDACTED&STUDY_ID=691f8ca61c6b4dcbb0aeb5f4&SESSION_ID=691fcacd0173cfd9640f886c","survey-html-form",24,793881,"0.0-330.0-0.0","H/EcZQCu7wXiOaWPM5fkqI67FK4Kpr3Y8YisjpfjHMlccfZj1K7MIwYyZqif2Za5cVa3RabZQPNiqKF9ozBTO0xZL8Hp3cZRCQI6Jg2b9G0wMIHD8VhX3WNfoGIBEtqUKZmywpphauGD/DS/wQTxWomndD+eywQi1LbXNBrQ5t/Ofbrp9TGcRqotbCbdPyYuL7kfo7r6o2poedfXlk7ejiVIoMXEK92BBYxppd27Qi3MnP70fz/J+9MeTC2Eg1QTJ54MHphhtwfSXXRFEILwxHnbPeTQyY//PhecTp5lqniUezy8XB2w1WIUbk+ezO5rnqYYxdOKVphCkpQCYaMtIw==","691f8ca61c6b4dcbb0aeb5f4","691fcacd0173cfd9640f886c","index1","<span style='color:red'>Fail,<span style='color:red'>Fail,<span style='color:green'>Lift,<span style='color:green'>Lift,<span style='color:red'>Fail,<span style='color:red'>Fail,<span style='color:red'>Fail,<span style='color:red'>Fail,<span style='color:green'>Lift,<span style='color:red'>Fail,<span style='color:red'>Fail,<span style='color:green'>Lift","<span style='color:red'>Fail,<span style='color:red'>Fail,<span style='color:green'>Lift,<span style='color:green'>Lift,<span style='color:green'>Lift,<span style='color:green'>Lift,<span style='color:green'>Lift,<span style='color:red'>Fail,<span style='color:green'>Lift,<span style='color:green'>Lift,<span style='color:red'>Fail,<span style='color:green'>Lift","<span style='color:red'>Fail,<span style='color:green'>Lift,<span style='color:green'>Lift,<span style='color:red'>Fail,<span style='color:green'>Lift,<span style='color:green'>Lift","0,0,1,1,0,0,0,0,1,0,0,1","0,0,1,1,1,1,1,0,1,1,0,1","0,1,1,0,1,1",10,20,20,"","","","","{""box1"":""7"",""box2"":""8"",""box3"":""65"",""box4"":""35""}","",4,"round3_lift",5,3,3,7,8,65,35,1,1,20,NA,NA,NA,NA,NA,NA,NA,NA,NA,NA,NA,NA,NA,NA,NA,NA,NA,NA,NA,NA,NA,NA,7,8,1,1,20,65,35,"",NA,NA,NA,NA,NA,NA,NA,NA,NA,2025-11-21 02:35:48
"null","https://psyc-201.github.io/xiang2023/exp/index1.html?PROLIFIC_PID=REDACTED&STUDY_ID=691f8ca61c6b4dcbb0aeb5f4&SESSION_ID=691fcacd0173cfd9640f886c","html-keyboard-response",25,796888,"0.0-334.0","H/EcZQCu7wXiOaWPM5fkqI67FK4Kpr3Y8YisjpfjHMlccfZj1K7MIwYyZqif2Za5cVa3RabZQPNiqKF9ozBTO0xZL8Hp3cZRCQI6Jg2b9G0wMIHD8VhX3WNfoGIBEtqUKZmywpphauGD/DS/wQTxWomndD+eywQi1LbXNBrQ5t/Ofbrp9TGcRqotbCbdPyYuL7kfo7r6o2poedfXlk7ejiVIoMXEK92BBYxppd27Qi3MnP70fz/J+9MeTC2Eg1QTJ54MHphhtwfSXXRFEILwxHnbPeTQyY//PhecTp5lqniUezy8XB2w1WIUbk+ezO5rnqYYxdOKVphCkpQCYaMtIw==","691f8ca61c6b4dcbb0aeb5f4","691fcacd0173cfd9640f886c","index1","<span style='color:red'>Fail,<span style='color:red'>Fail,<span style='color:green'>Lift,<span style='color:green'>Lift,<span style='color:red'>Fail,<span style='color:red'>Fail,<span style='color:red'>Fail,<span style='color:red'>Fail,<span style='color:green'>Lift,<span style='color:red'>Fail,<span style='color:red'>Fail,<span style='color:green'>Lift","<span style='color:red'>Fail,<span style='color:red'>Fail,<span style='color:green'>Lift,<span style='color:green'>Lift,<span style='color:green'>Lift,<span style='color:green'>Lift,<span style='color:green'>Lift,<span style='color:red'>Fail,<span style='color:green'>Lift,<span style='color:green'>Lift,<span style='color:red'>Fail,<span style='color:green'>Lift","<span style='color:red'>Fail,<span style='color:green'>Lift,<span style='color:green'>Lift,<span style='color:red'>Fail,<span style='color:green'>Lift,<span style='color:green'>Lift","0,0,1,1,0,0,0,0,1,0,0,1","0,0,1,1,1,1,1,0,1,1,0,1","0,1,1,0,1,1",10,20,20,"","","<p style='font-size:30px'><b> New Contest! </b></p>","null","","",4,"",NA,NA,NA,NA,NA,NA,NA,NA,NA,NA,NA,NA,NA,NA,NA,NA,NA,NA,NA,NA,NA,NA,NA,NA,NA,NA,NA,NA,NA,NA,NA,NA,NA,NA,NA,NA,NA,NA,NA,"",NA,NA,NA,NA,NA,NA,NA,NA,NA,2025-11-21 02:35:48
"13439.399999976158","https://psyc-201.github.io/xiang2023/exp/index1.html?PROLIFIC_PID=REDACTED&STUDY_ID=691f8ca61c6b4dcbb0aeb5f4&SESSION_ID=691fcacd0173cfd9640f886c","survey-html-form",26,810330,"0.0-335.0","H/EcZQCu7wXiOaWPM5fkqI67FK4Kpr3Y8YisjpfjHMlccfZj1K7MIwYyZqif2Za5cVa3RabZQPNiqKF9ozBTO0xZL8Hp3cZRCQI6Jg2b9G0wMIHD8VhX3WNfoGIBEtqUKZmywpphauGD/DS/wQTxWomndD+eywQi1LbXNBrQ5t/Ofbrp9TGcRqotbCbdPyYuL7kfo7r6o2poedfXlk7ejiVIoMXEK92BBYxppd27Qi3MnP70fz/J+9MeTC2Eg1QTJ54MHphhtwfSXXRFEILwxHnbPeTQyY//PhecTp5lqniUezy8XB2w1WIUbk+ezO5rnqYYxdOKVphCkpQCYaMtIw==","691f8ca61c6b4dcbb0aeb5f4","691fcacd0173cfd9640f886c","index1","<span style='color:red'>Fail,<span style='color:red'>Fail,<span style='color:green'>Lift,<span style='color:green'>Lift,<span style='color:red'>Fail,<span style='color:red'>Fail,<span style='color:red'>Fail,<span style='color:red'>Fail,<span style='color:green'>Lift,<span style='color:red'>Fail,<span style='color:red'>Fail,<span style='color:green'>Lift","<span style='color:red'>Fail,<span style='color:red'>Fail,<span style='color:green'>Lift,<span style='color:green'>Lift,<span style='color:green'>Lift,<span style='color:green'>Lift,<span style='color:green'>Lift,<span style='color:red'>Fail,<span style='color:green'>Lift,<span style='color:green'>Lift,<span style='color:red'>Fail,<span style='color:green'>Lift","<span style='color:red'>Fail,<span style='color:green'>Lift,<span style='color:green'>Lift,<span style='color:red'>Fail,<span style='color:green'>Lift,<span style='color:green'>Lift","0,0,1,1,0,0,0,0,1,0,0,1","0,0,1,1,1,1,1,0,1,1,0,1","0,1,1,0,1,1",10,20,20,"","","","","{""box1"":""2"",""box2"":""4""}","",4,"round1_outcome",1,4,1,2,4,NA,NA,0,0,10,2,4,NA,NA,0,0,10,NA,NA,NA,NA,NA,NA,NA,NA,NA,NA,NA,NA,NA,NA,NA,NA,NA,NA,NA,NA,NA,NA,"",NA,NA,NA,NA,NA,NA,NA,NA,NA,2025-11-21 02:35:48
"18398.600000023842","https://psyc-201.github.io/xiang2023/exp/index1.html?PROLIFIC_PID=REDACTED&STUDY_ID=691f8ca61c6b4dcbb0aeb5f4&SESSION_ID=691fcacd0173cfd9640f886c","survey-html-form",27,828730,"0.0-336.0","H/EcZQCu7wXiOaWPM5fkqI67FK4Kpr3Y8YisjpfjHMlccfZj1K7MIwYyZqif2Za5cVa3RabZQPNiqKF9ozBTO0xZL8Hp3cZRCQI6Jg2b9G0wMIHD8VhX3WNfoGIBEtqUKZmywpphauGD/DS/wQTxWomndD+eywQi1LbXNBrQ5t/Ofbrp9TGcRqotbCbdPyYuL7kfo7r6o2poedfXlk7ejiVIoMXEK92BBYxppd27Qi3MnP70fz/J+9MeTC2Eg1QTJ54MHphhtwfSXXRFEILwxHnbPeTQyY//PhecTp5lqniUezy8XB2w1WIUbk+ezO5rnqYYxdOKVphCkpQCYaMtIw==","691f8ca61c6b4dcbb0aeb5f4","691fcacd0173cfd9640f886c","index1","<span style='color:red'>Fail,<span style='color:red'>Fail,<span style='color:green'>Lift,<span style='color:green'>Lift,<span style='color:red'>Fail,<span style='color:red'>Fail,<span style='color:red'>Fail,<span style='color:red'>Fail,<span style='color:green'>Lift,<span style='color:red'>Fail,<span style='color:red'>Fail,<span style='color:green'>Lift","<span style='color:red'>Fail,<span style='color:red'>Fail,<span style='color:green'>Lift,<span style='color:green'>Lift,<span style='color:green'>Lift,<span style='color:green'>Lift,<span style='color:green'>Lift,<span style='color:red'>Fail,<span style='color:green'>Lift,<span style='color:green'>Lift,<span style='color:red'>Fail,<span style='color:green'>Lift","<span style='color:red'>Fail,<span style='color:green'>Lift,<span style='color:green'>Lift,<span style='color:red'>Fail,<span style='color:green'>Lift,<span style='color:green'>Lift","0,0,1,1,0,0,0,0,1,0,0,1","0,0,1,1,1,1,1,0,1,1,0,1","0,1,1,0,1,1",10,20,20,"","","","","{""box1"":""15"",""box2"":""35""}","",4,"round2_ready",2,4,2,NA,NA,NA,NA,NA,NA,NA,NA,NA,NA,NA,NA,NA,NA,15,35,15,35,NA,NA,NA,NA,NA,NA,NA,NA,NA,NA,NA,NA,NA,NA,NA,NA,NA,NA,"",NA,NA,NA,NA,NA,NA,NA,NA,NA,2025-11-21 02:35:48
"14366.899999976158","https://psyc-201.github.io/xiang2023/exp/index1.html?PROLIFIC_PID=REDACTED&STUDY_ID=691f8ca61c6b4dcbb0aeb5f4&SESSION_ID=691fcacd0173cfd9640f886c","survey-html-form",28,843098,"0.0-337.0","H/EcZQCu7wXiOaWPM5fkqI67FK4Kpr3Y8YisjpfjHMlccfZj1K7MIwYyZqif2Za5cVa3RabZQPNiqKF9ozBTO0xZL8Hp3cZRCQI6Jg2b9G0wMIHD8VhX3WNfoGIBEtqUKZmywpphauGD/DS/wQTxWomndD+eywQi1LbXNBrQ5t/Ofbrp9TGcRqotbCbdPyYuL7kfo7r6o2poedfXlk7ejiVIoMXEK92BBYxppd27Qi3MnP70fz/J+9MeTC2Eg1QTJ54MHphhtwfSXXRFEILwxHnbPeTQyY//PhecTp5lqniUezy8XB2w1WIUbk+ezO5rnqYYxdOKVphCkpQCYaMtIw==","691f8ca61c6b4dcbb0aeb5f4","691fcacd0173cfd9640f886c","index1","<span style='color:red'>Fail,<span style='color:red'>Fail,<span style='color:green'>Lift,<span style='color:green'>Lift,<span style='color:red'>Fail,<span style='color:red'>Fail,<span style='color:red'>Fail,<span style='color:red'>Fail,<span style='color:green'>Lift,<span style='color:red'>Fail,<span style='color:red'>Fail,<span style='color:green'>Lift","<span style='color:red'>Fail,<span style='color:red'>Fail,<span style='color:green'>Lift,<span style='color:green'>Lift,<span style='color:green'>Lift,<span style='color:green'>Lift,<span style='color:green'>Lift,<span style='color:red'>Fail,<span style='color:green'>Lift,<span style='color:green'>Lift,<span style='color:red'>Fail,<span style='color:green'>Lift","<span style='color:red'>Fail,<span style='color:green'>Lift,<span style='color:green'>Lift,<span style='color:red'>Fail,<span style='color:green'>Lift,<span style='color:green'>Lift","0,0,1,1,0,0,0,0,1,0,0,1","0,0,1,1,1,1,1,0,1,1,0,1","0,1,1,0,1,1",10,20,20,"","","","","{""box1"":""5"",""box2"":""4"",""box3"":""100""}","",4,"round2_outcome",3,4,2,5,4,100,NA,1,0,20,NA,NA,NA,NA,NA,NA,NA,NA,NA,NA,NA,5,4,100,NA,1,0,20,NA,NA,NA,NA,NA,NA,NA,NA,NA,NA,NA,"",NA,NA,NA,NA,NA,NA,NA,NA,NA,2025-11-21 02:35:48
"6286.5","https://psyc-201.github.io/xiang2023/exp/index1.html?PROLIFIC_PID=REDACTED&STUDY_ID=691f8ca61c6b4dcbb0aeb5f4&SESSION_ID=691fcacd0173cfd9640f886c","survey-html-form",29,849386,"0.0-338.0","H/EcZQCu7wXiOaWPM5fkqI67FK4Kpr3Y8YisjpfjHMlccfZj1K7MIwYyZqif2Za5cVa3RabZQPNiqKF9ozBTO0xZL8Hp3cZRCQI6Jg2b9G0wMIHD8VhX3WNfoGIBEtqUKZmywpphauGD/DS/wQTxWomndD+eywQi1LbXNBrQ5t/Ofbrp9TGcRqotbCbdPyYuL7kfo7r6o2poedfXlk7ejiVIoMXEK92BBYxppd27Qi3MnP70fz/J+9MeTC2Eg1QTJ54MHphhtwfSXXRFEILwxHnbPeTQyY//PhecTp5lqniUezy8XB2w1WIUbk+ezO5rnqYYxdOKVphCkpQCYaMtIw==","691f8ca61c6b4dcbb0aeb5f4","691fcacd0173cfd9640f886c","index1","<span style='color:red'>Fail,<span style='color:red'>Fail,<span style='color:green'>Lift,<span style='color:green'>Lift,<span style='color:red'>Fail,<span style='color:red'>Fail,<span style='color:red'>Fail,<span style='color:red'>Fail,<span style='color:green'>Lift,<span style='color:red'>Fail,<span style='color:red'>Fail,<span style='color:green'>Lift","<span style='color:red'>Fail,<span style='color:red'>Fail,<span style='color:green'>Lift,<span style='color:green'>Lift,<span style='color:green'>Lift,<span style='color:green'>Lift,<span style='color:green'>Lift,<span style='color:red'>Fail,<span style='color:green'>Lift,<span style='color:green'>Lift,<span style='color:red'>Fail,<span style='color:green'>Lift","<span style='color:red'>Fail,<span style='color:green'>Lift,<span style='color:green'>Lift,<span style='color:red'>Fail,<span style='color:green'>Lift,<span style='color:green'>Lift","0,0,1,1,0,0,0,0,1,0,0,1","0,0,1,1,1,1,1,0,1,1,0,1","0,1,1,0,1,1",10,20,20,"","","","","{""box1"":""30""}","",4,"round3_ready",4,4,3,NA,NA,NA,NA,NA,NA,NA,NA,NA,NA,NA,NA,NA,NA,30,30,NA,NA,NA,NA,NA,NA,NA,NA,NA,30,30,NA,NA,NA,NA,NA,NA,NA,NA,NA,"",NA,NA,NA,NA,NA,NA,NA,NA,NA,2025-11-21 02:35:48
"24590.69999998808","https://psyc-201.github.io/xiang2023/exp/index1.html?PROLIFIC_PID=REDACTED&STUDY_ID=691f8ca61c6b4dcbb0aeb5f4&SESSION_ID=691fcacd0173cfd9640f886c","survey-html-form",30,873978,"0.0-340.0-0.0","H/EcZQCu7wXiOaWPM5fkqI67FK4Kpr3Y8YisjpfjHMlccfZj1K7MIwYyZqif2Za5cVa3RabZQPNiqKF9ozBTO0xZL8Hp3cZRCQI6Jg2b9G0wMIHD8VhX3WNfoGIBEtqUKZmywpphauGD/DS/wQTxWomndD+eywQi1LbXNBrQ5t/Ofbrp9TGcRqotbCbdPyYuL7kfo7r6o2poedfXlk7ejiVIoMXEK92BBYxppd27Qi3MnP70fz/J+9MeTC2Eg1QTJ54MHphhtwfSXXRFEILwxHnbPeTQyY//PhecTp5lqniUezy8XB2w1WIUbk+ezO5rnqYYxdOKVphCkpQCYaMtIw==","691f8ca61c6b4dcbb0aeb5f4","691fcacd0173cfd9640f886c","index1","<span style='color:red'>Fail,<span style='color:red'>Fail,<span style='color:green'>Lift,<span style='color:green'>Lift,<span style='color:red'>Fail,<span style='color:red'>Fail,<span style='color:red'>Fail,<span style='color:red'>Fail,<span style='color:green'>Lift,<span style='color:red'>Fail,<span style='color:red'>Fail,<span style='color:green'>Lift","<span style='color:red'>Fail,<span style='color:red'>Fail,<span style='color:green'>Lift,<span style='color:green'>Lift,<span style='color:green'>Lift,<span style='color:green'>Lift,<span style='color:green'>Lift,<span style='color:red'>Fail,<span style='color:green'>Lift,<span style='color:green'>Lift,<span style='color:red'>Fail,<span style='color:green'>Lift","<span style='color:red'>Fail,<span style='color:green'>Lift,<span style='color:green'>Lift,<span style='color:red'>Fail,<span style='color:green'>Lift,<span style='color:green'>Lift","0,0,1,1,0,0,0,0,1,0,0,1","0,0,1,1,1,1,1,0,1,1,0,1","0,1,1,0,1,1",10,20,20,"","","","","{""box1"":""5"",""box2"":""3"",""box3"":""999"",""box4"":""999""}","",5,"round3_fail",5,4,3,5,3,NA,NA,0,0,20,NA,NA,NA,NA,NA,NA,NA,NA,NA,NA,NA,NA,NA,NA,NA,NA,NA,NA,NA,NA,1,1,5,3,0,0,20,NA,NA,"",NA,NA,NA,NA,NA,NA,NA,NA,NA,2025-11-21 02:35:48
"null","https://psyc-201.github.io/xiang2023/exp/index1.html?PROLIFIC_PID=REDACTED&STUDY_ID=691f8ca61c6b4dcbb0aeb5f4&SESSION_ID=691fcacd0173cfd9640f886c","html-keyboard-response",31,876989,"0.0-343.0","H/EcZQCu7wXiOaWPM5fkqI67FK4Kpr3Y8YisjpfjHMlccfZj1K7MIwYyZqif2Za5cVa3RabZQPNiqKF9ozBTO0xZL8Hp3cZRCQI6Jg2b9G0wMIHD8VhX3WNfoGIBEtqUKZmywpphauGD/DS/wQTxWomndD+eywQi1LbXNBrQ5t/Ofbrp9TGcRqotbCbdPyYuL7kfo7r6o2poedfXlk7ejiVIoMXEK92BBYxppd27Qi3MnP70fz/J+9MeTC2Eg1QTJ54MHphhtwfSXXRFEILwxHnbPeTQyY//PhecTp5lqniUezy8XB2w1WIUbk+ezO5rnqYYxdOKVphCkpQCYaMtIw==","691f8ca61c6b4dcbb0aeb5f4","691fcacd0173cfd9640f886c","index1","<span style='color:red'>Fail,<span style='color:red'>Fail,<span style='color:green'>Lift,<span style='color:green'>Lift,<span style='color:red'>Fail,<span style='color:red'>Fail,<span style='color:red'>Fail,<span style='color:red'>Fail,<span style='color:green'>Lift,<span style='color:red'>Fail,<span style='color:red'>Fail,<span style='color:green'>Lift","<span style='color:red'>Fail,<span style='color:red'>Fail,<span style='color:green'>Lift,<span style='color:green'>Lift,<span style='color:green'>Lift,<span style='color:green'>Lift,<span style='color:green'>Lift,<span style='color:red'>Fail,<span style='color:green'>Lift,<span style='color:green'>Lift,<span style='color:red'>Fail,<span style='color:green'>Lift","<span style='color:red'>Fail,<span style='color:green'>Lift,<span style='color:green'>Lift,<span style='color:red'>Fail,<span style='color:green'>Lift,<span style='color:green'>Lift","0,0,1,1,0,0,0,0,1,0,0,1","0,0,1,1,1,1,1,0,1,1,0,1","0,1,1,0,1,1",10,20,20,"","","<p style='font-size:30px'><b> New Contest! </b></p>","null","","",5,"",NA,NA,NA,NA,NA,NA,NA,NA,NA,NA,NA,NA,NA,NA,NA,NA,NA,NA,NA,NA,NA,NA,NA,NA,NA,NA,NA,NA,NA,NA,NA,NA,NA,NA,NA,NA,NA,NA,NA,"",NA,NA,NA,NA,NA,NA,NA,NA,NA,2025-11-21 02:35:48
"18347.600000023842","https://psyc-201.github.io/xiang2023/exp/index1.html?PROLIFIC_PID=REDACTED&STUDY_ID=691f8ca61c6b4dcbb0aeb5f4&SESSION_ID=691fcacd0173cfd9640f886c","survey-html-form",32,895338,"0.0-344.0","H/EcZQCu7wXiOaWPM5fkqI67FK4Kpr3Y8YisjpfjHMlccfZj1K7MIwYyZqif2Za5cVa3RabZQPNiqKF9ozBTO0xZL8Hp3cZRCQI6Jg2b9G0wMIHD8VhX3WNfoGIBEtqUKZmywpphauGD/DS/wQTxWomndD+eywQi1LbXNBrQ5t/Ofbrp9TGcRqotbCbdPyYuL7kfo7r6o2poedfXlk7ejiVIoMXEK92BBYxppd27Qi3MnP70fz/J+9MeTC2Eg1QTJ54MHphhtwfSXXRFEILwxHnbPeTQyY//PhecTp5lqniUezy8XB2w1WIUbk+ezO5rnqYYxdOKVphCkpQCYaMtIw==","691f8ca61c6b4dcbb0aeb5f4","691fcacd0173cfd9640f886c","index1","<span style='color:red'>Fail,<span style='color:red'>Fail,<span style='color:green'>Lift,<span style='color:green'>Lift,<span style='color:red'>Fail,<span style='color:red'>Fail,<span style='color:red'>Fail,<span style='color:red'>Fail,<span style='color:green'>Lift,<span style='color:red'>Fail,<span style='color:red'>Fail,<span style='color:green'>Lift","<span style='color:red'>Fail,<span style='color:red'>Fail,<span style='color:green'>Lift,<span style='color:green'>Lift,<span style='color:green'>Lift,<span style='color:green'>Lift,<span style='color:green'>Lift,<span style='color:red'>Fail,<span style='color:green'>Lift,<span style='color:green'>Lift,<span style='color:red'>Fail,<span style='color:green'>Lift","<span style='color:red'>Fail,<span style='color:green'>Lift,<span style='color:green'>Lift,<span style='color:red'>Fail,<span style='color:green'>Lift,<span style='color:green'>Lift","0,0,1,1,0,0,0,0,1,0,0,1","0,0,1,1,1,1,1,0,1,1,0,1","0,1,1,0,1,1",10,20,20,"","","","","{""box1"":""8"",""box2"":""7"",""box3"":""60"",""box4"":""65""}","",5,"round1_outcome",1,5,1,8,7,60,65,1,1,10,8,7,60,65,1,1,10,NA,NA,NA,NA,NA,NA,NA,NA,NA,NA,NA,NA,NA,NA,NA,NA,NA,NA,NA,NA,NA,NA,"",NA,NA,NA,NA,NA,NA,NA,NA,NA,2025-11-21 02:35:48
"16982.69999998808","https://psyc-201.github.io/xiang2023/exp/index1.html?PROLIFIC_PID=REDACTED&STUDY_ID=691f8ca61c6b4dcbb0aeb5f4&SESSION_ID=691fcacd0173cfd9640f886c","survey-html-form",33,912322,"0.0-345.0","H/EcZQCu7wXiOaWPM5fkqI67FK4Kpr3Y8YisjpfjHMlccfZj1K7MIwYyZqif2Za5cVa3RabZQPNiqKF9ozBTO0xZL8Hp3cZRCQI6Jg2b9G0wMIHD8VhX3WNfoGIBEtqUKZmywpphauGD/DS/wQTxWomndD+eywQi1LbXNBrQ5t/Ofbrp9TGcRqotbCbdPyYuL7kfo7r6o2poedfXlk7ejiVIoMXEK92BBYxppd27Qi3MnP70fz/J+9MeTC2Eg1QTJ54MHphhtwfSXXRFEILwxHnbPeTQyY//PhecTp5lqniUezy8XB2w1WIUbk+ezO5rnqYYxdOKVphCkpQCYaMtIw==","691f8ca61c6b4dcbb0aeb5f4","691fcacd0173cfd9640f886c","index1","<span style='color:red'>Fail,<span style='color:red'>Fail,<span style='color:green'>Lift,<span style='color:green'>Lift,<span style='color:red'>Fail,<span style='color:red'>Fail,<span style='color:red'>Fail,<span style='color:red'>Fail,<span style='color:green'>Lift,<span style='color:red'>Fail,<span style='color:red'>Fail,<span style='color:green'>Lift","<span style='color:red'>Fail,<span style='color:red'>Fail,<span style='color:green'>Lift,<span style='color:green'>Lift,<span style='color:green'>Lift,<span style='color:green'>Lift,<span style='color:green'>Lift,<span style='color:red'>Fail,<span style='color:green'>Lift,<span style='color:green'>Lift,<span style='color:red'>Fail,<span style='color:green'>Lift","<span style='color:red'>Fail,<span style='color:green'>Lift,<span style='color:green'>Lift,<span style='color:red'>Fail,<span style='color:green'>Lift,<span style='color:green'>Lift","0,0,1,1,0,0,0,0,1,0,0,1","0,0,1,1,1,1,1,0,1,1,0,1","0,1,1,0,1,1",10,20,20,"","","","","{""box1"":""70"",""box2"":""60""}","",5,"round2_ready",2,5,2,NA,NA,NA,NA,NA,NA,NA,NA,NA,NA,NA,NA,NA,NA,70,60,70,60,NA,NA,NA,NA,NA,NA,NA,NA,NA,NA,NA,NA,NA,NA,NA,NA,NA,NA,"",NA,NA,NA,NA,NA,NA,NA,NA,NA,2025-11-21 02:35:48
"29654.799999952316","https://psyc-201.github.io/xiang2023/exp/index1.html?PROLIFIC_PID=REDACTED&STUDY_ID=691f8ca61c6b4dcbb0aeb5f4&SESSION_ID=691fcacd0173cfd9640f886c","survey-html-form",34,941978,"0.0-346.0","H/EcZQCu7wXiOaWPM5fkqI67FK4Kpr3Y8YisjpfjHMlccfZj1K7MIwYyZqif2Za5cVa3RabZQPNiqKF9ozBTO0xZL8Hp3cZRCQI6Jg2b9G0wMIHD8VhX3WNfoGIBEtqUKZmywpphauGD/DS/wQTxWomndD+eywQi1LbXNBrQ5t/Ofbrp9TGcRqotbCbdPyYuL7kfo7r6o2poedfXlk7ejiVIoMXEK92BBYxppd27Qi3MnP70fz/J+9MeTC2Eg1QTJ54MHphhtwfSXXRFEILwxHnbPeTQyY//PhecTp5lqniUezy8XB2w1WIUbk+ezO5rnqYYxdOKVphCkpQCYaMtIw==","691f8ca61c6b4dcbb0aeb5f4","691fcacd0173cfd9640f886c","index1","<span style='color:red'>Fail,<span style='color:red'>Fail,<span style='color:green'>Lift,<span style='color:green'>Lift,<span style='color:red'>Fail,<span style='color:red'>Fail,<span style='color:red'>Fail,<span style='color:red'>Fail,<span style='color:green'>Lift,<span style='color:red'>Fail,<span style='color:red'>Fail,<span style='color:green'>Lift","<span style='color:red'>Fail,<span style='color:red'>Fail,<span style='color:green'>Lift,<span style='color:green'>Lift,<span style='color:green'>Lift,<span style='color:green'>Lift,<span style='color:green'>Lift,<span style='color:red'>Fail,<span style='color:green'>Lift,<span style='color:green'>Lift,<span style='color:red'>Fail,<span style='color:green'>Lift","<span style='color:red'>Fail,<span style='color:green'>Lift,<span style='color:green'>Lift,<span style='color:red'>Fail,<span style='color:green'>Lift,<span style='color:green'>Lift","0,0,1,1,0,0,0,0,1,0,0,1","0,0,1,1,1,1,1,0,1,1,0,1","0,1,1,0,1,1",10,20,20,"","","","","{""box1"":""9"",""box2"":""8"",""box3"":""55"",""box4"":""65""}","",5,"round2_outcome",3,5,2,9,8,55,65,1,1,20,NA,NA,NA,NA,NA,NA,NA,NA,NA,NA,NA,9,8,55,65,1,1,20,NA,NA,NA,NA,NA,NA,NA,NA,NA,NA,NA,"",NA,NA,NA,NA,NA,NA,NA,NA,NA,2025-11-21 02:35:48
"10581.800000011921","https://psyc-201.github.io/xiang2023/exp/index1.html?PROLIFIC_PID=REDACTED&STUDY_ID=691f8ca61c6b4dcbb0aeb5f4&SESSION_ID=691fcacd0173cfd9640f886c","survey-html-form",35,952561,"0.0-347.0","H/EcZQCu7wXiOaWPM5fkqI67FK4Kpr3Y8YisjpfjHMlccfZj1K7MIwYyZqif2Za5cVa3RabZQPNiqKF9ozBTO0xZL8Hp3cZRCQI6Jg2b9G0wMIHD8VhX3WNfoGIBEtqUKZmywpphauGD/DS/wQTxWomndD+eywQi1LbXNBrQ5t/Ofbrp9TGcRqotbCbdPyYuL7kfo7r6o2poedfXlk7ejiVIoMXEK92BBYxppd27Qi3MnP70fz/J+9MeTC2Eg1QTJ54MHphhtwfSXXRFEILwxHnbPeTQyY//PhecTp5lqniUezy8XB2w1WIUbk+ezO5rnqYYxdOKVphCkpQCYaMtIw==","691f8ca61c6b4dcbb0aeb5f4","691fcacd0173cfd9640f886c","index1","<span style='color:red'>Fail,<span style='color:red'>Fail,<span style='color:green'>Lift,<span style='color:green'>Lift,<span style='color:red'>Fail,<span style='color:red'>Fail,<span style='color:red'>Fail,<span style='color:red'>Fail,<span style='color:green'>Lift,<span style='color:red'>Fail,<span style='color:red'>Fail,<span style='color:green'>Lift","<span style='color:red'>Fail,<span style='color:red'>Fail,<span style='color:green'>Lift,<span style='color:green'>Lift,<span style='color:green'>Lift,<span style='color:green'>Lift,<span style='color:green'>Lift,<span style='color:red'>Fail,<span style='color:green'>Lift,<span style='color:green'>Lift,<span style='color:red'>Fail,<span style='color:green'>Lift","<span style='color:red'>Fail,<span style='color:green'>Lift,<span style='color:green'>Lift,<span style='color:red'>Fail,<span style='color:green'>Lift,<span style='color:green'>Lift","0,0,1,1,0,0,0,0,1,0,0,1","0,0,1,1,1,1,1,0,1,1,0,1","0,1,1,0,1,1",10,20,20,"","","","","{""box1"":""75""}","",5,"round3_ready",4,5,3,NA,NA,NA,NA,NA,NA,NA,NA,NA,NA,NA,NA,NA,NA,75,75,NA,NA,NA,NA,NA,NA,NA,NA,NA,75,75,NA,NA,NA,NA,NA,NA,NA,NA,NA,"",NA,NA,NA,NA,NA,NA,NA,NA,NA,2025-11-21 02:35:48
"22031","https://psyc-201.github.io/xiang2023/exp/index1.html?PROLIFIC_PID=REDACTED&STUDY_ID=691f8ca61c6b4dcbb0aeb5f4&SESSION_ID=691fcacd0173cfd9640f886c","survey-html-form",36,974593,"0.0-348.0-0.0","H/EcZQCu7wXiOaWPM5fkqI67FK4Kpr3Y8YisjpfjHMlccfZj1K7MIwYyZqif2Za5cVa3RabZQPNiqKF9ozBTO0xZL8Hp3cZRCQI6Jg2b9G0wMIHD8VhX3WNfoGIBEtqUKZmywpphauGD/DS/wQTxWomndD+eywQi1LbXNBrQ5t/Ofbrp9TGcRqotbCbdPyYuL7kfo7r6o2poedfXlk7ejiVIoMXEK92BBYxppd27Qi3MnP70fz/J+9MeTC2Eg1QTJ54MHphhtwfSXXRFEILwxHnbPeTQyY//PhecTp5lqniUezy8XB2w1WIUbk+ezO5rnqYYxdOKVphCkpQCYaMtIw==","691f8ca61c6b4dcbb0aeb5f4","691fcacd0173cfd9640f886c","index1","<span style='color:red'>Fail,<span style='color:red'>Fail,<span style='color:green'>Lift,<span style='color:green'>Lift,<span style='color:red'>Fail,<span style='color:red'>Fail,<span style='color:red'>Fail,<span style='color:red'>Fail,<span style='color:green'>Lift,<span style='color:red'>Fail,<span style='color:red'>Fail,<span style='color:green'>Lift","<span style='color:red'>Fail,<span style='color:red'>Fail,<span style='color:green'>Lift,<span style='color:green'>Lift,<span style='color:green'>Lift,<span style='color:green'>Lift,<span style='color:green'>Lift,<span style='color:red'>Fail,<span style='color:green'>Lift,<span style='color:green'>Lift,<span style='color:red'>Fail,<span style='color:green'>Lift","<span style='color:red'>Fail,<span style='color:green'>Lift,<span style='color:green'>Lift,<span style='color:red'>Fail,<span style='color:green'>Lift,<span style='color:green'>Lift","0,0,1,1,0,0,0,0,1,0,0,1","0,0,1,1,1,1,1,0,1,1,0,1","0,1,1,0,1,1",10,20,20,"","","","","{""box1"":""9"",""box2"":""9"",""box3"":""50"",""box4"":""50""}","",6,"round3_lift",5,5,3,9,9,50,50,1,1,20,NA,NA,NA,NA,NA,NA,NA,NA,NA,NA,NA,NA,NA,NA,NA,NA,NA,NA,NA,NA,NA,NA,9,9,1,1,20,50,50,"",NA,NA,NA,NA,NA,NA,NA,NA,NA,2025-11-21 02:35:48
"null","https://psyc-201.github.io/xiang2023/exp/index1.html?PROLIFIC_PID=REDACTED&STUDY_ID=691f8ca61c6b4dcbb0aeb5f4&SESSION_ID=691fcacd0173cfd9640f886c","html-keyboard-response",37,977598,"0.0-352.0","H/EcZQCu7wXiOaWPM5fkqI67FK4Kpr3Y8YisjpfjHMlccfZj1K7MIwYyZqif2Za5cVa3RabZQPNiqKF9ozBTO0xZL8Hp3cZRCQI6Jg2b9G0wMIHD8VhX3WNfoGIBEtqUKZmywpphauGD/DS/wQTxWomndD+eywQi1LbXNBrQ5t/Ofbrp9TGcRqotbCbdPyYuL7kfo7r6o2poedfXlk7ejiVIoMXEK92BBYxppd27Qi3MnP70fz/J+9MeTC2Eg1QTJ54MHphhtwfSXXRFEILwxHnbPeTQyY//PhecTp5lqniUezy8XB2w1WIUbk+ezO5rnqYYxdOKVphCkpQCYaMtIw==","691f8ca61c6b4dcbb0aeb5f4","691fcacd0173cfd9640f886c","index1","<span style='color:red'>Fail,<span style='color:red'>Fail,<span style='color:green'>Lift,<span style='color:green'>Lift,<span style='color:red'>Fail,<span style='color:red'>Fail,<span style='color:red'>Fail,<span style='color:red'>Fail,<span style='color:green'>Lift,<span style='color:red'>Fail,<span style='color:red'>Fail,<span style='color:green'>Lift","<span style='color:red'>Fail,<span style='color:red'>Fail,<span style='color:green'>Lift,<span style='color:green'>Lift,<span style='color:green'>Lift,<span style='color:green'>Lift,<span style='color:green'>Lift,<span style='color:red'>Fail,<span style='color:green'>Lift,<span style='color:green'>Lift,<span style='color:red'>Fail,<span style='color:green'>Lift","<span style='color:red'>Fail,<span style='color:green'>Lift,<span style='color:green'>Lift,<span style='color:red'>Fail,<span style='color:green'>Lift,<span style='color:green'>Lift","0,0,1,1,0,0,0,0,1,0,0,1","0,0,1,1,1,1,1,0,1,1,0,1","0,1,1,0,1,1",10,20,20,"","","<p style='font-size:30px'><b> New Contest! </b></p>","null","","",6,"",NA,NA,NA,NA,NA,NA,NA,NA,NA,NA,NA,NA,NA,NA,NA,NA,NA,NA,NA,NA,NA,NA,NA,NA,NA,NA,NA,NA,NA,NA,NA,NA,NA,NA,NA,NA,NA,NA,NA,"",NA,NA,NA,NA,NA,NA,NA,NA,NA,2025-11-21 02:35:48
"12033.800000011921","https://psyc-201.github.io/xiang2023/exp/index1.html?PROLIFIC_PID=REDACTED&STUDY_ID=691f8ca61c6b4dcbb0aeb5f4&SESSION_ID=691fcacd0173cfd9640f886c","survey-html-form",38,989634,"0.0-353.0","H/EcZQCu7wXiOaWPM5fkqI67FK4Kpr3Y8YisjpfjHMlccfZj1K7MIwYyZqif2Za5cVa3RabZQPNiqKF9ozBTO0xZL8Hp3cZRCQI6Jg2b9G0wMIHD8VhX3WNfoGIBEtqUKZmywpphauGD/DS/wQTxWomndD+eywQi1LbXNBrQ5t/Ofbrp9TGcRqotbCbdPyYuL7kfo7r6o2poedfXlk7ejiVIoMXEK92BBYxppd27Qi3MnP70fz/J+9MeTC2Eg1QTJ54MHphhtwfSXXRFEILwxHnbPeTQyY//PhecTp5lqniUezy8XB2w1WIUbk+ezO5rnqYYxdOKVphCkpQCYaMtIw==","691f8ca61c6b4dcbb0aeb5f4","691fcacd0173cfd9640f886c","index1","<span style='color:red'>Fail,<span style='color:red'>Fail,<span style='color:green'>Lift,<span style='color:green'>Lift,<span style='color:red'>Fail,<span style='color:red'>Fail,<span style='color:red'>Fail,<span style='color:red'>Fail,<span style='color:green'>Lift,<span style='color:red'>Fail,<span style='color:red'>Fail,<span style='color:green'>Lift","<span style='color:red'>Fail,<span style='color:red'>Fail,<span style='color:green'>Lift,<span style='color:green'>Lift,<span style='color:green'>Lift,<span style='color:green'>Lift,<span style='color:green'>Lift,<span style='color:red'>Fail,<span style='color:green'>Lift,<span style='color:green'>Lift,<span style='color:red'>Fail,<span style='color:green'>Lift","<span style='color:red'>Fail,<span style='color:green'>Lift,<span style='color:green'>Lift,<span style='color:red'>Fail,<span style='color:green'>Lift,<span style='color:green'>Lift","0,0,1,1,0,0,0,0,1,0,0,1","0,0,1,1,1,1,1,0,1,1,0,1","0,1,1,0,1,1",10,20,20,"","","","","{""box1"":""5"",""box2"":""7"",""box4"":""75""}","",6,"round1_outcome",1,6,1,5,7,NA,75,0,1,10,5,7,NA,75,0,1,10,NA,NA,NA,NA,NA,NA,NA,NA,NA,NA,NA,NA,NA,NA,NA,NA,NA,NA,NA,NA,NA,NA,"",NA,NA,NA,NA,NA,NA,NA,NA,NA,2025-11-21 02:35:48
"10230.599999964237","https://psyc-201.github.io/xiang2023/exp/index1.html?PROLIFIC_PID=REDACTED&STUDY_ID=691f8ca61c6b4dcbb0aeb5f4&SESSION_ID=691fcacd0173cfd9640f886c","survey-html-form",39,999866,"0.0-354.0","H/EcZQCu7wXiOaWPM5fkqI67FK4Kpr3Y8YisjpfjHMlccfZj1K7MIwYyZqif2Za5cVa3RabZQPNiqKF9ozBTO0xZL8Hp3cZRCQI6Jg2b9G0wMIHD8VhX3WNfoGIBEtqUKZmywpphauGD/DS/wQTxWomndD+eywQi1LbXNBrQ5t/Ofbrp9TGcRqotbCbdPyYuL7kfo7r6o2poedfXlk7ejiVIoMXEK92BBYxppd27Qi3MnP70fz/J+9MeTC2Eg1QTJ54MHphhtwfSXXRFEILwxHnbPeTQyY//PhecTp5lqniUezy8XB2w1WIUbk+ezO5rnqYYxdOKVphCkpQCYaMtIw==","691f8ca61c6b4dcbb0aeb5f4","691fcacd0173cfd9640f886c","index1","<span style='color:red'>Fail,<span style='color:red'>Fail,<span style='color:green'>Lift,<span style='color:green'>Lift,<span style='color:red'>Fail,<span style='color:red'>Fail,<span style='color:red'>Fail,<span style='color:red'>Fail,<span style='color:green'>Lift,<span style='color:red'>Fail,<span style='color:red'>Fail,<span style='color:green'>Lift","<span style='color:red'>Fail,<span style='color:red'>Fail,<span style='color:green'>Lift,<span style='color:green'>Lift,<span style='color:green'>Lift,<span style='color:green'>Lift,<span style='color:green'>Lift,<span style='color:red'>Fail,<span style='color:green'>Lift,<span style='color:green'>Lift,<span style='color:red'>Fail,<span style='color:green'>Lift","<span style='color:red'>Fail,<span style='color:green'>Lift,<span style='color:green'>Lift,<span style='color:red'>Fail,<span style='color:green'>Lift,<span style='color:green'>Lift","0,0,1,1,0,0,0,0,1,0,0,1","0,0,1,1,1,1,1,0,1,1,0,1","0,1,1,0,1,1",10,20,20,"","","","","{""box1"":""40"",""box2"":""55""}","",6,"round2_ready",2,6,2,NA,NA,NA,NA,NA,NA,NA,NA,NA,NA,NA,NA,NA,NA,40,55,40,55,NA,NA,NA,NA,NA,NA,NA,NA,NA,NA,NA,NA,NA,NA,NA,NA,NA,NA,"",NA,NA,NA,NA,NA,NA,NA,NA,NA,2025-11-21 02:35:48
"27326.80000001192","https://psyc-201.github.io/xiang2023/exp/index1.html?PROLIFIC_PID=REDACTED&STUDY_ID=691f8ca61c6b4dcbb0aeb5f4&SESSION_ID=691fcacd0173cfd9640f886c","survey-html-form",40,1027194,"0.0-355.0","H/EcZQCu7wXiOaWPM5fkqI67FK4Kpr3Y8YisjpfjHMlccfZj1K7MIwYyZqif2Za5cVa3RabZQPNiqKF9ozBTO0xZL8Hp3cZRCQI6Jg2b9G0wMIHD8VhX3WNfoGIBEtqUKZmywpphauGD/DS/wQTxWomndD+eywQi1LbXNBrQ5t/Ofbrp9TGcRqotbCbdPyYuL7kfo7r6o2poedfXlk7ejiVIoMXEK92BBYxppd27Qi3MnP70fz/J+9MeTC2Eg1QTJ54MHphhtwfSXXRFEILwxHnbPeTQyY//PhecTp5lqniUezy8XB2w1WIUbk+ezO5rnqYYxdOKVphCkpQCYaMtIw==","691f8ca61c6b4dcbb0aeb5f4","691fcacd0173cfd9640f886c","index1","<span style='color:red'>Fail,<span style='color:red'>Fail,<span style='color:green'>Lift,<span style='color:green'>Lift,<span style='color:red'>Fail,<span style='color:red'>Fail,<span style='color:red'>Fail,<span style='color:red'>Fail,<span style='color:green'>Lift,<span style='color:red'>Fail,<span style='color:red'>Fail,<span style='color:green'>Lift","<span style='color:red'>Fail,<span style='color:red'>Fail,<span style='color:green'>Lift,<span style='color:green'>Lift,<span style='color:green'>Lift,<span style='color:green'>Lift,<span style='color:green'>Lift,<span style='color:red'>Fail,<span style='color:green'>Lift,<span style='color:green'>Lift,<span style='color:red'>Fail,<span style='color:green'>Lift","<span style='color:red'>Fail,<span style='color:green'>Lift,<span style='color:green'>Lift,<span style='color:red'>Fail,<span style='color:green'>Lift,<span style='color:green'>Lift","0,0,1,1,0,0,0,0,1,0,0,1","0,0,1,1,1,1,1,0,1,1,0,1","0,1,1,0,1,1",10,20,20,"","","","","{""box1"":""4"",""box2"":""8"",""box4"":""50""}","",6,"round2_outcome",3,6,2,4,8,NA,50,0,1,20,NA,NA,NA,NA,NA,NA,NA,NA,NA,NA,NA,4,8,NA,50,0,1,20,NA,NA,NA,NA,NA,NA,NA,NA,NA,NA,NA,"",NA,NA,NA,NA,NA,NA,NA,NA,NA,2025-11-21 02:35:48
"5062.700000047684","https://psyc-201.github.io/xiang2023/exp/index1.html?PROLIFIC_PID=REDACTED&STUDY_ID=691f8ca61c6b4dcbb0aeb5f4&SESSION_ID=691fcacd0173cfd9640f886c","survey-html-form",41,1032258,"0.0-356.0","H/EcZQCu7wXiOaWPM5fkqI67FK4Kpr3Y8YisjpfjHMlccfZj1K7MIwYyZqif2Za5cVa3RabZQPNiqKF9ozBTO0xZL8Hp3cZRCQI6Jg2b9G0wMIHD8VhX3WNfoGIBEtqUKZmywpphauGD/DS/wQTxWomndD+eywQi1LbXNBrQ5t/Ofbrp9TGcRqotbCbdPyYuL7kfo7r6o2poedfXlk7ejiVIoMXEK92BBYxppd27Qi3MnP70fz/J+9MeTC2Eg1QTJ54MHphhtwfSXXRFEILwxHnbPeTQyY//PhecTp5lqniUezy8XB2w1WIUbk+ezO5rnqYYxdOKVphCkpQCYaMtIw==","691f8ca61c6b4dcbb0aeb5f4","691fcacd0173cfd9640f886c","index1","<span style='color:red'>Fail,<span style='color:red'>Fail,<span style='color:green'>Lift,<span style='color:green'>Lift,<span style='color:red'>Fail,<span style='color:red'>Fail,<span style='color:red'>Fail,<span style='color:red'>Fail,<span style='color:green'>Lift,<span style='color:red'>Fail,<span style='color:red'>Fail,<span style='color:green'>Lift","<span style='color:red'>Fail,<span style='color:red'>Fail,<span style='color:green'>Lift,<span style='color:green'>Lift,<span style='color:green'>Lift,<span style='color:green'>Lift,<span style='color:green'>Lift,<span style='color:red'>Fail,<span style='color:green'>Lift,<span style='color:green'>Lift,<span style='color:red'>Fail,<span style='color:green'>Lift","<span style='color:red'>Fail,<span style='color:green'>Lift,<span style='color:green'>Lift,<span style='color:red'>Fail,<span style='color:green'>Lift,<span style='color:green'>Lift","0,0,1,1,0,0,0,0,1,0,0,1","0,0,1,1,1,1,1,0,1,1,0,1","0,1,1,0,1,1",10,20,20,"","","","","{""box1"":""45""}","",6,"round3_ready",4,6,3,NA,NA,NA,NA,NA,NA,NA,NA,NA,NA,NA,NA,NA,NA,45,45,NA,NA,NA,NA,NA,NA,NA,NA,NA,45,45,NA,NA,NA,NA,NA,NA,NA,NA,NA,"",NA,NA,NA,NA,NA,NA,NA,NA,NA,2025-11-21 02:35:48
"20046.5","https://psyc-201.github.io/xiang2023/exp/index1.html?PROLIFIC_PID=REDACTED&STUDY_ID=691f8ca61c6b4dcbb0aeb5f4&SESSION_ID=691fcacd0173cfd9640f886c","survey-html-form",42,1052306,"0.0-357.0-0.0","H/EcZQCu7wXiOaWPM5fkqI67FK4Kpr3Y8YisjpfjHMlccfZj1K7MIwYyZqif2Za5cVa3RabZQPNiqKF9ozBTO0xZL8Hp3cZRCQI6Jg2b9G0wMIHD8VhX3WNfoGIBEtqUKZmywpphauGD/DS/wQTxWomndD+eywQi1LbXNBrQ5t/Ofbrp9TGcRqotbCbdPyYuL7kfo7r6o2poedfXlk7ejiVIoMXEK92BBYxppd27Qi3MnP70fz/J+9MeTC2Eg1QTJ54MHphhtwfSXXRFEILwxHnbPeTQyY//PhecTp5lqniUezy8XB2w1WIUbk+ezO5rnqYYxdOKVphCkpQCYaMtIw==","691f8ca61c6b4dcbb0aeb5f4","691fcacd0173cfd9640f886c","index1","<span style='color:red'>Fail,<span style='color:red'>Fail,<span style='color:green'>Lift,<span style='color:green'>Lift,<span style='color:red'>Fail,<span style='color:red'>Fail,<span style='color:red'>Fail,<span style='color:red'>Fail,<span style='color:green'>Lift,<span style='color:red'>Fail,<span style='color:red'>Fail,<span style='color:green'>Lift","<span style='color:red'>Fail,<span style='color:red'>Fail,<span style='color:green'>Lift,<span style='color:green'>Lift,<span style='color:green'>Lift,<span style='color:green'>Lift,<span style='color:green'>Lift,<span style='color:red'>Fail,<span style='color:green'>Lift,<span style='color:green'>Lift,<span style='color:red'>Fail,<span style='color:green'>Lift","<span style='color:red'>Fail,<span style='color:green'>Lift,<span style='color:green'>Lift,<span style='color:red'>Fail,<span style='color:green'>Lift,<span style='color:green'>Lift","0,0,1,1,0,0,0,0,1,0,0,1","0,0,1,1,1,1,1,0,1,1,0,1","0,1,1,0,1,1",10,20,20,"","","","","{""box1"":""5"",""box2"":""8"",""box3"":""70"",""box4"":""30""}","",6,"round3_lift",5,6,3,5,8,70,30,1,1,20,NA,NA,NA,NA,NA,NA,NA,NA,NA,NA,NA,NA,NA,NA,NA,NA,NA,NA,NA,NA,NA,NA,5,8,1,1,20,70,30,"",NA,NA,NA,NA,NA,NA,NA,NA,NA,2025-11-21 02:35:48
"262964.40000003576","https://psyc-201.github.io/xiang2023/exp/index1.html?PROLIFIC_PID=REDACTED&STUDY_ID=691f8ca61c6b4dcbb0aeb5f4&SESSION_ID=691fcacd0173cfd9640f886c","survey-text",43,1315273,"0.0-361.0","H/EcZQCu7wXiOaWPM5fkqI67FK4Kpr3Y8YisjpfjHMlccfZj1K7MIwYyZqif2Za5cVa3RabZQPNiqKF9ozBTO0xZL8Hp3cZRCQI6Jg2b9G0wMIHD8VhX3WNfoGIBEtqUKZmywpphauGD/DS/wQTxWomndD+eywQi1LbXNBrQ5t/Ofbrp9TGcRqotbCbdPyYuL7kfo7r6o2poedfXlk7ejiVIoMXEK92BBYxppd27Qi3MnP70fz/J+9MeTC2Eg1QTJ54MHphhtwfSXXRFEILwxHnbPeTQyY//PhecTp5lqniUezy8XB2w1WIUbk+ezO5rnqYYxdOKVphCkpQCYaMtIw==","691f8ca61c6b4dcbb0aeb5f4","691fcacd0173cfd9640f886c","index1","<span style='color:red'>Fail,<span style='color:red'>Fail,<span style='color:green'>Lift,<span style='color:green'>Lift,<span style='color:red'>Fail,<span style='color:red'>Fail,<span style='color:red'>Fail,<span style='color:red'>Fail,<span style='color:green'>Lift,<span style='color:red'>Fail,<span style='color:red'>Fail,<span style='color:green'>Lift","<span style='color:red'>Fail,<span style='color:red'>Fail,<span style='color:green'>Lift,<span style='color:green'>Lift,<span style='color:green'>Lift,<span style='color:green'>Lift,<span style='color:green'>Lift,<span style='color:red'>Fail,<span style='color:green'>Lift,<span style='color:green'>Lift,<span style='color:red'>Fail,<span style='color:green'>Lift","<span style='color:red'>Fail,<span style='color:green'>Lift,<span style='color:green'>Lift,<span style='color:red'>Fail,<span style='color:green'>Lift,<span style='color:green'>Lift","0,0,1,1,0,0,0,0,1,0,0,1","0,0,1,1,1,1,1,0,1,1,0,1","0,1,1,0,1,1",10,20,20,"","","","","{""Q0"":""The task that I just completed was a task where I had to guess how strong the contestants were that I was presented with and I also had to predict how likely I thought the contestants were to lift boxes. ""}","",NA,"",NA,NA,NA,NA,NA,NA,NA,NA,NA,NA,NA,NA,NA,NA,NA,NA,NA,NA,NA,NA,NA,NA,NA,NA,NA,NA,NA,NA,NA,NA,NA,NA,NA,NA,NA,NA,NA,NA,NA,"",NA,NA,NA,NA,NA,NA,NA,NA,NA,2025-11-21 02:35:48
"6374.800000011921","https://psyc-201.github.io/xiang2023/exp/index1.html?PROLIFIC_PID=REDACTED&STUDY_ID=691f8ca61c6b4dcbb0aeb5f4&SESSION_ID=691fcacd0173cfd9640f886c","survey-text",44,1321649,"0.0-362.0","H/EcZQCu7wXiOaWPM5fkqI67FK4Kpr3Y8YisjpfjHMlccfZj1K7MIwYyZqif2Za5cVa3RabZQPNiqKF9ozBTO0xZL8Hp3cZRCQI6Jg2b9G0wMIHD8VhX3WNfoGIBEtqUKZmywpphauGD/DS/wQTxWomndD+eywQi1LbXNBrQ5t/Ofbrp9TGcRqotbCbdPyYuL7kfo7r6o2poedfXlk7ejiVIoMXEK92BBYxppd27Qi3MnP70fz/J+9MeTC2Eg1QTJ54MHphhtwfSXXRFEILwxHnbPeTQyY//PhecTp5lqniUezy8XB2w1WIUbk+ezO5rnqYYxdOKVphCkpQCYaMtIw==","691f8ca61c6b4dcbb0aeb5f4","691fcacd0173cfd9640f886c","index1","<span style='color:red'>Fail,<span style='color:red'>Fail,<span style='color:green'>Lift,<span style='color:green'>Lift,<span style='color:red'>Fail,<span style='color:red'>Fail,<span style='color:red'>Fail,<span style='color:red'>Fail,<span style='color:green'>Lift,<span style='color:red'>Fail,<span style='color:red'>Fail,<span style='color:green'>Lift","<span style='color:red'>Fail,<span style='color:red'>Fail,<span style='color:green'>Lift,<span style='color:green'>Lift,<span style='color:green'>Lift,<span style='color:green'>Lift,<span style='color:green'>Lift,<span style='color:red'>Fail,<span style='color:green'>Lift,<span style='color:green'>Lift,<span style='color:red'>Fail,<span style='color:green'>Lift","<span style='color:red'>Fail,<span style='color:green'>Lift,<span style='color:green'>Lift,<span style='color:red'>Fail,<span style='color:green'>Lift,<span style='color:green'>Lift","0,0,1,1,0,0,0,0,1,0,0,1","0,0,1,1,1,1,1,0,1,1,0,1","0,1,1,0,1,1",10,20,20,"","","","","{""Q0"":""""}","",NA,"",NA,NA,NA,NA,NA,NA,NA,NA,NA,NA,NA,NA,NA,NA,NA,NA,NA,NA,NA,NA,NA,NA,NA,NA,NA,NA,NA,NA,NA,NA,NA,NA,NA,NA,NA,NA,NA,NA,NA,"[{""event"":""fullscreenenter"",""trial"":1,""time"":12882}]",4,2,0,15,1,0.15,NA,NA,NA,2025-11-21 02:35:48
"5830.100000023842","https://psyc-201.github.io/xiang2023/exp/index1.html?PROLIFIC_PID=REDACTED&STUDY_ID=691f8ca61c6b4dcbb0aeb5f4&SESSION_ID=691fcacd0173cfd9640f886c","html-button-response",45,1327481,"0.0-363.0","H/EcZQCu7wXiOaWPM5fkqI67FK4Kpr3Y8YisjpfjHMlccfZj1K7MIwYyZqif2Za5cVa3RabZQPNiqKF9ozBTO0xZL8Hp3cZRCQI6Jg2b9G0wMIHD8VhX3WNfoGIBEtqUKZmywpphauGD/DS/wQTxWomndD+eywQi1LbXNBrQ5t/Ofbrp9TGcRqotbCbdPyYuL7kfo7r6o2poedfXlk7ejiVIoMXEK92BBYxppd27Qi3MnP70fz/J+9MeTC2Eg1QTJ54MHphhtwfSXXRFEILwxHnbPeTQyY//PhecTp5lqniUezy8XB2w1WIUbk+ezO5rnqYYxdOKVphCkpQCYaMtIw==","691f8ca61c6b4dcbb0aeb5f4","691fcacd0173cfd9640f886c","index1","<span style='color:red'>Fail,<span style='color:red'>Fail,<span style='color:green'>Lift,<span style='color:green'>Lift,<span style='color:red'>Fail,<span style='color:red'>Fail,<span style='color:red'>Fail,<span style='color:red'>Fail,<span style='color:green'>Lift,<span style='color:red'>Fail,<span style='color:red'>Fail,<span style='color:green'>Lift","<span style='color:red'>Fail,<span style='color:red'>Fail,<span style='color:green'>Lift,<span style='color:green'>Lift,<span style='color:green'>Lift,<span style='color:green'>Lift,<span style='color:green'>Lift,<span style='color:red'>Fail,<span style='color:green'>Lift,<span style='color:green'>Lift,<span style='color:red'>Fail,<span style='color:green'>Lift","<span style='color:red'>Fail,<span style='color:green'>Lift,<span style='color:green'>Lift,<span style='color:red'>Fail,<span style='color:green'>Lift,<span style='color:green'>Lift","0,0,1,1,0,0,0,0,1,0,0,1","0,0,1,1,1,1,1,0,1,1,0,1","0,1,1,0,1,1",10,20,20,"","","<p> We randomly picked <b>Contest 4, Round 2</b> to calculate your bonus. </p><p> The outcome of Contestant G on that round is <span style='color:green'>Lift</span>. </p><p> The probability you entered was 15. </p><p><b> You won a bonus of $0.15!</b></p><p> IMPORTANT: Please click 'Next' to complete the game.</p>","","","",NA,"",NA,NA,NA,NA,NA,NA,NA,NA,NA,NA,NA,NA,NA,NA,NA,NA,NA,NA,NA,NA,NA,NA,NA,NA,NA,NA,NA,NA,NA,NA,NA,NA,NA,NA,NA,NA,NA,NA,NA,"",NA,NA,NA,NA,NA,NA,0,2,1,2025-11-21 02:35:48
