"rt","url","trial_type","trial_index","time_elapsed","internal_node_id","encryptedProlificId","studyId","sessionId","expIndex","round1_outcomes","round2_outcomes","round3_outcomes","round1_o","round2_o","round3_o","round1_reward","round2_reward","round3_reward","success","view_history","stimulus","key_press","responses","question_order","button_pressed","j","Stage","stage","contest","round","strength_a","strength_b","effort_a","effort_b","outcome_a","outcome_b","reward","r1_strength_a","r1_strength_b","r1_effort_a","r1_effort_b","r1_outcome_a","r1_outcome_b","r1_reward","probability_a","probability_b","r2_prob_a","r2_prob_b","r2_strength_a","r2_strength_b","r2_effort_a","r2_effort_b","r2_outcome_a","r2_outcome_b","r2_reward","r3_prob_a","r3_prob_b","attention_check","count","r3_strength_a","r3_strength_b","r3_outcome_a","r3_outcome_b","r3_reward","already","r3_effort_a","r3_effort_b","screen","pick_contest","pick_round","pick_side","trial_probability","trial_outcome","bonus","attention_sum","attention","datapipe_meta.attributes.date_modified"
"63586.59999999404","https://psyc-201.github.io/xiang2023/exp/index1.html?PROLIFIC_PID=REDACTED&STUDY_ID=691f8ca61c6b4dcbb0aeb5f4&SESSION_ID=691fb4b68e64fa45c001fc0f","external-html",0,64085,"0.0-0.0","KpJ2lE5gz+XSgx9BcRZCMy9dnxnX9BPLecM0g/Qf7fi88MJhB5jGJPC3clfaQupn0nhvif4p+I0tXyupli+eROICN189kSB4nyV/go/ojtlkHK/UFDoU7w5BurRr5x6DdHZBIBa/jzpYsqVGdxwJefiiYMP8xXpe50kLZD37kB8YXBBwVy4ORAlJcIIiOTteJMEW0iLGe8hk2jmxWne1HIDeX1aM86H208Td4gpqQSz2LXADJ4Uq8tnbqFQoa5+rw5Sjt+uX6StNFNOgHmw90OTSZiumknjfYxUu1GSDX8AauOR/+7hIMXkeEK+lw/bonHx1eYevYv5VnHL1v32DnA==","691f8ca61c6b4dcbb0aeb5f4","691fb4b68e64fa45c001fc0f","index1","<span style='color:red'>Fail,<span style='color:red'>Fail,<span style='color:green'>Lift,<span style='color:green'>Lift,<span style='color:red'>Fail,<span style='color:red'>Fail,<span style='color:red'>Fail,<span style='color:red'>Fail,<span style='color:green'>Lift,<span style='color:red'>Fail,<span style='color:green'>Lift,<span style='color:red'>Fail","<span style='color:red'>Fail,<span style='color:red'>Fail,<span style='color:green'>Lift,<span style='color:green'>Lift,<span style='color:green'>Lift,<span style='color:green'>Lift,<span style='color:red'>Fail,<span style='color:green'>Lift,<span style='color:green'>Lift,<span style='color:green'>Lift,<span style='color:green'>Lift,<span style='color:red'>Fail","<span style='color:red'>Fail,<span style='color:green'>Lift,<span style='color:green'>Lift,<span style='color:red'>Fail,<span style='color:green'>Lift,<span style='color:green'>Lift","0,0,1,1,0,0,0,0,1,0,1,0","0,0,1,1,1,1,0,1,1,1,1,0","0,1,1,0,1,1",10,20,20,"","","","","","",NA,NA,"",NA,NA,NA,NA,NA,NA,NA,NA,NA,NA,NA,NA,NA,NA,NA,NA,NA,NA,NA,NA,NA,NA,NA,NA,NA,NA,NA,NA,NA,NA,NA,NA,NA,NA,NA,NA,NA,NA,NA,NA,"",NA,NA,NA,NA,NA,NA,NA,NA,2025-11-21 01:00:27
"","https://psyc-201.github.io/xiang2023/exp/index1.html?PROLIFIC_PID=REDACTED&STUDY_ID=691f8ca61c6b4dcbb0aeb5f4&SESSION_ID=691fb4b68e64fa45c001fc0f","fullscreen",1,75426,"0.0-1.0","KpJ2lE5gz+XSgx9BcRZCMy9dnxnX9BPLecM0g/Qf7fi88MJhB5jGJPC3clfaQupn0nhvif4p+I0tXyupli+eROICN189kSB4nyV/go/ojtlkHK/UFDoU7w5BurRr5x6DdHZBIBa/jzpYsqVGdxwJefiiYMP8xXpe50kLZD37kB8YXBBwVy4ORAlJcIIiOTteJMEW0iLGe8hk2jmxWne1HIDeX1aM86H208Td4gpqQSz2LXADJ4Uq8tnbqFQoa5+rw5Sjt+uX6StNFNOgHmw90OTSZiumknjfYxUu1GSDX8AauOR/+7hIMXkeEK+lw/bonHx1eYevYv5VnHL1v32DnA==","691f8ca61c6b4dcbb0aeb5f4","691fb4b68e64fa45c001fc0f","index1","<span style='color:red'>Fail,<span style='color:red'>Fail,<span style='color:green'>Lift,<span style='color:green'>Lift,<span style='color:red'>Fail,<span style='color:red'>Fail,<span style='color:red'>Fail,<span style='color:red'>Fail,<span style='color:green'>Lift,<span style='color:red'>Fail,<span style='color:green'>Lift,<span style='color:red'>Fail","<span style='color:red'>Fail,<span style='color:red'>Fail,<span style='color:green'>Lift,<span style='color:green'>Lift,<span style='color:green'>Lift,<span style='color:green'>Lift,<span style='color:red'>Fail,<span style='color:green'>Lift,<span style='color:green'>Lift,<span style='color:green'>Lift,<span style='color:green'>Lift,<span style='color:red'>Fail","<span style='color:red'>Fail,<span style='color:green'>Lift,<span style='color:green'>Lift,<span style='color:red'>Fail,<span style='color:green'>Lift,<span style='color:green'>Lift","0,0,1,1,0,0,0,0,1,0,1,0","0,0,1,1,1,1,0,1,1,1,1,0","0,1,1,0,1,1",10,20,20,"true","","","","","",NA,NA,"",NA,NA,NA,NA,NA,NA,NA,NA,NA,NA,NA,NA,NA,NA,NA,NA,NA,NA,NA,NA,NA,NA,NA,NA,NA,NA,NA,NA,NA,NA,NA,NA,NA,NA,NA,NA,NA,NA,NA,NA,"",NA,NA,NA,NA,NA,NA,NA,NA,2025-11-21 01:00:27
"257601.10000002384","https://psyc-201.github.io/xiang2023/exp/index1.html?PROLIFIC_PID=REDACTED&STUDY_ID=691f8ca61c6b4dcbb0aeb5f4&SESSION_ID=691fb4b68e64fa45c001fc0f","instructions",2,333029,"0.0-2.0","KpJ2lE5gz+XSgx9BcRZCMy9dnxnX9BPLecM0g/Qf7fi88MJhB5jGJPC3clfaQupn0nhvif4p+I0tXyupli+eROICN189kSB4nyV/go/ojtlkHK/UFDoU7w5BurRr5x6DdHZBIBa/jzpYsqVGdxwJefiiYMP8xXpe50kLZD37kB8YXBBwVy4ORAlJcIIiOTteJMEW0iLGe8hk2jmxWne1HIDeX1aM86H208Td4gpqQSz2LXADJ4Uq8tnbqFQoa5+rw5Sjt+uX6StNFNOgHmw90OTSZiumknjfYxUu1GSDX8AauOR/+7hIMXkeEK+lw/bonHx1eYevYv5VnHL1v32DnA==","691f8ca61c6b4dcbb0aeb5f4","691fb4b68e64fa45c001fc0f","index1","<span style='color:red'>Fail,<span style='color:red'>Fail,<span style='color:green'>Lift,<span style='color:green'>Lift,<span style='color:red'>Fail,<span style='color:red'>Fail,<span style='color:red'>Fail,<span style='color:red'>Fail,<span style='color:green'>Lift,<span style='color:red'>Fail,<span style='color:green'>Lift,<span style='color:red'>Fail","<span style='color:red'>Fail,<span style='color:red'>Fail,<span style='color:green'>Lift,<span style='color:green'>Lift,<span style='color:green'>Lift,<span style='color:green'>Lift,<span style='color:red'>Fail,<span style='color:green'>Lift,<span style='color:green'>Lift,<span style='color:green'>Lift,<span style='color:green'>Lift,<span style='color:red'>Fail","<span style='color:red'>Fail,<span style='color:green'>Lift,<span style='color:green'>Lift,<span style='color:red'>Fail,<span style='color:green'>Lift,<span style='color:green'>Lift","0,0,1,1,0,0,0,0,1,0,1,0","0,0,1,1,1,1,0,1,1,1,1,0","0,1,1,0,1,1",10,20,20,"","[{""page_index"":0,""viewing_time"":49820.5},{""page_index"":1,""viewing_time"":66096.60000002384},{""page_index"":2,""viewing_time"":18144.5},{""page_index"":3,""viewing_time"":35816.59999999404},{""page_index"":4,""viewing_time"":36936.09999999404},{""page_index"":5,""viewing_time"":33742.59999999404},{""page_index"":6,""viewing_time"":17043.09999999404}]","","","","",NA,NA,"",NA,NA,NA,NA,NA,NA,NA,NA,NA,NA,NA,NA,NA,NA,NA,NA,NA,NA,NA,NA,NA,NA,NA,NA,NA,NA,NA,NA,NA,NA,NA,NA,NA,NA,NA,NA,NA,NA,NA,NA,"",NA,NA,NA,NA,NA,NA,NA,NA,2025-11-21 01:00:27
"null","https://psyc-201.github.io/xiang2023/exp/index1.html?PROLIFIC_PID=REDACTED&STUDY_ID=691f8ca61c6b4dcbb0aeb5f4&SESSION_ID=691fb4b68e64fa45c001fc0f","html-keyboard-response",3,334038,"0.0-3.0","KpJ2lE5gz+XSgx9BcRZCMy9dnxnX9BPLecM0g/Qf7fi88MJhB5jGJPC3clfaQupn0nhvif4p+I0tXyupli+eROICN189kSB4nyV/go/ojtlkHK/UFDoU7w5BurRr5x6DdHZBIBa/jzpYsqVGdxwJefiiYMP8xXpe50kLZD37kB8YXBBwVy4ORAlJcIIiOTteJMEW0iLGe8hk2jmxWne1HIDeX1aM86H208Td4gpqQSz2LXADJ4Uq8tnbqFQoa5+rw5Sjt+uX6StNFNOgHmw90OTSZiumknjfYxUu1GSDX8AauOR/+7hIMXkeEK+lw/bonHx1eYevYv5VnHL1v32DnA==","691f8ca61c6b4dcbb0aeb5f4","691fb4b68e64fa45c001fc0f","index1","<span style='color:red'>Fail,<span style='color:red'>Fail,<span style='color:green'>Lift,<span style='color:green'>Lift,<span style='color:red'>Fail,<span style='color:red'>Fail,<span style='color:red'>Fail,<span style='color:red'>Fail,<span style='color:green'>Lift,<span style='color:red'>Fail,<span style='color:green'>Lift,<span style='color:red'>Fail","<span style='color:red'>Fail,<span style='color:red'>Fail,<span style='color:green'>Lift,<span style='color:green'>Lift,<span style='color:green'>Lift,<span style='color:green'>Lift,<span style='color:red'>Fail,<span style='color:green'>Lift,<span style='color:green'>Lift,<span style='color:green'>Lift,<span style='color:green'>Lift,<span style='color:red'>Fail","<span style='color:red'>Fail,<span style='color:green'>Lift,<span style='color:green'>Lift,<span style='color:red'>Fail,<span style='color:green'>Lift,<span style='color:green'>Lift","0,0,1,1,0,0,0,0,1,0,1,0","0,0,1,1,1,1,0,1,1,1,1,0","0,1,1,0,1,1",10,20,20,"",""," ","null","","",NA,NA,"",NA,NA,NA,NA,NA,NA,NA,NA,NA,NA,NA,NA,NA,NA,NA,NA,NA,NA,NA,NA,NA,NA,NA,NA,NA,NA,NA,NA,NA,NA,NA,NA,NA,NA,NA,NA,NA,NA,NA,NA,"",NA,NA,NA,NA,NA,NA,NA,NA,2025-11-21 01:00:27
"60397.40000000596","https://psyc-201.github.io/xiang2023/exp/index1.html?PROLIFIC_PID=REDACTED&STUDY_ID=691f8ca61c6b4dcbb0aeb5f4&SESSION_ID=691fb4b68e64fa45c001fc0f","survey-multi-choice",4,394440,"0.0-4.0","KpJ2lE5gz+XSgx9BcRZCMy9dnxnX9BPLecM0g/Qf7fi88MJhB5jGJPC3clfaQupn0nhvif4p+I0tXyupli+eROICN189kSB4nyV/go/ojtlkHK/UFDoU7w5BurRr5x6DdHZBIBa/jzpYsqVGdxwJefiiYMP8xXpe50kLZD37kB8YXBBwVy4ORAlJcIIiOTteJMEW0iLGe8hk2jmxWne1HIDeX1aM86H208Td4gpqQSz2LXADJ4Uq8tnbqFQoa5+rw5Sjt+uX6StNFNOgHmw90OTSZiumknjfYxUu1GSDX8AauOR/+7hIMXkeEK+lw/bonHx1eYevYv5VnHL1v32DnA==","691f8ca61c6b4dcbb0aeb5f4","691fb4b68e64fa45c001fc0f","index1","<span style='color:red'>Fail,<span style='color:red'>Fail,<span style='color:green'>Lift,<span style='color:green'>Lift,<span style='color:red'>Fail,<span style='color:red'>Fail,<span style='color:red'>Fail,<span style='color:red'>Fail,<span style='color:green'>Lift,<span style='color:red'>Fail,<span style='color:green'>Lift,<span style='color:red'>Fail","<span style='color:red'>Fail,<span style='color:red'>Fail,<span style='color:green'>Lift,<span style='color:green'>Lift,<span style='color:green'>Lift,<span style='color:green'>Lift,<span style='color:red'>Fail,<span style='color:green'>Lift,<span style='color:green'>Lift,<span style='color:green'>Lift,<span style='color:green'>Lift,<span style='color:red'>Fail","<span style='color:red'>Fail,<span style='color:green'>Lift,<span style='color:green'>Lift,<span style='color:red'>Fail,<span style='color:green'>Lift,<span style='color:green'>Lift","0,0,1,1,0,0,0,0,1,0,1,0","0,0,1,1,1,1,0,1,1,1,1,0","0,1,1,0,1,1",10,20,20,"","","","","{""Q0"":""It consists of multiple contests, each contest with three rounds."",""Q1"":""Contestants are always the same across contests."",""Q2"":""The box weight changes according to the reward on the box; the higher the reward, the heavier the box."",""Q3"":""Each will get $20."",""Q4"":""How close my guesses are to the actual outcome.""}","[0,1,2,3,4]",NA,NA,"",NA,NA,NA,NA,NA,NA,NA,NA,NA,NA,NA,NA,NA,NA,NA,NA,NA,NA,NA,NA,NA,NA,NA,NA,NA,NA,NA,NA,NA,NA,NA,NA,NA,NA,NA,NA,NA,NA,NA,NA,"",NA,NA,NA,NA,NA,NA,NA,NA,2025-11-21 01:00:27
"6599.699999988079","https://psyc-201.github.io/xiang2023/exp/index1.html?PROLIFIC_PID=REDACTED&STUDY_ID=691f8ca61c6b4dcbb0aeb5f4&SESSION_ID=691fb4b68e64fa45c001fc0f","html-button-response",5,401044,"0.0-5.0-1.0","KpJ2lE5gz+XSgx9BcRZCMy9dnxnX9BPLecM0g/Qf7fi88MJhB5jGJPC3clfaQupn0nhvif4p+I0tXyupli+eROICN189kSB4nyV/go/ojtlkHK/UFDoU7w5BurRr5x6DdHZBIBa/jzpYsqVGdxwJefiiYMP8xXpe50kLZD37kB8YXBBwVy4ORAlJcIIiOTteJMEW0iLGe8hk2jmxWne1HIDeX1aM86H208Td4gpqQSz2LXADJ4Uq8tnbqFQoa5+rw5Sjt+uX6StNFNOgHmw90OTSZiumknjfYxUu1GSDX8AauOR/+7hIMXkeEK+lw/bonHx1eYevYv5VnHL1v32DnA==","691f8ca61c6b4dcbb0aeb5f4","691fb4b68e64fa45c001fc0f","index1","<span style='color:red'>Fail,<span style='color:red'>Fail,<span style='color:green'>Lift,<span style='color:green'>Lift,<span style='color:red'>Fail,<span style='color:red'>Fail,<span style='color:red'>Fail,<span style='color:red'>Fail,<span style='color:green'>Lift,<span style='color:red'>Fail,<span style='color:green'>Lift,<span style='color:red'>Fail","<span style='color:red'>Fail,<span style='color:red'>Fail,<span style='color:green'>Lift,<span style='color:green'>Lift,<span style='color:green'>Lift,<span style='color:green'>Lift,<span style='color:red'>Fail,<span style='color:green'>Lift,<span style='color:green'>Lift,<span style='color:green'>Lift,<span style='color:green'>Lift,<span style='color:red'>Fail","<span style='color:red'>Fail,<span style='color:green'>Lift,<span style='color:green'>Lift,<span style='color:red'>Fail,<span style='color:green'>Lift,<span style='color:green'>Lift","0,0,1,1,0,0,0,0,1,0,1,0","0,0,1,1,1,1,0,1,1,1,1,0","0,1,1,0,1,1",10,20,20,"","","<p> Oops! You did not pass the comprehension check. <b>Please note that you have only 1 attempt(s) left.</b> </p>","","","",1,NA,"",NA,NA,NA,NA,NA,NA,NA,NA,NA,NA,NA,NA,NA,NA,NA,NA,NA,NA,NA,NA,NA,NA,NA,NA,NA,NA,NA,NA,NA,NA,NA,NA,NA,NA,NA,NA,NA,NA,NA,NA,"",NA,NA,NA,NA,NA,NA,NA,NA,2025-11-21 01:00:27
"79182.90000000596","https://psyc-201.github.io/xiang2023/exp/index1.html?PROLIFIC_PID=REDACTED&STUDY_ID=691f8ca61c6b4dcbb0aeb5f4&SESSION_ID=691fb4b68e64fa45c001fc0f","instructions",6,480229,"0.0-6.0-0.0","KpJ2lE5gz+XSgx9BcRZCMy9dnxnX9BPLecM0g/Qf7fi88MJhB5jGJPC3clfaQupn0nhvif4p+I0tXyupli+eROICN189kSB4nyV/go/ojtlkHK/UFDoU7w5BurRr5x6DdHZBIBa/jzpYsqVGdxwJefiiYMP8xXpe50kLZD37kB8YXBBwVy4ORAlJcIIiOTteJMEW0iLGe8hk2jmxWne1HIDeX1aM86H208Td4gpqQSz2LXADJ4Uq8tnbqFQoa5+rw5Sjt+uX6StNFNOgHmw90OTSZiumknjfYxUu1GSDX8AauOR/+7hIMXkeEK+lw/bonHx1eYevYv5VnHL1v32DnA==","691f8ca61c6b4dcbb0aeb5f4","691fb4b68e64fa45c001fc0f","index1","<span style='color:red'>Fail,<span style='color:red'>Fail,<span style='color:green'>Lift,<span style='color:green'>Lift,<span style='color:red'>Fail,<span style='color:red'>Fail,<span style='color:red'>Fail,<span style='color:red'>Fail,<span style='color:green'>Lift,<span style='color:red'>Fail,<span style='color:green'>Lift,<span style='color:red'>Fail","<span style='color:red'>Fail,<span style='color:red'>Fail,<span style='color:green'>Lift,<span style='color:green'>Lift,<span style='color:green'>Lift,<span style='color:green'>Lift,<span style='color:red'>Fail,<span style='color:green'>Lift,<span style='color:green'>Lift,<span style='color:green'>Lift,<span style='color:green'>Lift,<span style='color:red'>Fail","<span style='color:red'>Fail,<span style='color:green'>Lift,<span style='color:green'>Lift,<span style='color:red'>Fail,<span style='color:green'>Lift,<span style='color:green'>Lift","0,0,1,1,0,0,0,0,1,0,1,0","0,0,1,1,1,1,0,1,1,1,1,0","0,1,1,0,1,1",10,20,20,"","[{""page_index"":0,""viewing_time"":27830.40000000596},{""page_index"":1,""viewing_time"":5180.0999999940395},{""page_index"":2,""viewing_time"":3793.9000000059605},{""page_index"":3,""viewing_time"":23334.5},{""page_index"":4,""viewing_time"":7681.0999999940395},{""page_index"":5,""viewing_time"":6012.799999982119},{""page_index"":6,""viewing_time"":5349.5}]","","","","",NA,NA,"",NA,NA,NA,NA,NA,NA,NA,NA,NA,NA,NA,NA,NA,NA,NA,NA,NA,NA,NA,NA,NA,NA,NA,NA,NA,NA,NA,NA,NA,NA,NA,NA,NA,NA,NA,NA,NA,NA,NA,NA,"",NA,NA,NA,NA,NA,NA,NA,NA,2025-11-21 01:00:27
"null","https://psyc-201.github.io/xiang2023/exp/index1.html?PROLIFIC_PID=REDACTED&STUDY_ID=691f8ca61c6b4dcbb0aeb5f4&SESSION_ID=691fb4b68e64fa45c001fc0f","html-keyboard-response",7,481241,"0.0-6.0-1.0","KpJ2lE5gz+XSgx9BcRZCMy9dnxnX9BPLecM0g/Qf7fi88MJhB5jGJPC3clfaQupn0nhvif4p+I0tXyupli+eROICN189kSB4nyV/go/ojtlkHK/UFDoU7w5BurRr5x6DdHZBIBa/jzpYsqVGdxwJefiiYMP8xXpe50kLZD37kB8YXBBwVy4ORAlJcIIiOTteJMEW0iLGe8hk2jmxWne1HIDeX1aM86H208Td4gpqQSz2LXADJ4Uq8tnbqFQoa5+rw5Sjt+uX6StNFNOgHmw90OTSZiumknjfYxUu1GSDX8AauOR/+7hIMXkeEK+lw/bonHx1eYevYv5VnHL1v32DnA==","691f8ca61c6b4dcbb0aeb5f4","691fb4b68e64fa45c001fc0f","index1","<span style='color:red'>Fail,<span style='color:red'>Fail,<span style='color:green'>Lift,<span style='color:green'>Lift,<span style='color:red'>Fail,<span style='color:red'>Fail,<span style='color:red'>Fail,<span style='color:red'>Fail,<span style='color:green'>Lift,<span style='color:red'>Fail,<span style='color:green'>Lift,<span style='color:red'>Fail","<span style='color:red'>Fail,<span style='color:red'>Fail,<span style='color:green'>Lift,<span style='color:green'>Lift,<span style='color:green'>Lift,<span style='color:green'>Lift,<span style='color:red'>Fail,<span style='color:green'>Lift,<span style='color:green'>Lift,<span style='color:green'>Lift,<span style='color:green'>Lift,<span style='color:red'>Fail","<span style='color:red'>Fail,<span style='color:green'>Lift,<span style='color:green'>Lift,<span style='color:red'>Fail,<span style='color:green'>Lift,<span style='color:green'>Lift","0,0,1,1,0,0,0,0,1,0,1,0","0,0,1,1,1,1,0,1,1,1,1,0","0,1,1,0,1,1",10,20,20,"",""," ","null","","",NA,NA,"",NA,NA,NA,NA,NA,NA,NA,NA,NA,NA,NA,NA,NA,NA,NA,NA,NA,NA,NA,NA,NA,NA,NA,NA,NA,NA,NA,NA,NA,NA,NA,NA,NA,NA,NA,NA,NA,NA,NA,NA,"",NA,NA,NA,NA,NA,NA,NA,NA,2025-11-21 01:00:27
"118415.19999998808","https://psyc-201.github.io/xiang2023/exp/index1.html?PROLIFIC_PID=REDACTED&STUDY_ID=691f8ca61c6b4dcbb0aeb5f4&SESSION_ID=691fb4b68e64fa45c001fc0f","survey-multi-choice",8,599660,"0.0-7.0-0.0","KpJ2lE5gz+XSgx9BcRZCMy9dnxnX9BPLecM0g/Qf7fi88MJhB5jGJPC3clfaQupn0nhvif4p+I0tXyupli+eROICN189kSB4nyV/go/ojtlkHK/UFDoU7w5BurRr5x6DdHZBIBa/jzpYsqVGdxwJefiiYMP8xXpe50kLZD37kB8YXBBwVy4ORAlJcIIiOTteJMEW0iLGe8hk2jmxWne1HIDeX1aM86H208Td4gpqQSz2LXADJ4Uq8tnbqFQoa5+rw5Sjt+uX6StNFNOgHmw90OTSZiumknjfYxUu1GSDX8AauOR/+7hIMXkeEK+lw/bonHx1eYevYv5VnHL1v32DnA==","691f8ca61c6b4dcbb0aeb5f4","691fb4b68e64fa45c001fc0f","index1","<span style='color:red'>Fail,<span style='color:red'>Fail,<span style='color:green'>Lift,<span style='color:green'>Lift,<span style='color:red'>Fail,<span style='color:red'>Fail,<span style='color:red'>Fail,<span style='color:red'>Fail,<span style='color:green'>Lift,<span style='color:red'>Fail,<span style='color:green'>Lift,<span style='color:red'>Fail","<span style='color:red'>Fail,<span style='color:red'>Fail,<span style='color:green'>Lift,<span style='color:green'>Lift,<span style='color:green'>Lift,<span style='color:green'>Lift,<span style='color:red'>Fail,<span style='color:green'>Lift,<span style='color:green'>Lift,<span style='color:green'>Lift,<span style='color:green'>Lift,<span style='color:red'>Fail","<span style='color:red'>Fail,<span style='color:green'>Lift,<span style='color:green'>Lift,<span style='color:red'>Fail,<span style='color:green'>Lift,<span style='color:green'>Lift","0,0,1,1,0,0,0,0,1,0,1,0","0,0,1,1,1,1,0,1,1,1,1,0","0,1,1,0,1,1",10,20,20,"","","","","{""Q0"":""It consists of multiple contests, each contest with three rounds."",""Q1"":""When a new contest begins."",""Q2"":""The box weight always stays the same (equivalent to strength of 5)."",""Q3"":""Each will get $20."",""Q4"":""How close my guesses are to the actual outcome.""}","[0,1,2,3,4]",NA,NA,"",NA,NA,NA,NA,NA,NA,NA,NA,NA,NA,NA,NA,NA,NA,NA,NA,NA,NA,NA,NA,NA,NA,NA,NA,NA,NA,NA,NA,NA,NA,NA,NA,NA,NA,NA,NA,NA,NA,NA,NA,"",NA,NA,NA,NA,NA,NA,NA,NA,2025-11-21 01:00:27
"14092.59999999404","https://psyc-201.github.io/xiang2023/exp/index1.html?PROLIFIC_PID=REDACTED&STUDY_ID=691f8ca61c6b4dcbb0aeb5f4&SESSION_ID=691fb4b68e64fa45c001fc0f","instructions",9,613763,"0.0-305.0","KpJ2lE5gz+XSgx9BcRZCMy9dnxnX9BPLecM0g/Qf7fi88MJhB5jGJPC3clfaQupn0nhvif4p+I0tXyupli+eROICN189kSB4nyV/go/ojtlkHK/UFDoU7w5BurRr5x6DdHZBIBa/jzpYsqVGdxwJefiiYMP8xXpe50kLZD37kB8YXBBwVy4ORAlJcIIiOTteJMEW0iLGe8hk2jmxWne1HIDeX1aM86H208Td4gpqQSz2LXADJ4Uq8tnbqFQoa5+rw5Sjt+uX6StNFNOgHmw90OTSZiumknjfYxUu1GSDX8AauOR/+7hIMXkeEK+lw/bonHx1eYevYv5VnHL1v32DnA==","691f8ca61c6b4dcbb0aeb5f4","691fb4b68e64fa45c001fc0f","index1","<span style='color:red'>Fail,<span style='color:red'>Fail,<span style='color:green'>Lift,<span style='color:green'>Lift,<span style='color:red'>Fail,<span style='color:red'>Fail,<span style='color:red'>Fail,<span style='color:red'>Fail,<span style='color:green'>Lift,<span style='color:red'>Fail,<span style='color:green'>Lift,<span style='color:red'>Fail","<span style='color:red'>Fail,<span style='color:red'>Fail,<span style='color:green'>Lift,<span style='color:green'>Lift,<span style='color:green'>Lift,<span style='color:green'>Lift,<span style='color:red'>Fail,<span style='color:green'>Lift,<span style='color:green'>Lift,<span style='color:green'>Lift,<span style='color:green'>Lift,<span style='color:red'>Fail","<span style='color:red'>Fail,<span style='color:green'>Lift,<span style='color:green'>Lift,<span style='color:red'>Fail,<span style='color:green'>Lift,<span style='color:green'>Lift","0,0,1,1,0,0,0,0,1,0,1,0","0,0,1,1,1,1,0,1,1,1,1,0","0,1,1,0,1,1",10,20,20,"","[{""page_index"":0,""viewing_time"":7149.5},{""page_index"":1,""viewing_time"":6942.5}]","","","","",NA,NA,"",NA,NA,NA,NA,NA,NA,NA,NA,NA,NA,NA,NA,NA,NA,NA,NA,NA,NA,NA,NA,NA,NA,NA,NA,NA,NA,NA,NA,NA,NA,NA,NA,NA,NA,NA,NA,NA,NA,NA,NA,"",NA,NA,NA,NA,NA,NA,NA,NA,2025-11-21 01:00:27
"null","https://psyc-201.github.io/xiang2023/exp/index1.html?PROLIFIC_PID=REDACTED&STUDY_ID=691f8ca61c6b4dcbb0aeb5f4&SESSION_ID=691fb4b68e64fa45c001fc0f","html-keyboard-response",10,614775,"0.0-306.0","KpJ2lE5gz+XSgx9BcRZCMy9dnxnX9BPLecM0g/Qf7fi88MJhB5jGJPC3clfaQupn0nhvif4p+I0tXyupli+eROICN189kSB4nyV/go/ojtlkHK/UFDoU7w5BurRr5x6DdHZBIBa/jzpYsqVGdxwJefiiYMP8xXpe50kLZD37kB8YXBBwVy4ORAlJcIIiOTteJMEW0iLGe8hk2jmxWne1HIDeX1aM86H208Td4gpqQSz2LXADJ4Uq8tnbqFQoa5+rw5Sjt+uX6StNFNOgHmw90OTSZiumknjfYxUu1GSDX8AauOR/+7hIMXkeEK+lw/bonHx1eYevYv5VnHL1v32DnA==","691f8ca61c6b4dcbb0aeb5f4","691fb4b68e64fa45c001fc0f","index1","<span style='color:red'>Fail,<span style='color:red'>Fail,<span style='color:green'>Lift,<span style='color:green'>Lift,<span style='color:red'>Fail,<span style='color:red'>Fail,<span style='color:red'>Fail,<span style='color:red'>Fail,<span style='color:green'>Lift,<span style='color:red'>Fail,<span style='color:green'>Lift,<span style='color:red'>Fail","<span style='color:red'>Fail,<span style='color:red'>Fail,<span style='color:green'>Lift,<span style='color:green'>Lift,<span style='color:green'>Lift,<span style='color:green'>Lift,<span style='color:red'>Fail,<span style='color:green'>Lift,<span style='color:green'>Lift,<span style='color:green'>Lift,<span style='color:green'>Lift,<span style='color:red'>Fail","<span style='color:red'>Fail,<span style='color:green'>Lift,<span style='color:green'>Lift,<span style='color:red'>Fail,<span style='color:green'>Lift,<span style='color:green'>Lift","0,0,1,1,0,0,0,0,1,0,1,0","0,0,1,1,1,1,0,1,1,1,1,0","0,1,1,0,1,1",10,20,20,"",""," ","null","","",NA,1,"",NA,NA,NA,NA,NA,NA,NA,NA,NA,NA,NA,NA,NA,NA,NA,NA,NA,NA,NA,NA,NA,NA,NA,NA,NA,NA,NA,NA,NA,NA,NA,NA,NA,NA,NA,NA,NA,NA,NA,NA,"",NA,NA,NA,NA,NA,NA,NA,NA,2025-11-21 01:00:27
"null","https://psyc-201.github.io/xiang2023/exp/index1.html?PROLIFIC_PID=REDACTED&STUDY_ID=691f8ca61c6b4dcbb0aeb5f4&SESSION_ID=691fb4b68e64fa45c001fc0f","html-keyboard-response",11,617787,"0.0-307.0","KpJ2lE5gz+XSgx9BcRZCMy9dnxnX9BPLecM0g/Qf7fi88MJhB5jGJPC3clfaQupn0nhvif4p+I0tXyupli+eROICN189kSB4nyV/go/ojtlkHK/UFDoU7w5BurRr5x6DdHZBIBa/jzpYsqVGdxwJefiiYMP8xXpe50kLZD37kB8YXBBwVy4ORAlJcIIiOTteJMEW0iLGe8hk2jmxWne1HIDeX1aM86H208Td4gpqQSz2LXADJ4Uq8tnbqFQoa5+rw5Sjt+uX6StNFNOgHmw90OTSZiumknjfYxUu1GSDX8AauOR/+7hIMXkeEK+lw/bonHx1eYevYv5VnHL1v32DnA==","691f8ca61c6b4dcbb0aeb5f4","691fb4b68e64fa45c001fc0f","index1","<span style='color:red'>Fail,<span style='color:red'>Fail,<span style='color:green'>Lift,<span style='color:green'>Lift,<span style='color:red'>Fail,<span style='color:red'>Fail,<span style='color:red'>Fail,<span style='color:red'>Fail,<span style='color:green'>Lift,<span style='color:red'>Fail,<span style='color:green'>Lift,<span style='color:red'>Fail","<span style='color:red'>Fail,<span style='color:red'>Fail,<span style='color:green'>Lift,<span style='color:green'>Lift,<span style='color:green'>Lift,<span style='color:green'>Lift,<span style='color:red'>Fail,<span style='color:green'>Lift,<span style='color:green'>Lift,<span style='color:green'>Lift,<span style='color:green'>Lift,<span style='color:red'>Fail","<span style='color:red'>Fail,<span style='color:green'>Lift,<span style='color:green'>Lift,<span style='color:red'>Fail,<span style='color:green'>Lift,<span style='color:green'>Lift","0,0,1,1,0,0,0,0,1,0,1,0","0,0,1,1,1,1,0,1,1,1,1,0","0,1,1,0,1,1",10,20,20,"","","<p style='font-size:30px'><b> New Contest! </b></p>","null","","",NA,1,"",NA,NA,NA,NA,NA,NA,NA,NA,NA,NA,NA,NA,NA,NA,NA,NA,NA,NA,NA,NA,NA,NA,NA,NA,NA,NA,NA,NA,NA,NA,NA,NA,NA,NA,NA,NA,NA,NA,NA,NA,"",NA,NA,NA,NA,NA,NA,NA,NA,2025-11-21 01:00:27
"14195","https://psyc-201.github.io/xiang2023/exp/index1.html?PROLIFIC_PID=REDACTED&STUDY_ID=691f8ca61c6b4dcbb0aeb5f4&SESSION_ID=691fb4b68e64fa45c001fc0f","survey-html-form",12,631986,"0.0-308.0","KpJ2lE5gz+XSgx9BcRZCMy9dnxnX9BPLecM0g/Qf7fi88MJhB5jGJPC3clfaQupn0nhvif4p+I0tXyupli+eROICN189kSB4nyV/go/ojtlkHK/UFDoU7w5BurRr5x6DdHZBIBa/jzpYsqVGdxwJefiiYMP8xXpe50kLZD37kB8YXBBwVy4ORAlJcIIiOTteJMEW0iLGe8hk2jmxWne1HIDeX1aM86H208Td4gpqQSz2LXADJ4Uq8tnbqFQoa5+rw5Sjt+uX6StNFNOgHmw90OTSZiumknjfYxUu1GSDX8AauOR/+7hIMXkeEK+lw/bonHx1eYevYv5VnHL1v32DnA==","691f8ca61c6b4dcbb0aeb5f4","691fb4b68e64fa45c001fc0f","index1","<span style='color:red'>Fail,<span style='color:red'>Fail,<span style='color:green'>Lift,<span style='color:green'>Lift,<span style='color:red'>Fail,<span style='color:red'>Fail,<span style='color:red'>Fail,<span style='color:red'>Fail,<span style='color:green'>Lift,<span style='color:red'>Fail,<span style='color:green'>Lift,<span style='color:red'>Fail","<span style='color:red'>Fail,<span style='color:red'>Fail,<span style='color:green'>Lift,<span style='color:green'>Lift,<span style='color:green'>Lift,<span style='color:green'>Lift,<span style='color:red'>Fail,<span style='color:green'>Lift,<span style='color:green'>Lift,<span style='color:green'>Lift,<span style='color:green'>Lift,<span style='color:red'>Fail","<span style='color:red'>Fail,<span style='color:green'>Lift,<span style='color:green'>Lift,<span style='color:red'>Fail,<span style='color:green'>Lift,<span style='color:green'>Lift","0,0,1,1,0,0,0,0,1,0,1,0","0,0,1,1,1,1,0,1,1,1,1,0","0,1,1,0,1,1",10,20,20,"","","","","{""box1"":""4"",""box2"":""6""}","",NA,1,"round1_outcome",1,1,1,4,6,NA,NA,0,0,10,4,6,NA,NA,0,0,10,NA,NA,NA,NA,NA,NA,NA,NA,NA,NA,NA,NA,NA,NA,NA,NA,NA,NA,NA,NA,NA,NA,NA,"",NA,NA,NA,NA,NA,NA,NA,NA,2025-11-21 01:00:27
"19582","https://psyc-201.github.io/xiang2023/exp/index1.html?PROLIFIC_PID=REDACTED&STUDY_ID=691f8ca61c6b4dcbb0aeb5f4&SESSION_ID=691fb4b68e64fa45c001fc0f","survey-html-form",13,651573,"0.0-309.0","KpJ2lE5gz+XSgx9BcRZCMy9dnxnX9BPLecM0g/Qf7fi88MJhB5jGJPC3clfaQupn0nhvif4p+I0tXyupli+eROICN189kSB4nyV/go/ojtlkHK/UFDoU7w5BurRr5x6DdHZBIBa/jzpYsqVGdxwJefiiYMP8xXpe50kLZD37kB8YXBBwVy4ORAlJcIIiOTteJMEW0iLGe8hk2jmxWne1HIDeX1aM86H208Td4gpqQSz2LXADJ4Uq8tnbqFQoa5+rw5Sjt+uX6StNFNOgHmw90OTSZiumknjfYxUu1GSDX8AauOR/+7hIMXkeEK+lw/bonHx1eYevYv5VnHL1v32DnA==","691f8ca61c6b4dcbb0aeb5f4","691fb4b68e64fa45c001fc0f","index1","<span style='color:red'>Fail,<span style='color:red'>Fail,<span style='color:green'>Lift,<span style='color:green'>Lift,<span style='color:red'>Fail,<span style='color:red'>Fail,<span style='color:red'>Fail,<span style='color:red'>Fail,<span style='color:green'>Lift,<span style='color:red'>Fail,<span style='color:green'>Lift,<span style='color:red'>Fail","<span style='color:red'>Fail,<span style='color:red'>Fail,<span style='color:green'>Lift,<span style='color:green'>Lift,<span style='color:green'>Lift,<span style='color:green'>Lift,<span style='color:red'>Fail,<span style='color:green'>Lift,<span style='color:green'>Lift,<span style='color:green'>Lift,<span style='color:green'>Lift,<span style='color:red'>Fail","<span style='color:red'>Fail,<span style='color:green'>Lift,<span style='color:green'>Lift,<span style='color:red'>Fail,<span style='color:green'>Lift,<span style='color:green'>Lift","0,0,1,1,0,0,0,0,1,0,1,0","0,0,1,1,1,1,0,1,1,1,1,0","0,1,1,0,1,1",10,20,20,"","","","","{""box1"":""20"",""box2"":""40""}","",NA,1,"round2_ready",2,1,2,NA,NA,NA,NA,NA,NA,NA,NA,NA,NA,NA,NA,NA,NA,20,40,20,40,NA,NA,NA,NA,NA,NA,NA,NA,NA,NA,NA,NA,NA,NA,NA,NA,NA,NA,NA,"",NA,NA,NA,NA,NA,NA,NA,NA,2025-11-21 01:00:27
"18151.5","https://psyc-201.github.io/xiang2023/exp/index1.html?PROLIFIC_PID=REDACTED&STUDY_ID=691f8ca61c6b4dcbb0aeb5f4&SESSION_ID=691fb4b68e64fa45c001fc0f","survey-html-form",14,669731,"0.0-310.0","KpJ2lE5gz+XSgx9BcRZCMy9dnxnX9BPLecM0g/Qf7fi88MJhB5jGJPC3clfaQupn0nhvif4p+I0tXyupli+eROICN189kSB4nyV/go/ojtlkHK/UFDoU7w5BurRr5x6DdHZBIBa/jzpYsqVGdxwJefiiYMP8xXpe50kLZD37kB8YXBBwVy4ORAlJcIIiOTteJMEW0iLGe8hk2jmxWne1HIDeX1aM86H208Td4gpqQSz2LXADJ4Uq8tnbqFQoa5+rw5Sjt+uX6StNFNOgHmw90OTSZiumknjfYxUu1GSDX8AauOR/+7hIMXkeEK+lw/bonHx1eYevYv5VnHL1v32DnA==","691f8ca61c6b4dcbb0aeb5f4","691fb4b68e64fa45c001fc0f","index1","<span style='color:red'>Fail,<span style='color:red'>Fail,<span style='color:green'>Lift,<span style='color:green'>Lift,<span style='color:red'>Fail,<span style='color:red'>Fail,<span style='color:red'>Fail,<span style='color:red'>Fail,<span style='color:green'>Lift,<span style='color:red'>Fail,<span style='color:green'>Lift,<span style='color:red'>Fail","<span style='color:red'>Fail,<span style='color:red'>Fail,<span style='color:green'>Lift,<span style='color:green'>Lift,<span style='color:green'>Lift,<span style='color:green'>Lift,<span style='color:red'>Fail,<span style='color:green'>Lift,<span style='color:green'>Lift,<span style='color:green'>Lift,<span style='color:green'>Lift,<span style='color:red'>Fail","<span style='color:red'>Fail,<span style='color:green'>Lift,<span style='color:green'>Lift,<span style='color:red'>Fail,<span style='color:green'>Lift,<span style='color:green'>Lift","0,0,1,1,0,0,0,0,1,0,1,0","0,0,1,1,1,1,0,1,1,1,1,0","0,1,1,0,1,1",10,20,20,"","","","","{""box1"":""5"",""box2"":""5"",""box4"":""70""}","",NA,1,"round2_outcome",3,1,2,5,5,NA,70,0,1,20,NA,NA,NA,NA,NA,NA,NA,NA,NA,NA,NA,5,5,NA,70,0,1,20,NA,NA,NA,NA,NA,NA,NA,NA,NA,NA,NA,NA,"",NA,NA,NA,NA,NA,NA,NA,NA,2025-11-21 01:00:27
"9339.5","https://psyc-201.github.io/xiang2023/exp/index1.html?PROLIFIC_PID=REDACTED&STUDY_ID=691f8ca61c6b4dcbb0aeb5f4&SESSION_ID=691fb4b68e64fa45c001fc0f","survey-html-form",15,679075,"0.0-311.0","KpJ2lE5gz+XSgx9BcRZCMy9dnxnX9BPLecM0g/Qf7fi88MJhB5jGJPC3clfaQupn0nhvif4p+I0tXyupli+eROICN189kSB4nyV/go/ojtlkHK/UFDoU7w5BurRr5x6DdHZBIBa/jzpYsqVGdxwJefiiYMP8xXpe50kLZD37kB8YXBBwVy4ORAlJcIIiOTteJMEW0iLGe8hk2jmxWne1HIDeX1aM86H208Td4gpqQSz2LXADJ4Uq8tnbqFQoa5+rw5Sjt+uX6StNFNOgHmw90OTSZiumknjfYxUu1GSDX8AauOR/+7hIMXkeEK+lw/bonHx1eYevYv5VnHL1v32DnA==","691f8ca61c6b4dcbb0aeb5f4","691fb4b68e64fa45c001fc0f","index1","<span style='color:red'>Fail,<span style='color:red'>Fail,<span style='color:green'>Lift,<span style='color:green'>Lift,<span style='color:red'>Fail,<span style='color:red'>Fail,<span style='color:red'>Fail,<span style='color:red'>Fail,<span style='color:green'>Lift,<span style='color:red'>Fail,<span style='color:green'>Lift,<span style='color:red'>Fail","<span style='color:red'>Fail,<span style='color:red'>Fail,<span style='color:green'>Lift,<span style='color:green'>Lift,<span style='color:green'>Lift,<span style='color:green'>Lift,<span style='color:red'>Fail,<span style='color:green'>Lift,<span style='color:green'>Lift,<span style='color:green'>Lift,<span style='color:green'>Lift,<span style='color:red'>Fail","<span style='color:red'>Fail,<span style='color:green'>Lift,<span style='color:green'>Lift,<span style='color:red'>Fail,<span style='color:green'>Lift,<span style='color:green'>Lift","0,0,1,1,0,0,0,0,1,0,1,0","0,0,1,1,1,1,0,1,1,1,1,0","0,1,1,0,1,1",10,20,20,"","","","","{""box1"":""80""}","",NA,1,"round3_ready",4,1,3,NA,NA,NA,NA,NA,NA,NA,NA,NA,NA,NA,NA,NA,NA,80,80,NA,NA,NA,NA,NA,NA,NA,NA,NA,80,80,NA,NA,NA,NA,NA,NA,NA,NA,NA,NA,"",NA,NA,NA,NA,NA,NA,NA,NA,2025-11-21 01:00:27
"17962","https://psyc-201.github.io/xiang2023/exp/index1.html?PROLIFIC_PID=REDACTED&STUDY_ID=691f8ca61c6b4dcbb0aeb5f4&SESSION_ID=691fb4b68e64fa45c001fc0f","survey-html-form",16,697044,"0.0-313.0-0.0","KpJ2lE5gz+XSgx9BcRZCMy9dnxnX9BPLecM0g/Qf7fi88MJhB5jGJPC3clfaQupn0nhvif4p+I0tXyupli+eROICN189kSB4nyV/go/ojtlkHK/UFDoU7w5BurRr5x6DdHZBIBa/jzpYsqVGdxwJefiiYMP8xXpe50kLZD37kB8YXBBwVy4ORAlJcIIiOTteJMEW0iLGe8hk2jmxWne1HIDeX1aM86H208Td4gpqQSz2LXADJ4Uq8tnbqFQoa5+rw5Sjt+uX6StNFNOgHmw90OTSZiumknjfYxUu1GSDX8AauOR/+7hIMXkeEK+lw/bonHx1eYevYv5VnHL1v32DnA==","691f8ca61c6b4dcbb0aeb5f4","691fb4b68e64fa45c001fc0f","index1","<span style='color:red'>Fail,<span style='color:red'>Fail,<span style='color:green'>Lift,<span style='color:green'>Lift,<span style='color:red'>Fail,<span style='color:red'>Fail,<span style='color:red'>Fail,<span style='color:red'>Fail,<span style='color:green'>Lift,<span style='color:red'>Fail,<span style='color:green'>Lift,<span style='color:red'>Fail","<span style='color:red'>Fail,<span style='color:red'>Fail,<span style='color:green'>Lift,<span style='color:green'>Lift,<span style='color:green'>Lift,<span style='color:green'>Lift,<span style='color:red'>Fail,<span style='color:green'>Lift,<span style='color:green'>Lift,<span style='color:green'>Lift,<span style='color:green'>Lift,<span style='color:red'>Fail","<span style='color:red'>Fail,<span style='color:green'>Lift,<span style='color:green'>Lift,<span style='color:red'>Fail,<span style='color:green'>Lift,<span style='color:green'>Lift","0,0,1,1,0,0,0,0,1,0,1,0","0,0,1,1,1,1,0,1,1,1,1,0","0,1,1,0,1,1",10,20,20,"","","","","{""box1"":""3"",""box2"":""7"",""box3"":""30"",""box4"":""30""}","",NA,1,"round3_fail",5,1,3,3,7,NA,NA,0,0,20,NA,NA,NA,NA,NA,NA,NA,NA,NA,NA,NA,NA,NA,NA,NA,NA,NA,NA,NA,NA,0,1,3,7,0,0,20,NA,NA,NA,"",NA,NA,NA,NA,NA,NA,NA,NA,2025-11-21 01:00:27
"null","https://psyc-201.github.io/xiang2023/exp/index1.html?PROLIFIC_PID=REDACTED&STUDY_ID=691f8ca61c6b4dcbb0aeb5f4&SESSION_ID=691fb4b68e64fa45c001fc0f","html-keyboard-response",17,702064,"0.0-314.0-0.0","KpJ2lE5gz+XSgx9BcRZCMy9dnxnX9BPLecM0g/Qf7fi88MJhB5jGJPC3clfaQupn0nhvif4p+I0tXyupli+eROICN189kSB4nyV/go/ojtlkHK/UFDoU7w5BurRr5x6DdHZBIBa/jzpYsqVGdxwJefiiYMP8xXpe50kLZD37kB8YXBBwVy4ORAlJcIIiOTteJMEW0iLGe8hk2jmxWne1HIDeX1aM86H208Td4gpqQSz2LXADJ4Uq8tnbqFQoa5+rw5Sjt+uX6StNFNOgHmw90OTSZiumknjfYxUu1GSDX8AauOR/+7hIMXkeEK+lw/bonHx1eYevYv5VnHL1v32DnA==","691f8ca61c6b4dcbb0aeb5f4","691fb4b68e64fa45c001fc0f","index1","<span style='color:red'>Fail,<span style='color:red'>Fail,<span style='color:green'>Lift,<span style='color:green'>Lift,<span style='color:red'>Fail,<span style='color:red'>Fail,<span style='color:red'>Fail,<span style='color:red'>Fail,<span style='color:green'>Lift,<span style='color:red'>Fail,<span style='color:green'>Lift,<span style='color:red'>Fail","<span style='color:red'>Fail,<span style='color:red'>Fail,<span style='color:green'>Lift,<span style='color:green'>Lift,<span style='color:green'>Lift,<span style='color:green'>Lift,<span style='color:red'>Fail,<span style='color:green'>Lift,<span style='color:green'>Lift,<span style='color:green'>Lift,<span style='color:green'>Lift,<span style='color:red'>Fail","<span style='color:red'>Fail,<span style='color:green'>Lift,<span style='color:green'>Lift,<span style='color:red'>Fail,<span style='color:green'>Lift,<span style='color:green'>Lift","0,0,1,1,0,0,0,0,1,0,1,0","0,0,1,1,1,1,0,1,1,1,1,0","0,1,1,0,1,1",10,20,20,"","","<p> <b>Oops you failed an attention check!</b> </p><p> <b>We will have to discard your data if you fail another one.</b> </p><p> <b>Please pay more attention!</b> </p>","null","","",NA,2,"warning",NA,NA,NA,NA,NA,NA,NA,NA,NA,NA,NA,NA,NA,NA,NA,NA,NA,NA,NA,NA,NA,NA,NA,NA,NA,NA,NA,NA,NA,NA,NA,NA,NA,NA,NA,NA,NA,1,NA,NA,"",NA,NA,NA,NA,NA,NA,NA,NA,2025-11-21 01:00:27
"null","https://psyc-201.github.io/xiang2023/exp/index1.html?PROLIFIC_PID=REDACTED&STUDY_ID=691f8ca61c6b4dcbb0aeb5f4&SESSION_ID=691fb4b68e64fa45c001fc0f","html-keyboard-response",18,705077,"0.0-316.0","KpJ2lE5gz+XSgx9BcRZCMy9dnxnX9BPLecM0g/Qf7fi88MJhB5jGJPC3clfaQupn0nhvif4p+I0tXyupli+eROICN189kSB4nyV/go/ojtlkHK/UFDoU7w5BurRr5x6DdHZBIBa/jzpYsqVGdxwJefiiYMP8xXpe50kLZD37kB8YXBBwVy4ORAlJcIIiOTteJMEW0iLGe8hk2jmxWne1HIDeX1aM86H208Td4gpqQSz2LXADJ4Uq8tnbqFQoa5+rw5Sjt+uX6StNFNOgHmw90OTSZiumknjfYxUu1GSDX8AauOR/+7hIMXkeEK+lw/bonHx1eYevYv5VnHL1v32DnA==","691f8ca61c6b4dcbb0aeb5f4","691fb4b68e64fa45c001fc0f","index1","<span style='color:red'>Fail,<span style='color:red'>Fail,<span style='color:green'>Lift,<span style='color:green'>Lift,<span style='color:red'>Fail,<span style='color:red'>Fail,<span style='color:red'>Fail,<span style='color:red'>Fail,<span style='color:green'>Lift,<span style='color:red'>Fail,<span style='color:green'>Lift,<span style='color:red'>Fail","<span style='color:red'>Fail,<span style='color:red'>Fail,<span style='color:green'>Lift,<span style='color:green'>Lift,<span style='color:green'>Lift,<span style='color:green'>Lift,<span style='color:red'>Fail,<span style='color:green'>Lift,<span style='color:green'>Lift,<span style='color:green'>Lift,<span style='color:green'>Lift,<span style='color:red'>Fail","<span style='color:red'>Fail,<span style='color:green'>Lift,<span style='color:green'>Lift,<span style='color:red'>Fail,<span style='color:green'>Lift,<span style='color:green'>Lift","0,0,1,1,0,0,0,0,1,0,1,0","0,0,1,1,1,1,0,1,1,1,1,0","0,1,1,0,1,1",10,20,20,"","","<p style='font-size:30px'><b> New Contest! </b></p>","null","","",NA,2,"",NA,NA,NA,NA,NA,NA,NA,NA,NA,NA,NA,NA,NA,NA,NA,NA,NA,NA,NA,NA,NA,NA,NA,NA,NA,NA,NA,NA,NA,NA,NA,NA,NA,NA,NA,NA,NA,NA,NA,NA,"",NA,NA,NA,NA,NA,NA,NA,NA,2025-11-21 01:00:27
"32883.19999998808","https://psyc-201.github.io/xiang2023/exp/index1.html?PROLIFIC_PID=REDACTED&STUDY_ID=691f8ca61c6b4dcbb0aeb5f4&SESSION_ID=691fb4b68e64fa45c001fc0f","survey-html-form",19,737964,"0.0-317.0","KpJ2lE5gz+XSgx9BcRZCMy9dnxnX9BPLecM0g/Qf7fi88MJhB5jGJPC3clfaQupn0nhvif4p+I0tXyupli+eROICN189kSB4nyV/go/ojtlkHK/UFDoU7w5BurRr5x6DdHZBIBa/jzpYsqVGdxwJefiiYMP8xXpe50kLZD37kB8YXBBwVy4ORAlJcIIiOTteJMEW0iLGe8hk2jmxWne1HIDeX1aM86H208Td4gpqQSz2LXADJ4Uq8tnbqFQoa5+rw5Sjt+uX6StNFNOgHmw90OTSZiumknjfYxUu1GSDX8AauOR/+7hIMXkeEK+lw/bonHx1eYevYv5VnHL1v32DnA==","691f8ca61c6b4dcbb0aeb5f4","691fb4b68e64fa45c001fc0f","index1","<span style='color:red'>Fail,<span style='color:red'>Fail,<span style='color:green'>Lift,<span style='color:green'>Lift,<span style='color:red'>Fail,<span style='color:red'>Fail,<span style='color:red'>Fail,<span style='color:red'>Fail,<span style='color:green'>Lift,<span style='color:red'>Fail,<span style='color:green'>Lift,<span style='color:red'>Fail","<span style='color:red'>Fail,<span style='color:red'>Fail,<span style='color:green'>Lift,<span style='color:green'>Lift,<span style='color:green'>Lift,<span style='color:green'>Lift,<span style='color:red'>Fail,<span style='color:green'>Lift,<span style='color:green'>Lift,<span style='color:green'>Lift,<span style='color:green'>Lift,<span style='color:red'>Fail","<span style='color:red'>Fail,<span style='color:green'>Lift,<span style='color:green'>Lift,<span style='color:red'>Fail,<span style='color:green'>Lift,<span style='color:green'>Lift","0,0,1,1,0,0,0,0,1,0,1,0","0,0,1,1,1,1,0,1,1,1,1,0","0,1,1,0,1,1",10,20,20,"","","","","{""box1"":""4"",""box2"":""7"",""box3"":""20"",""box4"":""60""}","",NA,2,"round1_outcome",1,2,1,4,7,20,60,1,1,10,4,7,20,60,1,1,10,NA,NA,NA,NA,NA,NA,NA,NA,NA,NA,NA,NA,NA,NA,NA,NA,NA,NA,NA,NA,NA,NA,NA,"",NA,NA,NA,NA,NA,NA,NA,NA,2025-11-21 01:00:27
"16309.700000017881","https://psyc-201.github.io/xiang2023/exp/index1.html?PROLIFIC_PID=REDACTED&STUDY_ID=691f8ca61c6b4dcbb0aeb5f4&SESSION_ID=691fb4b68e64fa45c001fc0f","survey-html-form",20,754278,"0.0-318.0","KpJ2lE5gz+XSgx9BcRZCMy9dnxnX9BPLecM0g/Qf7fi88MJhB5jGJPC3clfaQupn0nhvif4p+I0tXyupli+eROICN189kSB4nyV/go/ojtlkHK/UFDoU7w5BurRr5x6DdHZBIBa/jzpYsqVGdxwJefiiYMP8xXpe50kLZD37kB8YXBBwVy4ORAlJcIIiOTteJMEW0iLGe8hk2jmxWne1HIDeX1aM86H208Td4gpqQSz2LXADJ4Uq8tnbqFQoa5+rw5Sjt+uX6StNFNOgHmw90OTSZiumknjfYxUu1GSDX8AauOR/+7hIMXkeEK+lw/bonHx1eYevYv5VnHL1v32DnA==","691f8ca61c6b4dcbb0aeb5f4","691fb4b68e64fa45c001fc0f","index1","<span style='color:red'>Fail,<span style='color:red'>Fail,<span style='color:green'>Lift,<span style='color:green'>Lift,<span style='color:red'>Fail,<span style='color:red'>Fail,<span style='color:red'>Fail,<span style='color:red'>Fail,<span style='color:green'>Lift,<span style='color:red'>Fail,<span style='color:green'>Lift,<span style='color:red'>Fail","<span style='color:red'>Fail,<span style='color:red'>Fail,<span style='color:green'>Lift,<span style='color:green'>Lift,<span style='color:green'>Lift,<span style='color:green'>Lift,<span style='color:red'>Fail,<span style='color:green'>Lift,<span style='color:green'>Lift,<span style='color:green'>Lift,<span style='color:green'>Lift,<span style='color:red'>Fail","<span style='color:red'>Fail,<span style='color:green'>Lift,<span style='color:green'>Lift,<span style='color:red'>Fail,<span style='color:green'>Lift,<span style='color:green'>Lift","0,0,1,1,0,0,0,0,1,0,1,0","0,0,1,1,1,1,0,1,1,1,1,0","0,1,1,0,1,1",10,20,20,"","","","","{""box1"":""40"",""box2"":""20""}","",NA,2,"round2_ready",2,2,2,NA,NA,NA,NA,NA,NA,NA,NA,NA,NA,NA,NA,NA,NA,40,20,40,20,NA,NA,NA,NA,NA,NA,NA,NA,NA,NA,NA,NA,NA,NA,NA,NA,NA,NA,NA,"",NA,NA,NA,NA,NA,NA,NA,NA,2025-11-21 01:00:27
"23466.40000000596","https://psyc-201.github.io/xiang2023/exp/index1.html?PROLIFIC_PID=REDACTED&STUDY_ID=691f8ca61c6b4dcbb0aeb5f4&SESSION_ID=691fb4b68e64fa45c001fc0f","survey-html-form",21,777748,"0.0-319.0","KpJ2lE5gz+XSgx9BcRZCMy9dnxnX9BPLecM0g/Qf7fi88MJhB5jGJPC3clfaQupn0nhvif4p+I0tXyupli+eROICN189kSB4nyV/go/ojtlkHK/UFDoU7w5BurRr5x6DdHZBIBa/jzpYsqVGdxwJefiiYMP8xXpe50kLZD37kB8YXBBwVy4ORAlJcIIiOTteJMEW0iLGe8hk2jmxWne1HIDeX1aM86H208Td4gpqQSz2LXADJ4Uq8tnbqFQoa5+rw5Sjt+uX6StNFNOgHmw90OTSZiumknjfYxUu1GSDX8AauOR/+7hIMXkeEK+lw/bonHx1eYevYv5VnHL1v32DnA==","691f8ca61c6b4dcbb0aeb5f4","691fb4b68e64fa45c001fc0f","index1","<span style='color:red'>Fail,<span style='color:red'>Fail,<span style='color:green'>Lift,<span style='color:green'>Lift,<span style='color:red'>Fail,<span style='color:red'>Fail,<span style='color:red'>Fail,<span style='color:red'>Fail,<span style='color:green'>Lift,<span style='color:red'>Fail,<span style='color:green'>Lift,<span style='color:red'>Fail","<span style='color:red'>Fail,<span style='color:red'>Fail,<span style='color:green'>Lift,<span style='color:green'>Lift,<span style='color:green'>Lift,<span style='color:green'>Lift,<span style='color:red'>Fail,<span style='color:green'>Lift,<span style='color:green'>Lift,<span style='color:green'>Lift,<span style='color:green'>Lift,<span style='color:red'>Fail","<span style='color:red'>Fail,<span style='color:green'>Lift,<span style='color:green'>Lift,<span style='color:red'>Fail,<span style='color:green'>Lift,<span style='color:green'>Lift","0,0,1,1,0,0,0,0,1,0,1,0","0,0,1,1,1,1,0,1,1,1,1,0","0,1,1,0,1,1",10,20,20,"","","","","{""box1"":""4"",""box2"":""8"",""box3"":""40"",""box4"":""80""}","",NA,2,"round2_outcome",3,2,2,4,8,40,80,1,1,20,NA,NA,NA,NA,NA,NA,NA,NA,NA,NA,NA,4,8,40,80,1,1,20,NA,NA,NA,NA,NA,NA,NA,NA,NA,NA,NA,NA,"",NA,NA,NA,NA,NA,NA,NA,NA,2025-11-21 01:00:27
"8868.399999976158","https://psyc-201.github.io/xiang2023/exp/index1.html?PROLIFIC_PID=REDACTED&STUDY_ID=691f8ca61c6b4dcbb0aeb5f4&SESSION_ID=691fb4b68e64fa45c001fc0f","survey-html-form",22,786620,"0.0-320.0","KpJ2lE5gz+XSgx9BcRZCMy9dnxnX9BPLecM0g/Qf7fi88MJhB5jGJPC3clfaQupn0nhvif4p+I0tXyupli+eROICN189kSB4nyV/go/ojtlkHK/UFDoU7w5BurRr5x6DdHZBIBa/jzpYsqVGdxwJefiiYMP8xXpe50kLZD37kB8YXBBwVy4ORAlJcIIiOTteJMEW0iLGe8hk2jmxWne1HIDeX1aM86H208Td4gpqQSz2LXADJ4Uq8tnbqFQoa5+rw5Sjt+uX6StNFNOgHmw90OTSZiumknjfYxUu1GSDX8AauOR/+7hIMXkeEK+lw/bonHx1eYevYv5VnHL1v32DnA==","691f8ca61c6b4dcbb0aeb5f4","691fb4b68e64fa45c001fc0f","index1","<span style='color:red'>Fail,<span style='color:red'>Fail,<span style='color:green'>Lift,<span style='color:green'>Lift,<span style='color:red'>Fail,<span style='color:red'>Fail,<span style='color:red'>Fail,<span style='color:red'>Fail,<span style='color:green'>Lift,<span style='color:red'>Fail,<span style='color:green'>Lift,<span style='color:red'>Fail","<span style='color:red'>Fail,<span style='color:red'>Fail,<span style='color:green'>Lift,<span style='color:green'>Lift,<span style='color:green'>Lift,<span style='color:green'>Lift,<span style='color:red'>Fail,<span style='color:green'>Lift,<span style='color:green'>Lift,<span style='color:green'>Lift,<span style='color:green'>Lift,<span style='color:red'>Fail","<span style='color:red'>Fail,<span style='color:green'>Lift,<span style='color:green'>Lift,<span style='color:red'>Fail,<span style='color:green'>Lift,<span style='color:green'>Lift","0,0,1,1,0,0,0,0,1,0,1,0","0,0,1,1,1,1,0,1,1,1,1,0","0,1,1,0,1,1",10,20,20,"","","","","{""box1"":""90""}","",NA,2,"round3_ready",4,2,3,NA,NA,NA,NA,NA,NA,NA,NA,NA,NA,NA,NA,NA,NA,90,90,NA,NA,NA,NA,NA,NA,NA,NA,NA,90,90,NA,NA,NA,NA,NA,NA,NA,NA,NA,NA,"",NA,NA,NA,NA,NA,NA,NA,NA,2025-11-21 01:00:27
"27128.30000001192","https://psyc-201.github.io/xiang2023/exp/index1.html?PROLIFIC_PID=REDACTED&STUDY_ID=691f8ca61c6b4dcbb0aeb5f4&SESSION_ID=691fb4b68e64fa45c001fc0f","survey-html-form",23,813752,"0.0-321.0-0.0","KpJ2lE5gz+XSgx9BcRZCMy9dnxnX9BPLecM0g/Qf7fi88MJhB5jGJPC3clfaQupn0nhvif4p+I0tXyupli+eROICN189kSB4nyV/go/ojtlkHK/UFDoU7w5BurRr5x6DdHZBIBa/jzpYsqVGdxwJefiiYMP8xXpe50kLZD37kB8YXBBwVy4ORAlJcIIiOTteJMEW0iLGe8hk2jmxWne1HIDeX1aM86H208Td4gpqQSz2LXADJ4Uq8tnbqFQoa5+rw5Sjt+uX6StNFNOgHmw90OTSZiumknjfYxUu1GSDX8AauOR/+7hIMXkeEK+lw/bonHx1eYevYv5VnHL1v32DnA==","691f8ca61c6b4dcbb0aeb5f4","691fb4b68e64fa45c001fc0f","index1","<span style='color:red'>Fail,<span style='color:red'>Fail,<span style='color:green'>Lift,<span style='color:green'>Lift,<span style='color:red'>Fail,<span style='color:red'>Fail,<span style='color:red'>Fail,<span style='color:red'>Fail,<span style='color:green'>Lift,<span style='color:red'>Fail,<span style='color:green'>Lift,<span style='color:red'>Fail","<span style='color:red'>Fail,<span style='color:red'>Fail,<span style='color:green'>Lift,<span style='color:green'>Lift,<span style='color:green'>Lift,<span style='color:green'>Lift,<span style='color:red'>Fail,<span style='color:green'>Lift,<span style='color:green'>Lift,<span style='color:green'>Lift,<span style='color:green'>Lift,<span style='color:red'>Fail","<span style='color:red'>Fail,<span style='color:green'>Lift,<span style='color:green'>Lift,<span style='color:red'>Fail,<span style='color:green'>Lift,<span style='color:green'>Lift","0,0,1,1,0,0,0,0,1,0,1,0","0,0,1,1,1,1,0,1,1,1,1,0","0,1,1,0,1,1",10,20,20,"","","","","{""box1"":""5"",""box2"":""3"",""box3"":""50"",""box4"":""30""}","",NA,3,"round3_lift",5,2,3,5,3,50,30,1,1,20,NA,NA,NA,NA,NA,NA,NA,NA,NA,NA,NA,NA,NA,NA,NA,NA,NA,NA,NA,NA,NA,NA,5,3,1,1,20,NA,50,30,"",NA,NA,NA,NA,NA,NA,NA,NA,2025-11-21 01:00:27
"null","https://psyc-201.github.io/xiang2023/exp/index1.html?PROLIFIC_PID=REDACTED&STUDY_ID=691f8ca61c6b4dcbb0aeb5f4&SESSION_ID=691fb4b68e64fa45c001fc0f","html-keyboard-response",24,816760,"0.0-325.0","KpJ2lE5gz+XSgx9BcRZCMy9dnxnX9BPLecM0g/Qf7fi88MJhB5jGJPC3clfaQupn0nhvif4p+I0tXyupli+eROICN189kSB4nyV/go/ojtlkHK/UFDoU7w5BurRr5x6DdHZBIBa/jzpYsqVGdxwJefiiYMP8xXpe50kLZD37kB8YXBBwVy4ORAlJcIIiOTteJMEW0iLGe8hk2jmxWne1HIDeX1aM86H208Td4gpqQSz2LXADJ4Uq8tnbqFQoa5+rw5Sjt+uX6StNFNOgHmw90OTSZiumknjfYxUu1GSDX8AauOR/+7hIMXkeEK+lw/bonHx1eYevYv5VnHL1v32DnA==","691f8ca61c6b4dcbb0aeb5f4","691fb4b68e64fa45c001fc0f","index1","<span style='color:red'>Fail,<span style='color:red'>Fail,<span style='color:green'>Lift,<span style='color:green'>Lift,<span style='color:red'>Fail,<span style='color:red'>Fail,<span style='color:red'>Fail,<span style='color:red'>Fail,<span style='color:green'>Lift,<span style='color:red'>Fail,<span style='color:green'>Lift,<span style='color:red'>Fail","<span style='color:red'>Fail,<span style='color:red'>Fail,<span style='color:green'>Lift,<span style='color:green'>Lift,<span style='color:green'>Lift,<span style='color:green'>Lift,<span style='color:red'>Fail,<span style='color:green'>Lift,<span style='color:green'>Lift,<span style='color:green'>Lift,<span style='color:green'>Lift,<span style='color:red'>Fail","<span style='color:red'>Fail,<span style='color:green'>Lift,<span style='color:green'>Lift,<span style='color:red'>Fail,<span style='color:green'>Lift,<span style='color:green'>Lift","0,0,1,1,0,0,0,0,1,0,1,0","0,0,1,1,1,1,0,1,1,1,1,0","0,1,1,0,1,1",10,20,20,"","","<p style='font-size:30px'><b> New Contest! </b></p>","null","","",NA,3,"",NA,NA,NA,NA,NA,NA,NA,NA,NA,NA,NA,NA,NA,NA,NA,NA,NA,NA,NA,NA,NA,NA,NA,NA,NA,NA,NA,NA,NA,NA,NA,NA,NA,NA,NA,NA,NA,NA,NA,NA,"",NA,NA,NA,NA,NA,NA,NA,NA,2025-11-21 01:00:27
"10917.199999988079","https://psyc-201.github.io/xiang2023/exp/index1.html?PROLIFIC_PID=REDACTED&STUDY_ID=691f8ca61c6b4dcbb0aeb5f4&SESSION_ID=691fb4b68e64fa45c001fc0f","survey-html-form",25,827681,"0.0-326.0","KpJ2lE5gz+XSgx9BcRZCMy9dnxnX9BPLecM0g/Qf7fi88MJhB5jGJPC3clfaQupn0nhvif4p+I0tXyupli+eROICN189kSB4nyV/go/ojtlkHK/UFDoU7w5BurRr5x6DdHZBIBa/jzpYsqVGdxwJefiiYMP8xXpe50kLZD37kB8YXBBwVy4ORAlJcIIiOTteJMEW0iLGe8hk2jmxWne1HIDeX1aM86H208Td4gpqQSz2LXADJ4Uq8tnbqFQoa5+rw5Sjt+uX6StNFNOgHmw90OTSZiumknjfYxUu1GSDX8AauOR/+7hIMXkeEK+lw/bonHx1eYevYv5VnHL1v32DnA==","691f8ca61c6b4dcbb0aeb5f4","691fb4b68e64fa45c001fc0f","index1","<span style='color:red'>Fail,<span style='color:red'>Fail,<span style='color:green'>Lift,<span style='color:green'>Lift,<span style='color:red'>Fail,<span style='color:red'>Fail,<span style='color:red'>Fail,<span style='color:red'>Fail,<span style='color:green'>Lift,<span style='color:red'>Fail,<span style='color:green'>Lift,<span style='color:red'>Fail","<span style='color:red'>Fail,<span style='color:red'>Fail,<span style='color:green'>Lift,<span style='color:green'>Lift,<span style='color:green'>Lift,<span style='color:green'>Lift,<span style='color:red'>Fail,<span style='color:green'>Lift,<span style='color:green'>Lift,<span style='color:green'>Lift,<span style='color:green'>Lift,<span style='color:red'>Fail","<span style='color:red'>Fail,<span style='color:green'>Lift,<span style='color:green'>Lift,<span style='color:red'>Fail,<span style='color:green'>Lift,<span style='color:green'>Lift","0,0,1,1,0,0,0,0,1,0,1,0","0,0,1,1,1,1,0,1,1,1,1,0","0,1,1,0,1,1",10,20,20,"","","","","{""box1"":""5"",""box2"":""9""}","",NA,3,"round1_outcome",1,3,1,5,9,NA,NA,0,0,10,5,9,NA,NA,0,0,10,NA,NA,NA,NA,NA,NA,NA,NA,NA,NA,NA,NA,NA,NA,NA,NA,NA,NA,NA,NA,NA,NA,NA,"",NA,NA,NA,NA,NA,NA,NA,NA,2025-11-21 01:00:27
"10211.199999988079","https://psyc-201.github.io/xiang2023/exp/index1.html?PROLIFIC_PID=REDACTED&STUDY_ID=691f8ca61c6b4dcbb0aeb5f4&SESSION_ID=691fb4b68e64fa45c001fc0f","survey-html-form",26,837895,"0.0-327.0","KpJ2lE5gz+XSgx9BcRZCMy9dnxnX9BPLecM0g/Qf7fi88MJhB5jGJPC3clfaQupn0nhvif4p+I0tXyupli+eROICN189kSB4nyV/go/ojtlkHK/UFDoU7w5BurRr5x6DdHZBIBa/jzpYsqVGdxwJefiiYMP8xXpe50kLZD37kB8YXBBwVy4ORAlJcIIiOTteJMEW0iLGe8hk2jmxWne1HIDeX1aM86H208Td4gpqQSz2LXADJ4Uq8tnbqFQoa5+rw5Sjt+uX6StNFNOgHmw90OTSZiumknjfYxUu1GSDX8AauOR/+7hIMXkeEK+lw/bonHx1eYevYv5VnHL1v32DnA==","691f8ca61c6b4dcbb0aeb5f4","691fb4b68e64fa45c001fc0f","index1","<span style='color:red'>Fail,<span style='color:red'>Fail,<span style='color:green'>Lift,<span style='color:green'>Lift,<span style='color:red'>Fail,<span style='color:red'>Fail,<span style='color:red'>Fail,<span style='color:red'>Fail,<span style='color:green'>Lift,<span style='color:red'>Fail,<span style='color:green'>Lift,<span style='color:red'>Fail","<span style='color:red'>Fail,<span style='color:red'>Fail,<span style='color:green'>Lift,<span style='color:green'>Lift,<span style='color:green'>Lift,<span style='color:green'>Lift,<span style='color:red'>Fail,<span style='color:green'>Lift,<span style='color:green'>Lift,<span style='color:green'>Lift,<span style='color:green'>Lift,<span style='color:red'>Fail","<span style='color:red'>Fail,<span style='color:green'>Lift,<span style='color:green'>Lift,<span style='color:red'>Fail,<span style='color:green'>Lift,<span style='color:green'>Lift","0,0,1,1,0,0,0,0,1,0,1,0","0,0,1,1,1,1,0,1,1,1,1,0","0,1,1,0,1,1",10,20,20,"","","","","{""box1"":""50"",""box2"":""70""}","",NA,3,"round2_ready",2,3,2,NA,NA,NA,NA,NA,NA,NA,NA,NA,NA,NA,NA,NA,NA,50,70,50,70,NA,NA,NA,NA,NA,NA,NA,NA,NA,NA,NA,NA,NA,NA,NA,NA,NA,NA,NA,"",NA,NA,NA,NA,NA,NA,NA,NA,2025-11-21 01:00:27
"11636.5","https://psyc-201.github.io/xiang2023/exp/index1.html?PROLIFIC_PID=REDACTED&STUDY_ID=691f8ca61c6b4dcbb0aeb5f4&SESSION_ID=691fb4b68e64fa45c001fc0f","survey-html-form",27,849535,"0.0-328.0","KpJ2lE5gz+XSgx9BcRZCMy9dnxnX9BPLecM0g/Qf7fi88MJhB5jGJPC3clfaQupn0nhvif4p+I0tXyupli+eROICN189kSB4nyV/go/ojtlkHK/UFDoU7w5BurRr5x6DdHZBIBa/jzpYsqVGdxwJefiiYMP8xXpe50kLZD37kB8YXBBwVy4ORAlJcIIiOTteJMEW0iLGe8hk2jmxWne1HIDeX1aM86H208Td4gpqQSz2LXADJ4Uq8tnbqFQoa5+rw5Sjt+uX6StNFNOgHmw90OTSZiumknjfYxUu1GSDX8AauOR/+7hIMXkeEK+lw/bonHx1eYevYv5VnHL1v32DnA==","691f8ca61c6b4dcbb0aeb5f4","691fb4b68e64fa45c001fc0f","index1","<span style='color:red'>Fail,<span style='color:red'>Fail,<span style='color:green'>Lift,<span style='color:green'>Lift,<span style='color:red'>Fail,<span style='color:red'>Fail,<span style='color:red'>Fail,<span style='color:red'>Fail,<span style='color:green'>Lift,<span style='color:red'>Fail,<span style='color:green'>Lift,<span style='color:red'>Fail","<span style='color:red'>Fail,<span style='color:red'>Fail,<span style='color:green'>Lift,<span style='color:green'>Lift,<span style='color:green'>Lift,<span style='color:green'>Lift,<span style='color:red'>Fail,<span style='color:green'>Lift,<span style='color:green'>Lift,<span style='color:green'>Lift,<span style='color:green'>Lift,<span style='color:red'>Fail","<span style='color:red'>Fail,<span style='color:green'>Lift,<span style='color:green'>Lift,<span style='color:red'>Fail,<span style='color:green'>Lift,<span style='color:green'>Lift","0,0,1,1,0,0,0,0,1,0,1,0","0,0,1,1,1,1,0,1,1,1,1,0","0,1,1,0,1,1",10,20,20,"","","","","{""box1"":""6"",""box2"":""3""}","",NA,3,"round2_outcome",3,3,2,6,3,NA,NA,0,0,20,NA,NA,NA,NA,NA,NA,NA,NA,NA,NA,NA,6,3,NA,NA,0,0,20,NA,NA,NA,NA,NA,NA,NA,NA,NA,NA,NA,NA,"",NA,NA,NA,NA,NA,NA,NA,NA,2025-11-21 01:00:27
"7044.9000000059605","https://psyc-201.github.io/xiang2023/exp/index1.html?PROLIFIC_PID=REDACTED&STUDY_ID=691f8ca61c6b4dcbb0aeb5f4&SESSION_ID=691fb4b68e64fa45c001fc0f","survey-html-form",28,856583,"0.0-329.0","KpJ2lE5gz+XSgx9BcRZCMy9dnxnX9BPLecM0g/Qf7fi88MJhB5jGJPC3clfaQupn0nhvif4p+I0tXyupli+eROICN189kSB4nyV/go/ojtlkHK/UFDoU7w5BurRr5x6DdHZBIBa/jzpYsqVGdxwJefiiYMP8xXpe50kLZD37kB8YXBBwVy4ORAlJcIIiOTteJMEW0iLGe8hk2jmxWne1HIDeX1aM86H208Td4gpqQSz2LXADJ4Uq8tnbqFQoa5+rw5Sjt+uX6StNFNOgHmw90OTSZiumknjfYxUu1GSDX8AauOR/+7hIMXkeEK+lw/bonHx1eYevYv5VnHL1v32DnA==","691f8ca61c6b4dcbb0aeb5f4","691fb4b68e64fa45c001fc0f","index1","<span style='color:red'>Fail,<span style='color:red'>Fail,<span style='color:green'>Lift,<span style='color:green'>Lift,<span style='color:red'>Fail,<span style='color:red'>Fail,<span style='color:red'>Fail,<span style='color:red'>Fail,<span style='color:green'>Lift,<span style='color:red'>Fail,<span style='color:green'>Lift,<span style='color:red'>Fail","<span style='color:red'>Fail,<span style='color:red'>Fail,<span style='color:green'>Lift,<span style='color:green'>Lift,<span style='color:green'>Lift,<span style='color:green'>Lift,<span style='color:red'>Fail,<span style='color:green'>Lift,<span style='color:green'>Lift,<span style='color:green'>Lift,<span style='color:green'>Lift,<span style='color:red'>Fail","<span style='color:red'>Fail,<span style='color:green'>Lift,<span style='color:green'>Lift,<span style='color:red'>Fail,<span style='color:green'>Lift,<span style='color:green'>Lift","0,0,1,1,0,0,0,0,1,0,1,0","0,0,1,1,1,1,0,1,1,1,1,0","0,1,1,0,1,1",10,20,20,"","","","","{""box1"":""70""}","",NA,3,"round3_ready",4,3,3,NA,NA,NA,NA,NA,NA,NA,NA,NA,NA,NA,NA,NA,NA,70,70,NA,NA,NA,NA,NA,NA,NA,NA,NA,70,70,NA,NA,NA,NA,NA,NA,NA,NA,NA,NA,"",NA,NA,NA,NA,NA,NA,NA,NA,2025-11-21 01:00:27
"23303.09999999404","https://psyc-201.github.io/xiang2023/exp/index1.html?PROLIFIC_PID=REDACTED&STUDY_ID=691f8ca61c6b4dcbb0aeb5f4&SESSION_ID=691fb4b68e64fa45c001fc0f","survey-html-form",29,879890,"0.0-331.0-0.0","KpJ2lE5gz+XSgx9BcRZCMy9dnxnX9BPLecM0g/Qf7fi88MJhB5jGJPC3clfaQupn0nhvif4p+I0tXyupli+eROICN189kSB4nyV/go/ojtlkHK/UFDoU7w5BurRr5x6DdHZBIBa/jzpYsqVGdxwJefiiYMP8xXpe50kLZD37kB8YXBBwVy4ORAlJcIIiOTteJMEW0iLGe8hk2jmxWne1HIDeX1aM86H208Td4gpqQSz2LXADJ4Uq8tnbqFQoa5+rw5Sjt+uX6StNFNOgHmw90OTSZiumknjfYxUu1GSDX8AauOR/+7hIMXkeEK+lw/bonHx1eYevYv5VnHL1v32DnA==","691f8ca61c6b4dcbb0aeb5f4","691fb4b68e64fa45c001fc0f","index1","<span style='color:red'>Fail,<span style='color:red'>Fail,<span style='color:green'>Lift,<span style='color:green'>Lift,<span style='color:red'>Fail,<span style='color:red'>Fail,<span style='color:red'>Fail,<span style='color:red'>Fail,<span style='color:green'>Lift,<span style='color:red'>Fail,<span style='color:green'>Lift,<span style='color:red'>Fail","<span style='color:red'>Fail,<span style='color:red'>Fail,<span style='color:green'>Lift,<span style='color:green'>Lift,<span style='color:green'>Lift,<span style='color:green'>Lift,<span style='color:red'>Fail,<span style='color:green'>Lift,<span style='color:green'>Lift,<span style='color:green'>Lift,<span style='color:green'>Lift,<span style='color:red'>Fail","<span style='color:red'>Fail,<span style='color:green'>Lift,<span style='color:green'>Lift,<span style='color:red'>Fail,<span style='color:green'>Lift,<span style='color:green'>Lift","0,0,1,1,0,0,0,0,1,0,1,0","0,0,1,1,1,1,0,1,1,1,1,0","0,1,1,0,1,1",10,20,20,"","","","","{""box1"":""5"",""box2"":""7"",""box3"":""999"",""box4"":""999""}","",NA,4,"round3_fail",5,3,3,5,7,NA,NA,0,0,20,NA,NA,NA,NA,NA,NA,NA,NA,NA,NA,NA,NA,NA,NA,NA,NA,NA,NA,NA,NA,1,1,5,7,0,0,20,NA,NA,NA,"",NA,NA,NA,NA,NA,NA,NA,NA,2025-11-21 01:00:27
"null","https://psyc-201.github.io/xiang2023/exp/index1.html?PROLIFIC_PID=REDACTED&STUDY_ID=691f8ca61c6b4dcbb0aeb5f4&SESSION_ID=691fb4b68e64fa45c001fc0f","html-keyboard-response",30,882903,"0.0-334.0","KpJ2lE5gz+XSgx9BcRZCMy9dnxnX9BPLecM0g/Qf7fi88MJhB5jGJPC3clfaQupn0nhvif4p+I0tXyupli+eROICN189kSB4nyV/go/ojtlkHK/UFDoU7w5BurRr5x6DdHZBIBa/jzpYsqVGdxwJefiiYMP8xXpe50kLZD37kB8YXBBwVy4ORAlJcIIiOTteJMEW0iLGe8hk2jmxWne1HIDeX1aM86H208Td4gpqQSz2LXADJ4Uq8tnbqFQoa5+rw5Sjt+uX6StNFNOgHmw90OTSZiumknjfYxUu1GSDX8AauOR/+7hIMXkeEK+lw/bonHx1eYevYv5VnHL1v32DnA==","691f8ca61c6b4dcbb0aeb5f4","691fb4b68e64fa45c001fc0f","index1","<span style='color:red'>Fail,<span style='color:red'>Fail,<span style='color:green'>Lift,<span style='color:green'>Lift,<span style='color:red'>Fail,<span style='color:red'>Fail,<span style='color:red'>Fail,<span style='color:red'>Fail,<span style='color:green'>Lift,<span style='color:red'>Fail,<span style='color:green'>Lift,<span style='color:red'>Fail","<span style='color:red'>Fail,<span style='color:red'>Fail,<span style='color:green'>Lift,<span style='color:green'>Lift,<span style='color:green'>Lift,<span style='color:green'>Lift,<span style='color:red'>Fail,<span style='color:green'>Lift,<span style='color:green'>Lift,<span style='color:green'>Lift,<span style='color:green'>Lift,<span style='color:red'>Fail","<span style='color:red'>Fail,<span style='color:green'>Lift,<span style='color:green'>Lift,<span style='color:red'>Fail,<span style='color:green'>Lift,<span style='color:green'>Lift","0,0,1,1,0,0,0,0,1,0,1,0","0,0,1,1,1,1,0,1,1,1,1,0","0,1,1,0,1,1",10,20,20,"","","<p style='font-size:30px'><b> New Contest! </b></p>","null","","",NA,4,"",NA,NA,NA,NA,NA,NA,NA,NA,NA,NA,NA,NA,NA,NA,NA,NA,NA,NA,NA,NA,NA,NA,NA,NA,NA,NA,NA,NA,NA,NA,NA,NA,NA,NA,NA,NA,NA,NA,NA,NA,"",NA,NA,NA,NA,NA,NA,NA,NA,2025-11-21 01:00:27
"32818.19999998808","https://psyc-201.github.io/xiang2023/exp/index1.html?PROLIFIC_PID=REDACTED&STUDY_ID=691f8ca61c6b4dcbb0aeb5f4&SESSION_ID=691fb4b68e64fa45c001fc0f","survey-html-form",31,915723,"0.0-335.0","KpJ2lE5gz+XSgx9BcRZCMy9dnxnX9BPLecM0g/Qf7fi88MJhB5jGJPC3clfaQupn0nhvif4p+I0tXyupli+eROICN189kSB4nyV/go/ojtlkHK/UFDoU7w5BurRr5x6DdHZBIBa/jzpYsqVGdxwJefiiYMP8xXpe50kLZD37kB8YXBBwVy4ORAlJcIIiOTteJMEW0iLGe8hk2jmxWne1HIDeX1aM86H208Td4gpqQSz2LXADJ4Uq8tnbqFQoa5+rw5Sjt+uX6StNFNOgHmw90OTSZiumknjfYxUu1GSDX8AauOR/+7hIMXkeEK+lw/bonHx1eYevYv5VnHL1v32DnA==","691f8ca61c6b4dcbb0aeb5f4","691fb4b68e64fa45c001fc0f","index1","<span style='color:red'>Fail,<span style='color:red'>Fail,<span style='color:green'>Lift,<span style='color:green'>Lift,<span style='color:red'>Fail,<span style='color:red'>Fail,<span style='color:red'>Fail,<span style='color:red'>Fail,<span style='color:green'>Lift,<span style='color:red'>Fail,<span style='color:green'>Lift,<span style='color:red'>Fail","<span style='color:red'>Fail,<span style='color:red'>Fail,<span style='color:green'>Lift,<span style='color:green'>Lift,<span style='color:green'>Lift,<span style='color:green'>Lift,<span style='color:red'>Fail,<span style='color:green'>Lift,<span style='color:green'>Lift,<span style='color:green'>Lift,<span style='color:green'>Lift,<span style='color:red'>Fail","<span style='color:red'>Fail,<span style='color:green'>Lift,<span style='color:green'>Lift,<span style='color:red'>Fail,<span style='color:green'>Lift,<span style='color:green'>Lift","0,0,1,1,0,0,0,0,1,0,1,0","0,0,1,1,1,1,0,1,1,1,1,0","0,1,1,0,1,1",10,20,20,"","","","","{""box1"":""4"",""box2"":""8""}","",NA,4,"round1_outcome",1,4,1,4,8,NA,NA,0,0,10,4,8,NA,NA,0,0,10,NA,NA,NA,NA,NA,NA,NA,NA,NA,NA,NA,NA,NA,NA,NA,NA,NA,NA,NA,NA,NA,NA,NA,"",NA,NA,NA,NA,NA,NA,NA,NA,2025-11-21 01:00:27
"8035.600000023842","https://psyc-201.github.io/xiang2023/exp/index1.html?PROLIFIC_PID=REDACTED&STUDY_ID=691f8ca61c6b4dcbb0aeb5f4&SESSION_ID=691fb4b68e64fa45c001fc0f","survey-html-form",32,923761,"0.0-336.0","KpJ2lE5gz+XSgx9BcRZCMy9dnxnX9BPLecM0g/Qf7fi88MJhB5jGJPC3clfaQupn0nhvif4p+I0tXyupli+eROICN189kSB4nyV/go/ojtlkHK/UFDoU7w5BurRr5x6DdHZBIBa/jzpYsqVGdxwJefiiYMP8xXpe50kLZD37kB8YXBBwVy4ORAlJcIIiOTteJMEW0iLGe8hk2jmxWne1HIDeX1aM86H208Td4gpqQSz2LXADJ4Uq8tnbqFQoa5+rw5Sjt+uX6StNFNOgHmw90OTSZiumknjfYxUu1GSDX8AauOR/+7hIMXkeEK+lw/bonHx1eYevYv5VnHL1v32DnA==","691f8ca61c6b4dcbb0aeb5f4","691fb4b68e64fa45c001fc0f","index1","<span style='color:red'>Fail,<span style='color:red'>Fail,<span style='color:green'>Lift,<span style='color:green'>Lift,<span style='color:red'>Fail,<span style='color:red'>Fail,<span style='color:red'>Fail,<span style='color:red'>Fail,<span style='color:green'>Lift,<span style='color:red'>Fail,<span style='color:green'>Lift,<span style='color:red'>Fail","<span style='color:red'>Fail,<span style='color:red'>Fail,<span style='color:green'>Lift,<span style='color:green'>Lift,<span style='color:green'>Lift,<span style='color:green'>Lift,<span style='color:red'>Fail,<span style='color:green'>Lift,<span style='color:green'>Lift,<span style='color:green'>Lift,<span style='color:green'>Lift,<span style='color:red'>Fail","<span style='color:red'>Fail,<span style='color:green'>Lift,<span style='color:green'>Lift,<span style='color:red'>Fail,<span style='color:green'>Lift,<span style='color:green'>Lift","0,0,1,1,0,0,0,0,1,0,1,0","0,0,1,1,1,1,0,1,1,1,1,0","0,1,1,0,1,1",10,20,20,"","","","","{""box1"":""40"",""box2"":""60""}","",NA,4,"round2_ready",2,4,2,NA,NA,NA,NA,NA,NA,NA,NA,NA,NA,NA,NA,NA,NA,40,60,40,60,NA,NA,NA,NA,NA,NA,NA,NA,NA,NA,NA,NA,NA,NA,NA,NA,NA,NA,NA,"",NA,NA,NA,NA,NA,NA,NA,NA,2025-11-21 01:00:27
"16188.199999988079","https://psyc-201.github.io/xiang2023/exp/index1.html?PROLIFIC_PID=REDACTED&STUDY_ID=691f8ca61c6b4dcbb0aeb5f4&SESSION_ID=691fb4b68e64fa45c001fc0f","survey-html-form",33,939952,"0.0-337.0","KpJ2lE5gz+XSgx9BcRZCMy9dnxnX9BPLecM0g/Qf7fi88MJhB5jGJPC3clfaQupn0nhvif4p+I0tXyupli+eROICN189kSB4nyV/go/ojtlkHK/UFDoU7w5BurRr5x6DdHZBIBa/jzpYsqVGdxwJefiiYMP8xXpe50kLZD37kB8YXBBwVy4ORAlJcIIiOTteJMEW0iLGe8hk2jmxWne1HIDeX1aM86H208Td4gpqQSz2LXADJ4Uq8tnbqFQoa5+rw5Sjt+uX6StNFNOgHmw90OTSZiumknjfYxUu1GSDX8AauOR/+7hIMXkeEK+lw/bonHx1eYevYv5VnHL1v32DnA==","691f8ca61c6b4dcbb0aeb5f4","691fb4b68e64fa45c001fc0f","index1","<span style='color:red'>Fail,<span style='color:red'>Fail,<span style='color:green'>Lift,<span style='color:green'>Lift,<span style='color:red'>Fail,<span style='color:red'>Fail,<span style='color:red'>Fail,<span style='color:red'>Fail,<span style='color:green'>Lift,<span style='color:red'>Fail,<span style='color:green'>Lift,<span style='color:red'>Fail","<span style='color:red'>Fail,<span style='color:red'>Fail,<span style='color:green'>Lift,<span style='color:green'>Lift,<span style='color:green'>Lift,<span style='color:green'>Lift,<span style='color:red'>Fail,<span style='color:green'>Lift,<span style='color:green'>Lift,<span style='color:green'>Lift,<span style='color:green'>Lift,<span style='color:red'>Fail","<span style='color:red'>Fail,<span style='color:green'>Lift,<span style='color:green'>Lift,<span style='color:red'>Fail,<span style='color:green'>Lift,<span style='color:green'>Lift","0,0,1,1,0,0,0,0,1,0,1,0","0,0,1,1,1,1,0,1,1,1,1,0","0,1,1,0,1,1",10,20,20,"","","","","{""box1"":""6"",""box2"":""2"",""box3"":""40"",""box4"":""60""}","",NA,4,"round2_outcome",3,4,2,6,2,40,60,1,1,20,NA,NA,NA,NA,NA,NA,NA,NA,NA,NA,NA,6,2,40,60,1,1,20,NA,NA,NA,NA,NA,NA,NA,NA,NA,NA,NA,NA,"",NA,NA,NA,NA,NA,NA,NA,NA,2025-11-21 01:00:27
"13268.90000000596","https://psyc-201.github.io/xiang2023/exp/index1.html?PROLIFIC_PID=REDACTED&STUDY_ID=691f8ca61c6b4dcbb0aeb5f4&SESSION_ID=691fb4b68e64fa45c001fc0f","survey-html-form",34,953224,"0.0-338.0","KpJ2lE5gz+XSgx9BcRZCMy9dnxnX9BPLecM0g/Qf7fi88MJhB5jGJPC3clfaQupn0nhvif4p+I0tXyupli+eROICN189kSB4nyV/go/ojtlkHK/UFDoU7w5BurRr5x6DdHZBIBa/jzpYsqVGdxwJefiiYMP8xXpe50kLZD37kB8YXBBwVy4ORAlJcIIiOTteJMEW0iLGe8hk2jmxWne1HIDeX1aM86H208Td4gpqQSz2LXADJ4Uq8tnbqFQoa5+rw5Sjt+uX6StNFNOgHmw90OTSZiumknjfYxUu1GSDX8AauOR/+7hIMXkeEK+lw/bonHx1eYevYv5VnHL1v32DnA==","691f8ca61c6b4dcbb0aeb5f4","691fb4b68e64fa45c001fc0f","index1","<span style='color:red'>Fail,<span style='color:red'>Fail,<span style='color:green'>Lift,<span style='color:green'>Lift,<span style='color:red'>Fail,<span style='color:red'>Fail,<span style='color:red'>Fail,<span style='color:red'>Fail,<span style='color:green'>Lift,<span style='color:red'>Fail,<span style='color:green'>Lift,<span style='color:red'>Fail","<span style='color:red'>Fail,<span style='color:red'>Fail,<span style='color:green'>Lift,<span style='color:green'>Lift,<span style='color:green'>Lift,<span style='color:green'>Lift,<span style='color:red'>Fail,<span style='color:green'>Lift,<span style='color:green'>Lift,<span style='color:green'>Lift,<span style='color:green'>Lift,<span style='color:red'>Fail","<span style='color:red'>Fail,<span style='color:green'>Lift,<span style='color:green'>Lift,<span style='color:red'>Fail,<span style='color:green'>Lift,<span style='color:green'>Lift","0,0,1,1,0,0,0,0,1,0,1,0","0,0,1,1,1,1,0,1,1,1,1,0","0,1,1,0,1,1",10,20,20,"","","","","{""box1"":""30""}","",NA,4,"round3_ready",4,4,3,NA,NA,NA,NA,NA,NA,NA,NA,NA,NA,NA,NA,NA,NA,30,30,NA,NA,NA,NA,NA,NA,NA,NA,NA,30,30,NA,NA,NA,NA,NA,NA,NA,NA,NA,NA,"",NA,NA,NA,NA,NA,NA,NA,NA,2025-11-21 01:00:27
"15382.600000023842","https://psyc-201.github.io/xiang2023/exp/index1.html?PROLIFIC_PID=REDACTED&STUDY_ID=691f8ca61c6b4dcbb0aeb5f4&SESSION_ID=691fb4b68e64fa45c001fc0f","survey-html-form",35,968609,"0.0-339.0-0.0","KpJ2lE5gz+XSgx9BcRZCMy9dnxnX9BPLecM0g/Qf7fi88MJhB5jGJPC3clfaQupn0nhvif4p+I0tXyupli+eROICN189kSB4nyV/go/ojtlkHK/UFDoU7w5BurRr5x6DdHZBIBa/jzpYsqVGdxwJefiiYMP8xXpe50kLZD37kB8YXBBwVy4ORAlJcIIiOTteJMEW0iLGe8hk2jmxWne1HIDeX1aM86H208Td4gpqQSz2LXADJ4Uq8tnbqFQoa5+rw5Sjt+uX6StNFNOgHmw90OTSZiumknjfYxUu1GSDX8AauOR/+7hIMXkeEK+lw/bonHx1eYevYv5VnHL1v32DnA==","691f8ca61c6b4dcbb0aeb5f4","691fb4b68e64fa45c001fc0f","index1","<span style='color:red'>Fail,<span style='color:red'>Fail,<span style='color:green'>Lift,<span style='color:green'>Lift,<span style='color:red'>Fail,<span style='color:red'>Fail,<span style='color:red'>Fail,<span style='color:red'>Fail,<span style='color:green'>Lift,<span style='color:red'>Fail,<span style='color:green'>Lift,<span style='color:red'>Fail","<span style='color:red'>Fail,<span style='color:red'>Fail,<span style='color:green'>Lift,<span style='color:green'>Lift,<span style='color:green'>Lift,<span style='color:green'>Lift,<span style='color:red'>Fail,<span style='color:green'>Lift,<span style='color:green'>Lift,<span style='color:green'>Lift,<span style='color:green'>Lift,<span style='color:red'>Fail","<span style='color:red'>Fail,<span style='color:green'>Lift,<span style='color:green'>Lift,<span style='color:red'>Fail,<span style='color:green'>Lift,<span style='color:green'>Lift","0,0,1,1,0,0,0,0,1,0,1,0","0,0,1,1,1,1,0,1,1,1,1,0","0,1,1,0,1,1",10,20,20,"","","","","{""box1"":""4"",""box2"":""8"",""box3"":""40"",""box4"":""50""}","",NA,5,"round3_lift",5,4,3,4,8,40,50,1,1,20,NA,NA,NA,NA,NA,NA,NA,NA,NA,NA,NA,NA,NA,NA,NA,NA,NA,NA,NA,NA,NA,NA,4,8,1,1,20,NA,40,50,"",NA,NA,NA,NA,NA,NA,NA,NA,2025-11-21 01:00:27
"null","https://psyc-201.github.io/xiang2023/exp/index1.html?PROLIFIC_PID=REDACTED&STUDY_ID=691f8ca61c6b4dcbb0aeb5f4&SESSION_ID=691fb4b68e64fa45c001fc0f","html-keyboard-response",36,971625,"0.0-343.0","KpJ2lE5gz+XSgx9BcRZCMy9dnxnX9BPLecM0g/Qf7fi88MJhB5jGJPC3clfaQupn0nhvif4p+I0tXyupli+eROICN189kSB4nyV/go/ojtlkHK/UFDoU7w5BurRr5x6DdHZBIBa/jzpYsqVGdxwJefiiYMP8xXpe50kLZD37kB8YXBBwVy4ORAlJcIIiOTteJMEW0iLGe8hk2jmxWne1HIDeX1aM86H208Td4gpqQSz2LXADJ4Uq8tnbqFQoa5+rw5Sjt+uX6StNFNOgHmw90OTSZiumknjfYxUu1GSDX8AauOR/+7hIMXkeEK+lw/bonHx1eYevYv5VnHL1v32DnA==","691f8ca61c6b4dcbb0aeb5f4","691fb4b68e64fa45c001fc0f","index1","<span style='color:red'>Fail,<span style='color:red'>Fail,<span style='color:green'>Lift,<span style='color:green'>Lift,<span style='color:red'>Fail,<span style='color:red'>Fail,<span style='color:red'>Fail,<span style='color:red'>Fail,<span style='color:green'>Lift,<span style='color:red'>Fail,<span style='color:green'>Lift,<span style='color:red'>Fail","<span style='color:red'>Fail,<span style='color:red'>Fail,<span style='color:green'>Lift,<span style='color:green'>Lift,<span style='color:green'>Lift,<span style='color:green'>Lift,<span style='color:red'>Fail,<span style='color:green'>Lift,<span style='color:green'>Lift,<span style='color:green'>Lift,<span style='color:green'>Lift,<span style='color:red'>Fail","<span style='color:red'>Fail,<span style='color:green'>Lift,<span style='color:green'>Lift,<span style='color:red'>Fail,<span style='color:green'>Lift,<span style='color:green'>Lift","0,0,1,1,0,0,0,0,1,0,1,0","0,0,1,1,1,1,0,1,1,1,1,0","0,1,1,0,1,1",10,20,20,"","","<p style='font-size:30px'><b> New Contest! </b></p>","null","","",NA,5,"",NA,NA,NA,NA,NA,NA,NA,NA,NA,NA,NA,NA,NA,NA,NA,NA,NA,NA,NA,NA,NA,NA,NA,NA,NA,NA,NA,NA,NA,NA,NA,NA,NA,NA,NA,NA,NA,NA,NA,NA,"",NA,NA,NA,NA,NA,NA,NA,NA,2025-11-21 01:00:27
"11114.90000000596","https://psyc-201.github.io/xiang2023/exp/index1.html?PROLIFIC_PID=REDACTED&STUDY_ID=691f8ca61c6b4dcbb0aeb5f4&SESSION_ID=691fb4b68e64fa45c001fc0f","survey-html-form",37,982743,"0.0-344.0","KpJ2lE5gz+XSgx9BcRZCMy9dnxnX9BPLecM0g/Qf7fi88MJhB5jGJPC3clfaQupn0nhvif4p+I0tXyupli+eROICN189kSB4nyV/go/ojtlkHK/UFDoU7w5BurRr5x6DdHZBIBa/jzpYsqVGdxwJefiiYMP8xXpe50kLZD37kB8YXBBwVy4ORAlJcIIiOTteJMEW0iLGe8hk2jmxWne1HIDeX1aM86H208Td4gpqQSz2LXADJ4Uq8tnbqFQoa5+rw5Sjt+uX6StNFNOgHmw90OTSZiumknjfYxUu1GSDX8AauOR/+7hIMXkeEK+lw/bonHx1eYevYv5VnHL1v32DnA==","691f8ca61c6b4dcbb0aeb5f4","691fb4b68e64fa45c001fc0f","index1","<span style='color:red'>Fail,<span style='color:red'>Fail,<span style='color:green'>Lift,<span style='color:green'>Lift,<span style='color:red'>Fail,<span style='color:red'>Fail,<span style='color:red'>Fail,<span style='color:red'>Fail,<span style='color:green'>Lift,<span style='color:red'>Fail,<span style='color:green'>Lift,<span style='color:red'>Fail","<span style='color:red'>Fail,<span style='color:red'>Fail,<span style='color:green'>Lift,<span style='color:green'>Lift,<span style='color:green'>Lift,<span style='color:green'>Lift,<span style='color:red'>Fail,<span style='color:green'>Lift,<span style='color:green'>Lift,<span style='color:green'>Lift,<span style='color:green'>Lift,<span style='color:red'>Fail","<span style='color:red'>Fail,<span style='color:green'>Lift,<span style='color:green'>Lift,<span style='color:red'>Fail,<span style='color:green'>Lift,<span style='color:green'>Lift","0,0,1,1,0,0,0,0,1,0,1,0","0,0,1,1,1,1,0,1,1,1,1,0","0,1,1,0,1,1",10,20,20,"","","","","{""box1"":""2"",""box2"":""5"",""box3"":""60""}","",NA,5,"round1_outcome",1,5,1,2,5,60,NA,1,0,10,2,5,60,NA,1,0,10,NA,NA,NA,NA,NA,NA,NA,NA,NA,NA,NA,NA,NA,NA,NA,NA,NA,NA,NA,NA,NA,NA,NA,"",NA,NA,NA,NA,NA,NA,NA,NA,2025-11-21 01:00:27
"12994.800000011921","https://psyc-201.github.io/xiang2023/exp/index1.html?PROLIFIC_PID=REDACTED&STUDY_ID=691f8ca61c6b4dcbb0aeb5f4&SESSION_ID=691fb4b68e64fa45c001fc0f","survey-html-form",38,995740,"0.0-345.0","KpJ2lE5gz+XSgx9BcRZCMy9dnxnX9BPLecM0g/Qf7fi88MJhB5jGJPC3clfaQupn0nhvif4p+I0tXyupli+eROICN189kSB4nyV/go/ojtlkHK/UFDoU7w5BurRr5x6DdHZBIBa/jzpYsqVGdxwJefiiYMP8xXpe50kLZD37kB8YXBBwVy4ORAlJcIIiOTteJMEW0iLGe8hk2jmxWne1HIDeX1aM86H208Td4gpqQSz2LXADJ4Uq8tnbqFQoa5+rw5Sjt+uX6StNFNOgHmw90OTSZiumknjfYxUu1GSDX8AauOR/+7hIMXkeEK+lw/bonHx1eYevYv5VnHL1v32DnA==","691f8ca61c6b4dcbb0aeb5f4","691fb4b68e64fa45c001fc0f","index1","<span style='color:red'>Fail,<span style='color:red'>Fail,<span style='color:green'>Lift,<span style='color:green'>Lift,<span style='color:red'>Fail,<span style='color:red'>Fail,<span style='color:red'>Fail,<span style='color:red'>Fail,<span style='color:green'>Lift,<span style='color:red'>Fail,<span style='color:green'>Lift,<span style='color:red'>Fail","<span style='color:red'>Fail,<span style='color:red'>Fail,<span style='color:green'>Lift,<span style='color:green'>Lift,<span style='color:green'>Lift,<span style='color:green'>Lift,<span style='color:red'>Fail,<span style='color:green'>Lift,<span style='color:green'>Lift,<span style='color:green'>Lift,<span style='color:green'>Lift,<span style='color:red'>Fail","<span style='color:red'>Fail,<span style='color:green'>Lift,<span style='color:green'>Lift,<span style='color:red'>Fail,<span style='color:green'>Lift,<span style='color:green'>Lift","0,0,1,1,0,0,0,0,1,0,1,0","0,0,1,1,1,1,0,1,1,1,1,0","0,1,1,0,1,1",10,20,20,"","","","","{""box1"":""60"",""box2"":""70""}","",NA,5,"round2_ready",2,5,2,NA,NA,NA,NA,NA,NA,NA,NA,NA,NA,NA,NA,NA,NA,60,70,60,70,NA,NA,NA,NA,NA,NA,NA,NA,NA,NA,NA,NA,NA,NA,NA,NA,NA,NA,NA,"",NA,NA,NA,NA,NA,NA,NA,NA,2025-11-21 01:00:27
"10197.5","https://psyc-201.github.io/xiang2023/exp/index1.html?PROLIFIC_PID=REDACTED&STUDY_ID=691f8ca61c6b4dcbb0aeb5f4&SESSION_ID=691fb4b68e64fa45c001fc0f","survey-html-form",39,1005941,"0.0-346.0","KpJ2lE5gz+XSgx9BcRZCMy9dnxnX9BPLecM0g/Qf7fi88MJhB5jGJPC3clfaQupn0nhvif4p+I0tXyupli+eROICN189kSB4nyV/go/ojtlkHK/UFDoU7w5BurRr5x6DdHZBIBa/jzpYsqVGdxwJefiiYMP8xXpe50kLZD37kB8YXBBwVy4ORAlJcIIiOTteJMEW0iLGe8hk2jmxWne1HIDeX1aM86H208Td4gpqQSz2LXADJ4Uq8tnbqFQoa5+rw5Sjt+uX6StNFNOgHmw90OTSZiumknjfYxUu1GSDX8AauOR/+7hIMXkeEK+lw/bonHx1eYevYv5VnHL1v32DnA==","691f8ca61c6b4dcbb0aeb5f4","691fb4b68e64fa45c001fc0f","index1","<span style='color:red'>Fail,<span style='color:red'>Fail,<span style='color:green'>Lift,<span style='color:green'>Lift,<span style='color:red'>Fail,<span style='color:red'>Fail,<span style='color:red'>Fail,<span style='color:red'>Fail,<span style='color:green'>Lift,<span style='color:red'>Fail,<span style='color:green'>Lift,<span style='color:red'>Fail","<span style='color:red'>Fail,<span style='color:red'>Fail,<span style='color:green'>Lift,<span style='color:green'>Lift,<span style='color:green'>Lift,<span style='color:green'>Lift,<span style='color:red'>Fail,<span style='color:green'>Lift,<span style='color:green'>Lift,<span style='color:green'>Lift,<span style='color:green'>Lift,<span style='color:red'>Fail","<span style='color:red'>Fail,<span style='color:green'>Lift,<span style='color:green'>Lift,<span style='color:red'>Fail,<span style='color:green'>Lift,<span style='color:green'>Lift","0,0,1,1,0,0,0,0,1,0,1,0","0,0,1,1,1,1,0,1,1,1,1,0","0,1,1,0,1,1",10,20,20,"","","","","{""box1"":""2"",""box2"":""3"",""box3"":""30""}","",NA,5,"round2_outcome",3,5,2,2,3,30,NA,1,0,20,NA,NA,NA,NA,NA,NA,NA,NA,NA,NA,NA,2,3,30,NA,1,0,20,NA,NA,NA,NA,NA,NA,NA,NA,NA,NA,NA,NA,"",NA,NA,NA,NA,NA,NA,NA,NA,2025-11-21 01:00:27
"4637.699999988079","https://psyc-201.github.io/xiang2023/exp/index1.html?PROLIFIC_PID=REDACTED&STUDY_ID=691f8ca61c6b4dcbb0aeb5f4&SESSION_ID=691fb4b68e64fa45c001fc0f","survey-html-form",40,1010583,"0.0-347.0","KpJ2lE5gz+XSgx9BcRZCMy9dnxnX9BPLecM0g/Qf7fi88MJhB5jGJPC3clfaQupn0nhvif4p+I0tXyupli+eROICN189kSB4nyV/go/ojtlkHK/UFDoU7w5BurRr5x6DdHZBIBa/jzpYsqVGdxwJefiiYMP8xXpe50kLZD37kB8YXBBwVy4ORAlJcIIiOTteJMEW0iLGe8hk2jmxWne1HIDeX1aM86H208Td4gpqQSz2LXADJ4Uq8tnbqFQoa5+rw5Sjt+uX6StNFNOgHmw90OTSZiumknjfYxUu1GSDX8AauOR/+7hIMXkeEK+lw/bonHx1eYevYv5VnHL1v32DnA==","691f8ca61c6b4dcbb0aeb5f4","691fb4b68e64fa45c001fc0f","index1","<span style='color:red'>Fail,<span style='color:red'>Fail,<span style='color:green'>Lift,<span style='color:green'>Lift,<span style='color:red'>Fail,<span style='color:red'>Fail,<span style='color:red'>Fail,<span style='color:red'>Fail,<span style='color:green'>Lift,<span style='color:red'>Fail,<span style='color:green'>Lift,<span style='color:red'>Fail","<span style='color:red'>Fail,<span style='color:red'>Fail,<span style='color:green'>Lift,<span style='color:green'>Lift,<span style='color:green'>Lift,<span style='color:green'>Lift,<span style='color:red'>Fail,<span style='color:green'>Lift,<span style='color:green'>Lift,<span style='color:green'>Lift,<span style='color:green'>Lift,<span style='color:red'>Fail","<span style='color:red'>Fail,<span style='color:green'>Lift,<span style='color:green'>Lift,<span style='color:red'>Fail,<span style='color:green'>Lift,<span style='color:green'>Lift","0,0,1,1,0,0,0,0,1,0,1,0","0,0,1,1,1,1,0,1,1,1,1,0","0,1,1,0,1,1",10,20,20,"","","","","{""box1"":""45""}","",NA,5,"round3_ready",4,5,3,NA,NA,NA,NA,NA,NA,NA,NA,NA,NA,NA,NA,NA,NA,45,45,NA,NA,NA,NA,NA,NA,NA,NA,NA,45,45,NA,NA,NA,NA,NA,NA,NA,NA,NA,NA,"",NA,NA,NA,NA,NA,NA,NA,NA,2025-11-21 01:00:27
"23045.80000001192","https://psyc-201.github.io/xiang2023/exp/index1.html?PROLIFIC_PID=REDACTED&STUDY_ID=691f8ca61c6b4dcbb0aeb5f4&SESSION_ID=691fb4b68e64fa45c001fc0f","survey-html-form",41,1033632,"0.0-348.0-0.0","KpJ2lE5gz+XSgx9BcRZCMy9dnxnX9BPLecM0g/Qf7fi88MJhB5jGJPC3clfaQupn0nhvif4p+I0tXyupli+eROICN189kSB4nyV/go/ojtlkHK/UFDoU7w5BurRr5x6DdHZBIBa/jzpYsqVGdxwJefiiYMP8xXpe50kLZD37kB8YXBBwVy4ORAlJcIIiOTteJMEW0iLGe8hk2jmxWne1HIDeX1aM86H208Td4gpqQSz2LXADJ4Uq8tnbqFQoa5+rw5Sjt+uX6StNFNOgHmw90OTSZiumknjfYxUu1GSDX8AauOR/+7hIMXkeEK+lw/bonHx1eYevYv5VnHL1v32DnA==","691f8ca61c6b4dcbb0aeb5f4","691fb4b68e64fa45c001fc0f","index1","<span style='color:red'>Fail,<span style='color:red'>Fail,<span style='color:green'>Lift,<span style='color:green'>Lift,<span style='color:red'>Fail,<span style='color:red'>Fail,<span style='color:red'>Fail,<span style='color:red'>Fail,<span style='color:green'>Lift,<span style='color:red'>Fail,<span style='color:green'>Lift,<span style='color:red'>Fail","<span style='color:red'>Fail,<span style='color:red'>Fail,<span style='color:green'>Lift,<span style='color:green'>Lift,<span style='color:green'>Lift,<span style='color:green'>Lift,<span style='color:red'>Fail,<span style='color:green'>Lift,<span style='color:green'>Lift,<span style='color:green'>Lift,<span style='color:green'>Lift,<span style='color:red'>Fail","<span style='color:red'>Fail,<span style='color:green'>Lift,<span style='color:green'>Lift,<span style='color:red'>Fail,<span style='color:green'>Lift,<span style='color:green'>Lift","0,0,1,1,0,0,0,0,1,0,1,0","0,0,1,1,1,1,0,1,1,1,1,0","0,1,1,0,1,1",10,20,20,"","","","","{""box1"":""4"",""box2"":""7"",""box3"":""40"",""box4"":""50""}","",NA,6,"round3_lift",5,5,3,4,7,40,50,1,1,20,NA,NA,NA,NA,NA,NA,NA,NA,NA,NA,NA,NA,NA,NA,NA,NA,NA,NA,NA,NA,NA,NA,4,7,1,1,20,NA,40,50,"",NA,NA,NA,NA,NA,NA,NA,NA,2025-11-21 01:00:27
"null","https://psyc-201.github.io/xiang2023/exp/index1.html?PROLIFIC_PID=REDACTED&STUDY_ID=691f8ca61c6b4dcbb0aeb5f4&SESSION_ID=691fb4b68e64fa45c001fc0f","html-keyboard-response",42,1036644,"0.0-352.0","KpJ2lE5gz+XSgx9BcRZCMy9dnxnX9BPLecM0g/Qf7fi88MJhB5jGJPC3clfaQupn0nhvif4p+I0tXyupli+eROICN189kSB4nyV/go/ojtlkHK/UFDoU7w5BurRr5x6DdHZBIBa/jzpYsqVGdxwJefiiYMP8xXpe50kLZD37kB8YXBBwVy4ORAlJcIIiOTteJMEW0iLGe8hk2jmxWne1HIDeX1aM86H208Td4gpqQSz2LXADJ4Uq8tnbqFQoa5+rw5Sjt+uX6StNFNOgHmw90OTSZiumknjfYxUu1GSDX8AauOR/+7hIMXkeEK+lw/bonHx1eYevYv5VnHL1v32DnA==","691f8ca61c6b4dcbb0aeb5f4","691fb4b68e64fa45c001fc0f","index1","<span style='color:red'>Fail,<span style='color:red'>Fail,<span style='color:green'>Lift,<span style='color:green'>Lift,<span style='color:red'>Fail,<span style='color:red'>Fail,<span style='color:red'>Fail,<span style='color:red'>Fail,<span style='color:green'>Lift,<span style='color:red'>Fail,<span style='color:green'>Lift,<span style='color:red'>Fail","<span style='color:red'>Fail,<span style='color:red'>Fail,<span style='color:green'>Lift,<span style='color:green'>Lift,<span style='color:green'>Lift,<span style='color:green'>Lift,<span style='color:red'>Fail,<span style='color:green'>Lift,<span style='color:green'>Lift,<span style='color:green'>Lift,<span style='color:green'>Lift,<span style='color:red'>Fail","<span style='color:red'>Fail,<span style='color:green'>Lift,<span style='color:green'>Lift,<span style='color:red'>Fail,<span style='color:green'>Lift,<span style='color:green'>Lift","0,0,1,1,0,0,0,0,1,0,1,0","0,0,1,1,1,1,0,1,1,1,1,0","0,1,1,0,1,1",10,20,20,"","","<p style='font-size:30px'><b> New Contest! </b></p>","null","","",NA,6,"",NA,NA,NA,NA,NA,NA,NA,NA,NA,NA,NA,NA,NA,NA,NA,NA,NA,NA,NA,NA,NA,NA,NA,NA,NA,NA,NA,NA,NA,NA,NA,NA,NA,NA,NA,NA,NA,NA,NA,NA,"",NA,NA,NA,NA,NA,NA,NA,NA,2025-11-21 01:00:27
"12417.700000017881","https://psyc-201.github.io/xiang2023/exp/index1.html?PROLIFIC_PID=REDACTED&STUDY_ID=691f8ca61c6b4dcbb0aeb5f4&SESSION_ID=691fb4b68e64fa45c001fc0f","survey-html-form",43,1049064,"0.0-353.0","KpJ2lE5gz+XSgx9BcRZCMy9dnxnX9BPLecM0g/Qf7fi88MJhB5jGJPC3clfaQupn0nhvif4p+I0tXyupli+eROICN189kSB4nyV/go/ojtlkHK/UFDoU7w5BurRr5x6DdHZBIBa/jzpYsqVGdxwJefiiYMP8xXpe50kLZD37kB8YXBBwVy4ORAlJcIIiOTteJMEW0iLGe8hk2jmxWne1HIDeX1aM86H208Td4gpqQSz2LXADJ4Uq8tnbqFQoa5+rw5Sjt+uX6StNFNOgHmw90OTSZiumknjfYxUu1GSDX8AauOR/+7hIMXkeEK+lw/bonHx1eYevYv5VnHL1v32DnA==","691f8ca61c6b4dcbb0aeb5f4","691fb4b68e64fa45c001fc0f","index1","<span style='color:red'>Fail,<span style='color:red'>Fail,<span style='color:green'>Lift,<span style='color:green'>Lift,<span style='color:red'>Fail,<span style='color:red'>Fail,<span style='color:red'>Fail,<span style='color:red'>Fail,<span style='color:green'>Lift,<span style='color:red'>Fail,<span style='color:green'>Lift,<span style='color:red'>Fail","<span style='color:red'>Fail,<span style='color:red'>Fail,<span style='color:green'>Lift,<span style='color:green'>Lift,<span style='color:green'>Lift,<span style='color:green'>Lift,<span style='color:red'>Fail,<span style='color:green'>Lift,<span style='color:green'>Lift,<span style='color:green'>Lift,<span style='color:green'>Lift,<span style='color:red'>Fail","<span style='color:red'>Fail,<span style='color:green'>Lift,<span style='color:green'>Lift,<span style='color:red'>Fail,<span style='color:green'>Lift,<span style='color:green'>Lift","0,0,1,1,0,0,0,0,1,0,1,0","0,0,1,1,1,1,0,1,1,1,1,0","0,1,1,0,1,1",10,20,20,"","","","","{""box1"":""7"",""box2"":""3"",""box3"":""70""}","",NA,6,"round1_outcome",1,6,1,7,3,70,NA,1,0,10,7,3,70,NA,1,0,10,NA,NA,NA,NA,NA,NA,NA,NA,NA,NA,NA,NA,NA,NA,NA,NA,NA,NA,NA,NA,NA,NA,NA,"",NA,NA,NA,NA,NA,NA,NA,NA,2025-11-21 01:00:27
"9328.5","https://psyc-201.github.io/xiang2023/exp/index1.html?PROLIFIC_PID=REDACTED&STUDY_ID=691f8ca61c6b4dcbb0aeb5f4&SESSION_ID=691fb4b68e64fa45c001fc0f","survey-html-form",44,1058395,"0.0-354.0","KpJ2lE5gz+XSgx9BcRZCMy9dnxnX9BPLecM0g/Qf7fi88MJhB5jGJPC3clfaQupn0nhvif4p+I0tXyupli+eROICN189kSB4nyV/go/ojtlkHK/UFDoU7w5BurRr5x6DdHZBIBa/jzpYsqVGdxwJefiiYMP8xXpe50kLZD37kB8YXBBwVy4ORAlJcIIiOTteJMEW0iLGe8hk2jmxWne1HIDeX1aM86H208Td4gpqQSz2LXADJ4Uq8tnbqFQoa5+rw5Sjt+uX6StNFNOgHmw90OTSZiumknjfYxUu1GSDX8AauOR/+7hIMXkeEK+lw/bonHx1eYevYv5VnHL1v32DnA==","691f8ca61c6b4dcbb0aeb5f4","691fb4b68e64fa45c001fc0f","index1","<span style='color:red'>Fail,<span style='color:red'>Fail,<span style='color:green'>Lift,<span style='color:green'>Lift,<span style='color:red'>Fail,<span style='color:red'>Fail,<span style='color:red'>Fail,<span style='color:red'>Fail,<span style='color:green'>Lift,<span style='color:red'>Fail,<span style='color:green'>Lift,<span style='color:red'>Fail","<span style='color:red'>Fail,<span style='color:red'>Fail,<span style='color:green'>Lift,<span style='color:green'>Lift,<span style='color:green'>Lift,<span style='color:green'>Lift,<span style='color:red'>Fail,<span style='color:green'>Lift,<span style='color:green'>Lift,<span style='color:green'>Lift,<span style='color:green'>Lift,<span style='color:red'>Fail","<span style='color:red'>Fail,<span style='color:green'>Lift,<span style='color:green'>Lift,<span style='color:red'>Fail,<span style='color:green'>Lift,<span style='color:green'>Lift","0,0,1,1,0,0,0,0,1,0,1,0","0,0,1,1,1,1,0,1,1,1,1,0","0,1,1,0,1,1",10,20,20,"","","","","{""box1"":""70"",""box2"":""30""}","",NA,6,"round2_ready",2,6,2,NA,NA,NA,NA,NA,NA,NA,NA,NA,NA,NA,NA,NA,NA,70,30,70,30,NA,NA,NA,NA,NA,NA,NA,NA,NA,NA,NA,NA,NA,NA,NA,NA,NA,NA,NA,"",NA,NA,NA,NA,NA,NA,NA,NA,2025-11-21 01:00:27
"24091.600000023842","https://psyc-201.github.io/xiang2023/exp/index1.html?PROLIFIC_PID=REDACTED&STUDY_ID=691f8ca61c6b4dcbb0aeb5f4&SESSION_ID=691fb4b68e64fa45c001fc0f","survey-html-form",45,1082489,"0.0-355.0","KpJ2lE5gz+XSgx9BcRZCMy9dnxnX9BPLecM0g/Qf7fi88MJhB5jGJPC3clfaQupn0nhvif4p+I0tXyupli+eROICN189kSB4nyV/go/ojtlkHK/UFDoU7w5BurRr5x6DdHZBIBa/jzpYsqVGdxwJefiiYMP8xXpe50kLZD37kB8YXBBwVy4ORAlJcIIiOTteJMEW0iLGe8hk2jmxWne1HIDeX1aM86H208Td4gpqQSz2LXADJ4Uq8tnbqFQoa5+rw5Sjt+uX6StNFNOgHmw90OTSZiumknjfYxUu1GSDX8AauOR/+7hIMXkeEK+lw/bonHx1eYevYv5VnHL1v32DnA==","691f8ca61c6b4dcbb0aeb5f4","691fb4b68e64fa45c001fc0f","index1","<span style='color:red'>Fail,<span style='color:red'>Fail,<span style='color:green'>Lift,<span style='color:green'>Lift,<span style='color:red'>Fail,<span style='color:red'>Fail,<span style='color:red'>Fail,<span style='color:red'>Fail,<span style='color:green'>Lift,<span style='color:red'>Fail,<span style='color:green'>Lift,<span style='color:red'>Fail","<span style='color:red'>Fail,<span style='color:red'>Fail,<span style='color:green'>Lift,<span style='color:green'>Lift,<span style='color:green'>Lift,<span style='color:green'>Lift,<span style='color:red'>Fail,<span style='color:green'>Lift,<span style='color:green'>Lift,<span style='color:green'>Lift,<span style='color:green'>Lift,<span style='color:red'>Fail","<span style='color:red'>Fail,<span style='color:green'>Lift,<span style='color:green'>Lift,<span style='color:red'>Fail,<span style='color:green'>Lift,<span style='color:green'>Lift","0,0,1,1,0,0,0,0,1,0,1,0","0,0,1,1,1,1,0,1,1,1,1,0","0,1,1,0,1,1",10,20,20,"","","","","{""box1"":""6"",""box2"":""6"",""box3"":""20"",""box4"":""80""}","",NA,6,"round2_outcome",3,6,2,6,6,20,80,1,1,20,NA,NA,NA,NA,NA,NA,NA,NA,NA,NA,NA,6,6,20,80,1,1,20,NA,NA,NA,NA,NA,NA,NA,NA,NA,NA,NA,NA,"",NA,NA,NA,NA,NA,NA,NA,NA,2025-11-21 01:00:27
"6025.299999982119","https://psyc-201.github.io/xiang2023/exp/index1.html?PROLIFIC_PID=REDACTED&STUDY_ID=691f8ca61c6b4dcbb0aeb5f4&SESSION_ID=691fb4b68e64fa45c001fc0f","survey-html-form",46,1088517,"0.0-356.0","KpJ2lE5gz+XSgx9BcRZCMy9dnxnX9BPLecM0g/Qf7fi88MJhB5jGJPC3clfaQupn0nhvif4p+I0tXyupli+eROICN189kSB4nyV/go/ojtlkHK/UFDoU7w5BurRr5x6DdHZBIBa/jzpYsqVGdxwJefiiYMP8xXpe50kLZD37kB8YXBBwVy4ORAlJcIIiOTteJMEW0iLGe8hk2jmxWne1HIDeX1aM86H208Td4gpqQSz2LXADJ4Uq8tnbqFQoa5+rw5Sjt+uX6StNFNOgHmw90OTSZiumknjfYxUu1GSDX8AauOR/+7hIMXkeEK+lw/bonHx1eYevYv5VnHL1v32DnA==","691f8ca61c6b4dcbb0aeb5f4","691fb4b68e64fa45c001fc0f","index1","<span style='color:red'>Fail,<span style='color:red'>Fail,<span style='color:green'>Lift,<span style='color:green'>Lift,<span style='color:red'>Fail,<span style='color:red'>Fail,<span style='color:red'>Fail,<span style='color:red'>Fail,<span style='color:green'>Lift,<span style='color:red'>Fail,<span style='color:green'>Lift,<span style='color:red'>Fail","<span style='color:red'>Fail,<span style='color:red'>Fail,<span style='color:green'>Lift,<span style='color:green'>Lift,<span style='color:green'>Lift,<span style='color:green'>Lift,<span style='color:red'>Fail,<span style='color:green'>Lift,<span style='color:green'>Lift,<span style='color:green'>Lift,<span style='color:green'>Lift,<span style='color:red'>Fail","<span style='color:red'>Fail,<span style='color:green'>Lift,<span style='color:green'>Lift,<span style='color:red'>Fail,<span style='color:green'>Lift,<span style='color:green'>Lift","0,0,1,1,0,0,0,0,1,0,1,0","0,0,1,1,1,1,0,1,1,1,1,0","0,1,1,0,1,1",10,20,20,"","","","","{""box1"":""80""}","",NA,6,"round3_ready",4,6,3,NA,NA,NA,NA,NA,NA,NA,NA,NA,NA,NA,NA,NA,NA,80,80,NA,NA,NA,NA,NA,NA,NA,NA,NA,80,80,NA,NA,NA,NA,NA,NA,NA,NA,NA,NA,"",NA,NA,NA,NA,NA,NA,NA,NA,2025-11-21 01:00:27
"15895.800000011921","https://psyc-201.github.io/xiang2023/exp/index1.html?PROLIFIC_PID=REDACTED&STUDY_ID=691f8ca61c6b4dcbb0aeb5f4&SESSION_ID=691fb4b68e64fa45c001fc0f","survey-html-form",47,1104416,"0.0-357.0-0.0","KpJ2lE5gz+XSgx9BcRZCMy9dnxnX9BPLecM0g/Qf7fi88MJhB5jGJPC3clfaQupn0nhvif4p+I0tXyupli+eROICN189kSB4nyV/go/ojtlkHK/UFDoU7w5BurRr5x6DdHZBIBa/jzpYsqVGdxwJefiiYMP8xXpe50kLZD37kB8YXBBwVy4ORAlJcIIiOTteJMEW0iLGe8hk2jmxWne1HIDeX1aM86H208Td4gpqQSz2LXADJ4Uq8tnbqFQoa5+rw5Sjt+uX6StNFNOgHmw90OTSZiumknjfYxUu1GSDX8AauOR/+7hIMXkeEK+lw/bonHx1eYevYv5VnHL1v32DnA==","691f8ca61c6b4dcbb0aeb5f4","691fb4b68e64fa45c001fc0f","index1","<span style='color:red'>Fail,<span style='color:red'>Fail,<span style='color:green'>Lift,<span style='color:green'>Lift,<span style='color:red'>Fail,<span style='color:red'>Fail,<span style='color:red'>Fail,<span style='color:red'>Fail,<span style='color:green'>Lift,<span style='color:red'>Fail,<span style='color:green'>Lift,<span style='color:red'>Fail","<span style='color:red'>Fail,<span style='color:red'>Fail,<span style='color:green'>Lift,<span style='color:green'>Lift,<span style='color:green'>Lift,<span style='color:green'>Lift,<span style='color:red'>Fail,<span style='color:green'>Lift,<span style='color:green'>Lift,<span style='color:green'>Lift,<span style='color:green'>Lift,<span style='color:red'>Fail","<span style='color:red'>Fail,<span style='color:green'>Lift,<span style='color:green'>Lift,<span style='color:red'>Fail,<span style='color:green'>Lift,<span style='color:green'>Lift","0,0,1,1,0,0,0,0,1,0,1,0","0,0,1,1,1,1,0,1,1,1,1,0","0,1,1,0,1,1",10,20,20,"","","","","{""box1"":""7"",""box2"":""3"",""box3"":""56"",""box4"":""34""}","",NA,6,"round3_lift",5,6,3,7,3,56,34,1,1,20,NA,NA,NA,NA,NA,NA,NA,NA,NA,NA,NA,NA,NA,NA,NA,NA,NA,NA,NA,NA,NA,NA,7,3,1,1,20,NA,56,34,"",NA,NA,NA,NA,NA,NA,NA,NA,2025-11-21 01:00:27
"63323.69999998808","https://psyc-201.github.io/xiang2023/exp/index1.html?PROLIFIC_PID=REDACTED&STUDY_ID=691f8ca61c6b4dcbb0aeb5f4&SESSION_ID=691fb4b68e64fa45c001fc0f","survey-text",48,1167757,"0.0-361.0","KpJ2lE5gz+XSgx9BcRZCMy9dnxnX9BPLecM0g/Qf7fi88MJhB5jGJPC3clfaQupn0nhvif4p+I0tXyupli+eROICN189kSB4nyV/go/ojtlkHK/UFDoU7w5BurRr5x6DdHZBIBa/jzpYsqVGdxwJefiiYMP8xXpe50kLZD37kB8YXBBwVy4ORAlJcIIiOTteJMEW0iLGe8hk2jmxWne1HIDeX1aM86H208Td4gpqQSz2LXADJ4Uq8tnbqFQoa5+rw5Sjt+uX6StNFNOgHmw90OTSZiumknjfYxUu1GSDX8AauOR/+7hIMXkeEK+lw/bonHx1eYevYv5VnHL1v32DnA==","691f8ca61c6b4dcbb0aeb5f4","691fb4b68e64fa45c001fc0f","index1","<span style='color:red'>Fail,<span style='color:red'>Fail,<span style='color:green'>Lift,<span style='color:green'>Lift,<span style='color:red'>Fail,<span style='color:red'>Fail,<span style='color:red'>Fail,<span style='color:red'>Fail,<span style='color:green'>Lift,<span style='color:red'>Fail,<span style='color:green'>Lift,<span style='color:red'>Fail","<span style='color:red'>Fail,<span style='color:red'>Fail,<span style='color:green'>Lift,<span style='color:green'>Lift,<span style='color:green'>Lift,<span style='color:green'>Lift,<span style='color:red'>Fail,<span style='color:green'>Lift,<span style='color:green'>Lift,<span style='color:green'>Lift,<span style='color:green'>Lift,<span style='color:red'>Fail","<span style='color:red'>Fail,<span style='color:green'>Lift,<span style='color:green'>Lift,<span style='color:red'>Fail,<span style='color:green'>Lift,<span style='color:green'>Lift","0,0,1,1,0,0,0,0,1,0,1,0","0,0,1,1,1,1,0,1,1,1,1,0","0,1,1,0,1,1",10,20,20,"","","","","{""Q0"":""I was to guess the probability of two contestant lifting the box. ""}","",NA,NA,"",NA,NA,NA,NA,NA,NA,NA,NA,NA,NA,NA,NA,NA,NA,NA,NA,NA,NA,NA,NA,NA,NA,NA,NA,NA,NA,NA,NA,NA,NA,NA,NA,NA,NA,NA,NA,NA,NA,NA,NA,"",NA,NA,NA,NA,NA,NA,NA,NA,2025-11-21 01:00:27
"5598.5999999940395","https://psyc-201.github.io/xiang2023/exp/index1.html?PROLIFIC_PID=REDACTED&STUDY_ID=691f8ca61c6b4dcbb0aeb5f4&SESSION_ID=691fb4b68e64fa45c001fc0f","survey-text",49,1173358,"0.0-362.0","KpJ2lE5gz+XSgx9BcRZCMy9dnxnX9BPLecM0g/Qf7fi88MJhB5jGJPC3clfaQupn0nhvif4p+I0tXyupli+eROICN189kSB4nyV/go/ojtlkHK/UFDoU7w5BurRr5x6DdHZBIBa/jzpYsqVGdxwJefiiYMP8xXpe50kLZD37kB8YXBBwVy4ORAlJcIIiOTteJMEW0iLGe8hk2jmxWne1HIDeX1aM86H208Td4gpqQSz2LXADJ4Uq8tnbqFQoa5+rw5Sjt+uX6StNFNOgHmw90OTSZiumknjfYxUu1GSDX8AauOR/+7hIMXkeEK+lw/bonHx1eYevYv5VnHL1v32DnA==","691f8ca61c6b4dcbb0aeb5f4","691fb4b68e64fa45c001fc0f","index1","<span style='color:red'>Fail,<span style='color:red'>Fail,<span style='color:green'>Lift,<span style='color:green'>Lift,<span style='color:red'>Fail,<span style='color:red'>Fail,<span style='color:red'>Fail,<span style='color:red'>Fail,<span style='color:green'>Lift,<span style='color:red'>Fail,<span style='color:green'>Lift,<span style='color:red'>Fail","<span style='color:red'>Fail,<span style='color:red'>Fail,<span style='color:green'>Lift,<span style='color:green'>Lift,<span style='color:green'>Lift,<span style='color:green'>Lift,<span style='color:red'>Fail,<span style='color:green'>Lift,<span style='color:green'>Lift,<span style='color:green'>Lift,<span style='color:green'>Lift,<span style='color:red'>Fail","<span style='color:red'>Fail,<span style='color:green'>Lift,<span style='color:green'>Lift,<span style='color:red'>Fail,<span style='color:green'>Lift,<span style='color:green'>Lift","0,0,1,1,0,0,0,0,1,0,1,0","0,0,1,1,1,1,0,1,1,1,1,0","0,1,1,0,1,1",10,20,20,"","","","","{""Q0"":""""}","",NA,NA,"",NA,NA,NA,NA,NA,NA,NA,NA,NA,NA,NA,NA,NA,NA,NA,NA,NA,NA,NA,NA,NA,NA,NA,NA,NA,NA,NA,NA,NA,NA,NA,NA,NA,NA,NA,NA,NA,NA,NA,NA,"[{""event"":""fullscreenenter"",""trial"":1,""time"":74480}]",1,2,0,20,0,0.8,NA,NA,2025-11-21 01:00:27
"9163.90000000596","https://psyc-201.github.io/xiang2023/exp/index1.html?PROLIFIC_PID=REDACTED&STUDY_ID=691f8ca61c6b4dcbb0aeb5f4&SESSION_ID=691fb4b68e64fa45c001fc0f","html-button-response",50,1182526,"0.0-363.0","KpJ2lE5gz+XSgx9BcRZCMy9dnxnX9BPLecM0g/Qf7fi88MJhB5jGJPC3clfaQupn0nhvif4p+I0tXyupli+eROICN189kSB4nyV/go/ojtlkHK/UFDoU7w5BurRr5x6DdHZBIBa/jzpYsqVGdxwJefiiYMP8xXpe50kLZD37kB8YXBBwVy4ORAlJcIIiOTteJMEW0iLGe8hk2jmxWne1HIDeX1aM86H208Td4gpqQSz2LXADJ4Uq8tnbqFQoa5+rw5Sjt+uX6StNFNOgHmw90OTSZiumknjfYxUu1GSDX8AauOR/+7hIMXkeEK+lw/bonHx1eYevYv5VnHL1v32DnA==","691f8ca61c6b4dcbb0aeb5f4","691fb4b68e64fa45c001fc0f","index1","<span style='color:red'>Fail,<span style='color:red'>Fail,<span style='color:green'>Lift,<span style='color:green'>Lift,<span style='color:red'>Fail,<span style='color:red'>Fail,<span style='color:red'>Fail,<span style='color:red'>Fail,<span style='color:green'>Lift,<span style='color:red'>Fail,<span style='color:green'>Lift,<span style='color:red'>Fail","<span style='color:red'>Fail,<span style='color:red'>Fail,<span style='color:green'>Lift,<span style='color:green'>Lift,<span style='color:green'>Lift,<span style='color:green'>Lift,<span style='color:red'>Fail,<span style='color:green'>Lift,<span style='color:green'>Lift,<span style='color:green'>Lift,<span style='color:green'>Lift,<span style='color:red'>Fail","<span style='color:red'>Fail,<span style='color:green'>Lift,<span style='color:green'>Lift,<span style='color:red'>Fail,<span style='color:green'>Lift,<span style='color:green'>Lift","0,0,1,1,0,0,0,0,1,0,1,0","0,0,1,1,1,1,0,1,1,1,1,0","0,1,1,0,1,1",10,20,20,"","","<p> We randomly picked <b>Contest 1, Round 2</b> to calculate your bonus. </p><p> The outcome of Contestant A on that round is <span style='color:red'>Fail</span>. </p><p> The probability you entered was 20. </p><p><b> You won a bonus of $0.80!</b></p><p> IMPORTANT: Please click 'Next' to complete the game.</p>","","","",0,NA,"",NA,NA,NA,NA,NA,NA,NA,NA,NA,NA,NA,NA,NA,NA,NA,NA,NA,NA,NA,NA,NA,NA,NA,NA,NA,NA,NA,NA,NA,NA,NA,NA,NA,NA,NA,NA,NA,NA,NA,NA,"",NA,NA,NA,NA,NA,NA,1,0,2025-11-21 01:00:27
